t,trajectory_type,trajectory_variant,x,y,z,rx,ry,rz,vx,vy,vz,ax,ay,az,j1,j2,j3,j4,j5,j6,dj1,dj2,dj3,dj4,dj5,dj6,fx,fy,fz,tx,ty,tz,Mx,My,Mz,Bx,By,Bz,Kx,Ky,Kz,mode,comfort
0.0006,excitation,multi_sine,41.42503092267761,-666.6341480225068,296.0049500187091,-177.38821176275587,0.13134849045690844,-149.96177431740387,-0.021,-0.0197,0.1266,-1.2693,0.2358,2.4994,81.02750797082882,27.800719761612392,83.5995868645092,-23.37927924262153,-88.98999532063802,-39.058922661675346,-0.05441495687654703,-0.0,-0.018981329285272276,0.002865261501736111,0.06785074869791667,-0.0,0.7405,0.4498,7.8781,0.16153,-0.04211,-0.01137,0.001,0.001,0.001,0.0005,0.0005,0.0005,0.01,0.01,0.01,passive,-1
0.0213,excitation,multi_sine,41.42519583261534,-666.6342039910647,296.0043382198252,-177.38826967544767,0.13140562872197842,-149.96174315500102,0.0154,-0.0165,0.065,-0.7507,0.1924,0.0813,81.02752156776957,27.800767350905012,83.5995868645092,-23.37924533420139,-88.98998684353299,-39.058939615885414,-0.0,-0.0,-0.016697043239480198,3.390842013888889e-05,-0.0,-0.0,0.7163,0.3244,7.6188,0.17652,-0.03936,-0.01004,0.001,0.001,0.001,0.0005,0.0005,0.0005,0.01,0.01,0.01,passive,-1
0.0411,excitation,multi_sine,41.42558353016304,-666.6343377732654,296.003226333009,-177.38835803834468,0.1314881356802137,-149.96170867104382,0.043,-0.0116,-0.0234,-0.6682,0.096,-3.2464,81.02755556012144,27.80085573101988,83.59959366297957,-23.379219902886284,-88.98997836642795,-39.058939615885414,-0.0,-0.0,0.01836946695157797,0.02288818359375,-0.0,-0.0,0.7428,0.2345,7.6197,0.16964,-0.04927,-0.01413,0.001,0.001,0.001,0.0005,0.0005,0.0005,0.01,0.01,0.01,passive,-1
0.0606,excitation,multi_sine,41.42600576285684,-666.6345314601216,296.0035056718173,-177.38830929603802,0.13143779223844593,-149.9616686758888,-0.0135,-0.0095,-0.0463,-2.3365,-0.0179,-3.7119,81.02759635094368,27.800862529490253,83.59955967062771,-23.379262288411457,-88.98998684353299,-39.058939615885414,-0.0,-0.0,-0.016778624883972772,-0.00912136501736111,-0.0,-0.0,0.6974,0.1597,7.7152,0.15122,-0.04167,-0.01538,0.001,0.001,0.001,0.0005,0.0005,0.0005,0.01,0.01,0.01,passive,-1
0.0809,excitation,multi_sine,41.42551626778015,-666.634747749901,296.00441170828515,-177.38821669299344,0.13137312694978626,-149.961692398069,-0.1622,-0.0108,-0.0002,-6.0311,-0.1515,-1.2458,81.02755556012144,27.800828537138383,83.59949848439433,-23.37927924262153,-88.98997836642795,-39.05895657009548,-0.05441495687654703,-0.05441495687654703,-0.0271394937345297,0.02312554253472222,-0.0,-0.0,0.6442,0.0383,6.8481,0.13522,-0.05431,-0.01521,0.001,0.001,0.001,0.0005,0.0005,0.0005,0.01,0.01,0.01,passive,-1
0.1006,excitation,multi_sine,41.42056122893942,-666.6354052034549,296.00666472726544,-177.38815061292902,0.13131531083858214,-149.9619843371501,-0.3073,-0.0155,0.0106,-11.569,-0.3114,4.2856,81.02713405495822,27.800753753964262,83.59926053793123,-23.37905036078559,-88.98997836642795,-39.059083726671005,-0.05441495687654703,-0.0,-0.008892399249690593,0.033543904622395836,-0.0,-0.0,0.7366,0.1754,7.2277,0.14207,-0.04628,-0.01887,0.001,0.001,0.001,0.0005,0.0005,0.0005,0.01,0.01,0.01,passive,-1
0.1208,excitation,multi_sine,41.40918299755816,-666.6367136141824,296.01159108416766,-177.38805356292303,0.13123868451767984,-149.96267871843727,-0.6084,-0.0291,0.139,-19.1637,-0.579,13.1561,81.02616187369469,27.80057699373453,83.5987370557124,-23.378465440538193,-88.98996988932292,-39.05935499403212,-0.05441495687654703,-0.0,-0.03859491631536201,0.0600433349609375,-0.06785074869791667,-0.0,0.6221,0.2072,7.724,0.1619,-0.04579,-0.01378,0.001,0.001,0.001,0.0005,0.0005,0.0005,0.01,0.01,0.01,passive,-1
0.141,excitation,multi_sine,41.389614607074755,-666.6362398150856,296.01865928328976,-177.38886631917813,0.13187542686950743,-149.96319577921093,-1.0242,-0.0417,0.3889,-28.3511,-0.8179,24.7031,81.02444865916034,27.80014189163057,83.59783285915262,-23.376057942708332,-88.98995293511284,-39.06052483452691,-0.05441495687654703,-0.0,-0.054673298750773515,0.16615973578559026,0.06785074869791667,-0.06785074869791667,0.7914,0.111,7.9891,0.16178,-0.0448,-0.01782,0.001,0.001,0.001,0.0005,0.0005,0.0005,0.01,0.01,0.01,passive,-1
0.1609,excitation,multi_sine,41.36980731178552,-666.6359737650309,296.02433794457363,-177.39031459814495,0.13300282464416502,-149.9630959188485,-1.5696,-0.0452,0.8589,-39.2053,-0.8589,38.8207,81.02271504921488,27.79989714669709,83.59656834366298,-23.37265862358941,-88.98993598090277,-39.06232198079427,-0.10882991375309406,-0.05441495687654703,-0.09120827854269802,0.2677578396267361,-0.0,-0.20355224609375,0.7102,0.2428,7.6804,0.16922,-0.04185,-0.01356,0.001,0.001,0.001,0.0005,0.0005,0.0005,0.01,0.01,0.01,passive,-1
0.1809,excitation,multi_sine,41.324745712506356,-666.6377034647206,296.0472875124416,-177.3929978907981,0.13502243608061684,-149.9609652758839,-2.6021,-0.0598,1.9103,-52.024,-0.6805,54.7685,81.01879913027923,27.79906093484104,83.59268641707921,-23.36440192328559,-88.98987664116753,-39.06828138563368,-0.2176666259765625,-0.05441495687654703,-0.19871249057278775,0.427458021375868,-0.0,-0.2714114718967014,0.7513,0.1593,7.5826,0.16061,-0.03617,-0.01216,0.001,0.001,0.001,0.0005,0.0005,0.0005,0.01,0.01,0.01,passive,-1
0.201,excitation,multi_sine,41.27924509544665,-666.6401885441094,296.0827662728175,-177.39443000188058,0.1360744952504003,-149.959644954184,-3.7732,-0.094,3.1808,-67.1313,-0.2238,71.2579,81.0148560174621,27.797517682066058,83.58835579145072,-23.35659450954861,-88.98980882432726,-39.0734608968099,-0.2720815828531095,-0.16324487062964108,-0.31250528769918007,0.5756208631727431,-0.0,-0.339262220594618,0.7893,0.2438,7.9377,0.18657,-0.05153,-0.00962,0.001,0.001,0.001,0.0005,0.0005,0.0005,0.01,0.01,0.01,passive,-1
0.2206,excitation,multi_sine,41.17547907900576,-666.6422326711178,296.17122805250636,-177.39623063302352,0.13732130338842322,-149.9579619670974,-5.2287,-0.1056,4.7705,-80.7061,0.3236,83.0691,81.00582085033454,27.7929423115041,83.57955177231591,-23.340708414713543,-88.98966471354167,-39.08400641547309,-0.544163165706219,-0.2176666259765625,-0.44105756400835394,0.7965511745876735,-0.0,-0.5428229437934028,0.7906,0.176,7.5973,0.17632,-0.05078,-0.01487,0.001,0.001,0.001,0.0005,0.0005,0.0005,0.01,0.01,0.01,passive,-1
0.2407,excitation,multi_sine,41.082462803456366,-666.6422838137431,296.2582582839487,-177.39703053772536,0.13782284775772533,-149.95707644333385,-6.8627,-0.083,6.5153,-90.7771,0.8429,87.6814,80.99769667823716,27.788115397538288,83.57186270232248,-23.326983981662327,-88.98952060275607,-39.092864990234375,-0.544163165706219,-0.3809114966062036,-0.5467329875077351,0.9760453965928819,0.06785074869791667,-0.6106736924913194,0.7054,0.0834,7.4154,0.17249,-0.06059,-0.01203,0.001,0.001,0.001,0.0005,0.0005,0.0005,0.01,0.01,0.01,passive,-1
0.261,excitation,multi_sine,40.898785582895975,-666.644621866115,296.43845777756496,-177.3969961646914,0.13756530613802292,-149.95615485787286,-8.8895,-0.0546,8.4572,-97.341,1.5079,86.3588,80.98168628050549,27.778230421613937,83.55655254703937,-23.301467895507812,-88.98921542697482,-39.10951402452257,-0.8162515470297029,-0.489748208829672,-0.7371241503422803,1.1900414360894096,-0.0,-0.7463751898871528,0.6868,0.0661,7.5287,0.16732,-0.04796,-0.01131,0.001,0.001,0.001,0.0005,0.0005,0.0005,0.01,0.01,0.01,passive,-1
0.2809,excitation,multi_sine,40.68975151269742,-666.648164612997,296.63601945774775,-177.39583321841602,0.1364747817786903,-149.95699674703343,-11.0058,-0.0076,10.2627,-100.895,2.1425,81.0694,80.9634799768429,27.767305279722308,83.54041977684096,-23.275477091471355,-88.98883395724826,-39.1265869140625,-0.979496417659344,-0.5985781225827661,-0.8601356732963336,1.3672892252604167,-0.0,-0.9499359130859375,0.6788,0.2495,7.6497,0.17471,-0.04259,-0.00978,0.001,0.001,0.001,0.0005,0.0005,0.0005,0.01,0.01,0.01,passive,-1
0.3008,excitation,multi_sine,40.494761059283846,-666.6480469836122,296.81956748326644,-177.39470071992747,0.13540817329494603,-149.95744081299486,-13.2393,0.0409,11.8842,-108.0231,2.2768,76.7594,80.94644980855507,27.756720061349398,83.52614978752514,-23.251673380533855,-88.98846944173177,-39.14290534125434,-1.0883331298828125,-0.6529998779296875,-0.9416085422629177,1.5648396809895833,-0.0,-1.0177951388888888,0.8604,0.2806,7.8824,0.1708,-0.0519,-0.01448,0.001,0.001,0.001,0.0005,0.0005,0.0005,0.01,0.01,0.01,passive,-1
0.3206,excitation,multi_sine,40.154045609524,-666.6426091321389,297.1259044012976,-177.3931945650482,0.13406072999868648,-149.95815180948955,-15.2885,0.0712,13.1726,-112.7189,1.9103,70.9253,80.91660452361154,27.73836419133857,83.50321854695235,-23.21152581108941,-88.98771497938368,-39.17158338758681,-1.305999755859375,-0.7618297916827815,-0.9832695687171256,1.8322245279947915,-0.0,-1.2892066107855902,0.8526,0.204,7.9578,0.17613,-0.04699,-0.01788,0.001,0.001,0.001,0.0005,0.0005,0.0005,0.01,0.01,0.01,passive,-1
0.3408,excitation,multi_sine,39.88729579766731,-666.6424158756888,297.34757541670433,-177.3922849066827,0.13339244051488322,-149.95908613624073,-17.3042,0.1115,14.2698,-111.6348,1.3581,62.5656,80.89327897175704,27.72547429150874,83.48586885055693,-23.181737263997395,-88.98700290256076,-39.19363233778212,-1.4692514249593904,-0.8162515470297029,-1.1424421555925124,1.9227769639756944,-0.0,-1.4249081081814237,0.8355,0.0648,8.0038,0.1647,-0.04678,-0.02013,0.001,0.001,0.001,0.0005,0.0005,0.0005,0.01,0.01,0.01,passive,-1
0.3609,excitation,multi_sine,39.44698708001905,-666.640537633161,297.70196965044585,-177.39124375571245,0.1327846529778073,-149.95873906133127,-19.2392,0.1533,15.2964,-111.4919,0.671,56.8593,80.8547316447343,27.704691367574256,83.45816508378132,-23.133265177408855,-88.98566351996527,-39.23196580674913,-1.795747964689047,-0.9250814607827971,-1.1407493364692916,2.109544542100694,0.06785074869791667,-1.696319580078125,0.8866,0.1035,7.5109,0.16044,-0.04839,-0.01759,0.001,0.001,0.001,0.0005,0.0005,0.0005,0.01,0.01,0.01,passive,-1
0.3808,excitation,multi_sine,39.11037944515523,-666.6353114017854,297.9565175921888,-177.3910185087215,0.1327687518493889,-149.9593403018716,-21.8957,0.1504,16.7124,-110.8197,-0.1069,52.896,80.82521948483911,27.689238444413288,83.43885742791808,-23.097813924153645,-88.98467169867621,-39.26046583387587,-1.8501697200359684,-1.0339181730062654,-1.2520946842609066,2.2820875379774304,0.06785074869791667,-1.832029554578993,0.6744,0.1262,7.2178,0.14879,-0.04815,-0.01738,0.001,0.001,0.001,0.0005,0.0005,0.0005,0.01,0.01,0.01,passive,-1
0.4009,excitation,multi_sine,38.5614063886348,-666.6351011841224,298.3688191076888,-177.39015465131504,0.1322794916555869,-149.95877000575234,-24.8133,0.1272,18.1661,-109.9879,-0.7525,49.901,80.77720868705522,27.66525344093247,83.40614998694694,-23.04062737358941,-88.98305257161458,-39.308386908637154,-2.176666259765625,-1.0339181730062654,-1.4040812879505724,2.4741278754340277,0.06785074869791667,-2.0355902777777777,0.7122,0.0177,7.1727,0.14764,-0.04867,-0.02101,0.001,0.001,0.001,0.0005,0.0005,0.0005,0.01,0.01,0.01,passive,-1
0.4208,excitation,multi_sine,38.168845094868786,-666.6319350137992,298.6546861258388,-177.39007778836566,0.13229940834297232,-149.95775438420642,-26.1648,0.1092,18.5874,-105.2664,-1.266,44.6579,80.74284241931274,27.64829125734839,83.38376262400409,-23.00025092230903,-88.98192511664496,-39.34330410427517,-2.2310880151125465,-1.1427480867593596,-1.4430501201365253,2.543648613823785,0.06785074869791667,-2.171291775173611,0.6334,0.0966,7.4348,0.15184,-0.04922,-0.01687,0.001,0.001,0.001,0.0005,0.0005,0.0005,0.01,0.01,0.01,passive,-1
0.441,excitation,multi_sine,37.51956565314492,-666.6286324682827,299.1199957451131,-177.38869133598547,0.13123759222366455,-149.95734595639289,-28.26,0.0783,19.4403,-97.0386,-1.6465,36.6113,80.68605479627553,27.620757452332146,83.34781231266437,-22.93677435980903,-88.98014492458768,-39.39977010091146,-2.3943328857421875,-1.1971630436359066,-1.5886393632038984,2.6924811469184027,0.06785074869791667,-2.4427032470703125,0.7414,0.1495,8.192,0.1508,-0.04,-0.01707,0.001,0.001,0.001,0.0005,0.0005,0.0005,0.01,0.01,0.01,passive,-1
0.4609,excitation,multi_sine,37.04684944949329,-666.6270531473626,299.4318960669792,-177.38861821180342,0.1312141442794282,-149.95784281421368,-30.181,0.0377,20.1751,-86.2539,-1.6105,27.1102,80.64473369334003,27.602333597617573,83.32324943920173,-22.89261711968316,-88.9788818359375,-39.440087212456596,-2.6664212670656715,-1.1971630436359066,-1.5200767894782643,2.869695027669271,-0.0,-2.5784132215711804,0.7588,0.249,8.0037,0.17693,-0.03478,-0.0121,0.001,0.001,0.001,0.0005,0.0005,0.0005,0.01,0.01,0.01,passive,-1
0.481,excitation,multi_sine,36.16495702676336,-666.6283216540389,300.0141767450996,-177.3874226235634,0.13029517304701083,-149.95787663689782,-32.0605,0.0068,20.8035,-79.8137,-1.327,20.5905,80.56771382246868,27.56851120750503,83.2769790498337,-22.811686197916668,-88.97649976942274,-39.516143798828125,-2.8296661376953125,-1.251584798982828,-1.6291038588722153,2.9721577962239585,0.13570149739583334,-2.8498246934678817,0.799,0.1992,7.7818,0.18085,-0.05675,-0.01401,0.001,0.001,0.001,0.0005,0.0005,0.0005,0.01,0.01,0.01,passive,-1
0.5007,excitation,multi_sine,35.76049269832847,-666.6266290800862,300.26248505419255,-177.38765800969094,0.1304964221605414,-149.95857302891267,-33.542,-0.0108,21.1493,-81.2248,-1.125,20.1628,80.53236857499226,27.553799317614867,83.25735186586286,-22.775980631510418,-88.9754401312934,-39.55038282606337,-3.047339562142249,-1.1971630436359066,-1.6647414405747216,2.997343275282118,0.13570149739583334,-2.9176754421657987,0.8234,0.0133,8.0246,0.17169,-0.05188,-0.01733,0.001,0.001,0.001,0.0005,0.0005,0.0005,0.01,0.01,0.01,passive,-1
0.5209,excitation,multi_sine,35.06681163074107,-666.6309839605169,300.69441348472526,-177.38695151830342,0.13001798199335138,-149.9592407857927,-34.781,-0.0356,21.2329,-80.046,-0.9108,18.3769,80.47184859171952,27.529161660978108,83.2222037740273,-22.71521674262153,-88.97354125976562,-39.60953606499566,-2.992917806795328,-1.1971630436359066,-1.7613001153020575,3.137529161241319,-0.0,-2.985526190863715,0.5862,-0.1176,7.714,0.14715,-0.0481,-0.02021,0.001,0.001,0.001,0.0005,0.0005,0.0005,0.01,0.01,0.01,passive,-1
0.5409,excitation,multi_sine,34.21784827830227,-666.6290284698064,301.2161260436892,-177.38733466941775,0.13033172793756545,-149.95742675267377,-36.4169,-0.0473,21.61,-79.4292,-0.6226,16.5775,80.3976840784054,27.49879289381575,83.18014843629138,-22.639973958333332,-88.97122701009114,-39.684651692708336,-3.2105844327718907,-1.1971630436359066,-1.8199709146329672,3.2121955023871527,0.06785074869791667,-3.2569376627604165,0.7046,-0.0174,7.979,0.17509,-0.04835,-0.01643,0.001,0.001,0.001,0.0005,0.0005,0.0005,0.01,0.01,0.01,passive,-1
0.5609,excitation,multi_sine,33.62737680759015,-666.630841696501,301.5611711596068,-177.38813600833615,0.13109049173275386,-149.95631962574433,-37.9023,-0.0443,21.8846,-78.5599,-0.298,16.5631,80.34614487449721,27.479138515963413,83.15135691425589,-22.588814629448784,-88.96954854329427,-39.73670959472656,-3.2650061881188117,-1.305999755859375,-1.7698321956219059,3.24202643500434,0.06785074869791667,-3.2569376627604165,0.7279,0.1432,8.2649,0.18526,-0.05108,-0.01489,0.001,0.001,0.001,0.0005,0.0005,0.0005,0.01,0.01,0.01,passive,-1
0.5808,excitation,multi_sine,32.69564622421064,-666.6309604713808,302.0979940022326,-177.38853942437316,0.1314518638501088,-149.95534242860455,-40.0809,-0.0545,22.6204,-77.2325,0.0449,18.2603,80.26481477340849,27.44819187881923,83.10757476504486,-22.51102023654514,-88.96701388888889,-39.818123711480034,-3.373836101871906,-1.251584798982828,-1.8160753911084468,3.2225884331597223,0.13570149739583334,-3.596208360460069,0.603,-0.0293,7.4571,0.17375,-0.04648,-0.00989,0.001,0.001,0.001,0.0005,0.0005,0.0005,0.01,0.01,0.01,passive,-1
0.6007,excitation,multi_sine,32.046087429821206,-666.6307898340239,302.4497415296445,-177.38976383389257,0.13250588404407748,-149.955225265189,-41.2261,-0.0628,22.834,-73.1886,0.5037,20.3838,80.20812232895653,27.427939235573948,83.0783753347869,-22.458207872178818,-88.96525065104167,-39.874326917860245,-3.7003394400719367,-1.305999755859375,-1.8513730492922338,3.3442009819878473,0.13570149739583334,-3.664059109157986,0.5538,-0.1078,7.7799,0.16672,-0.04634,-0.01277,0.001,0.001,0.001,0.0005,0.0005,0.0005,0.01,0.01,0.01,passive,-1
0.6209,excitation,multi_sine,31.027723026029,-666.6341685949981,303.0039384594808,-177.38989189272172,0.1326519816896658,-149.9567007966402,-42.8079,-0.0493,23.1571,-63.5519,1.1298,19.4732,80.11932750739673,27.39647591468131,83.03254004752282,-22.378031412760418,-88.96255493164062,-39.96072557237413,-3.7003394400719367,-1.305999755859375,-1.901919676525758,3.302188449435764,0.13570149739583334,-3.596208360460069,0.576,-0.1053,7.5588,0.1568,-0.04824,-0.01434,0.001,0.001,0.001,0.0005,0.0005,0.0005,0.01,0.01,0.01,passive,-1
0.6406,excitation,multi_sine,30.340587670359273,-666.6341101339937,303.37744477397496,-177.38997210506304,0.13273703057559416,-149.9568866857799,-44.0214,-0.0197,23.5692,-52.1339,1.6565,16.7792,80.05938539410582,27.375128717705756,83.00187894613435,-22.324066162109375,-88.96071539984808,-40.01986185709635,-3.8635911091719524,-1.305999755859375,-1.9625960246171101,3.447935316297743,0.06785074869791667,-3.664059109157986,0.5834,-0.199,7.4816,0.17116,-0.05268,-0.01293,0.001,0.001,0.001,0.0005,0.0005,0.0005,0.01,0.01,0.01,passive,-1
0.6609,excitation,multi_sine,29.287118631338902,-666.6354315719929,303.9363961934497,-177.38987922093764,0.13270636841254388,-149.95709022504894,-44.5791,0.0188,23.7252,-38.6558,1.976,11.8031,79.96752446240718,27.343441047290764,82.95566974299969,-22.243431939019096,-88.95787556966145,-40.11059231228298,-3.918006066048499,-1.360414712735922,-1.9001044849357982,3.36318122016059,0.06785074869791667,-3.8676198323567705,0.6687,-0.2053,7.1551,0.18319,-0.05134,-0.01084,0.001,0.001,0.001,0.0005,0.0005,0.0005,0.01,0.01,0.01,passive,-1
0.6808,excitation,multi_sine,28.56583480167217,-666.6359400975219,304.3242818848233,-177.38870675022042,0.13176803636055,-149.95773462283051,-45.7215,0.0584,24.2843,-31.8928,1.9272,8.2476,79.90463861144416,27.32144799562964,82.92414523587368,-22.18949211968316,-88.9559343126085,-40.17221238878038,-3.918006066048499,-1.360414712735922,-1.9622085118057704,3.425047132703993,0.06785074869791667,-3.8676198323567705,0.7215,-0.1428,7.8832,0.18339,-0.05469,-0.01128,0.001,0.001,0.001,0.0005,0.0005,0.0005,0.01,0.01,0.01,passive,-1
0.7006,excitation,multi_sine,27.47137087207665,-666.6335752449116,304.8970227109599,-177.38813888600026,0.13131191484748658,-149.9569771073025,-45.8415,0.1091,24.2491,-25.963,1.1611,3.7784,79.80918128891747,27.28887652406598,82.87718820099784,-22.107713487413193,-88.95296732584636,-40.267486572265625,-4.190087648901609,-1.4148296696124691,-1.9626232184986077,3.4700690375434027,0.06785074869791667,-3.799769083658854,0.5084,-0.21,7.3167,0.17647,-0.05108,-0.0094,0.001,0.001,0.001,0.0005,0.0005,0.0005,0.01,0.01,0.01,passive,-1
0.7208,excitation,multi_sine,26.549561748977872,-666.6271811385812,305.3854157712018,-177.3876908945147,0.13095063365970094,-149.95747232467582,-46.4249,0.1433,24.3133,-21.8279,-0.2354,-1.9686,79.72873498897741,27.260853229182782,82.83755991718557,-22.038158840603298,-88.95050896538628,-40.34663730197482,-4.081257735148514,-1.4148296696124691,-2.053981063389542,3.5473124186197915,0.13570149739583334,-4.071180555555555,0.5585,-0.2276,7.6388,0.16178,-0.05517,-0.02039,0.001,0.001,0.001,0.0005,0.0005,0.0005,0.01,0.01,0.01,passive,-1
0.7406,excitation,multi_sine,25.803387132528908,-666.627524701676,305.7755922897646,-177.38750422418224,0.13075638185922028,-149.95794880079288,-46.7039,0.1248,24.1488,-22.5758,-1.6912,-5.045,79.66372121678721,27.239322473507116,82.80447856034382,-21.9818115234375,-88.94856770833333,-40.41052924262153,-4.135672692025062,-1.305999755859375,-2.0662047131226795,3.498136732313368,0.06785074869791667,-4.0033213297526045,0.4877,-0.1198,7.282,0.17427,-0.0464,-0.01339,0.001,0.001,0.001,0.0005,0.0005,0.0005,0.01,0.01,0.01,passive,-1
0.761,excitation,multi_sine,24.67190901347506,-666.6241507893627,306.36744527006704,-177.38691345278107,0.1303009667718738,-149.95857491286063,-47.1169,0.0771,23.9335,-16.6298,-2.8891,-9.0154,79.56508221012531,27.206404279954363,82.75484292814048,-21.89695570203993,-88.94554138183594,-40.507566663953995,-4.026835979801594,-1.360414712735922,-2.051608397228883,3.5143280029296875,0.20355224609375,-4.071180555555555,0.4434,-0.2056,7.891,0.16684,-0.05865,-0.01086,0.001,0.001,0.001,0.0005,0.0005,0.0005,0.01,0.01,0.01,passive,-1
0.7808,excitation,multi_sine,23.91129002175413,-666.622903948812,306.7506941793946,-177.38717625922874,0.1305518867303828,-149.95883911700577,-47.8369,-0.0011,23.9105,-13.6085,-3.3708,-7.3103,79.49880392244546,27.185383409556774,82.72191793611734,-21.840591430664062,-88.94350687662761,-40.57293362087673,-4.135672692025062,-1.305999755859375,-2.129457681485922,3.55712890625,0.13570149739583334,-4.274732801649305,0.4264,-0.2926,7.3165,0.18092,-0.05635,-0.0063,0.001,0.001,0.001,0.0005,0.0005,0.0005,0.01,0.01,0.01,passive,-1
0.8008,excitation,multi_sine,22.745923008627653,-666.6218577679714,307.3262262614922,-177.38711511475842,0.13044783872232468,-149.9606584719602,-47.7082,-0.1109,23.5182,-13.5416,-2.944,0.0354,79.3973163566967,27.154035662660505,82.67237068402885,-21.756701999240452,-88.94050598144531,-40.67164103190104,-4.135672692025062,-1.305999755859375,-2.0456937280031715,3.4531487358940973,0.13570149739583334,-4.139031304253472,0.5126,-0.2138,8.2757,0.18445,-0.05212,-0.00939,0.001,0.001,0.001,0.0005,0.0005,0.0005,0.01,0.01,0.01,passive,-1
0.8209,excitation,multi_sine,21.967609233656844,-666.6257102369392,307.7027363758254,-177.38735294880763,0.13064274178336596,-149.96209042185498,-48.467,-0.1808,23.7977,-9.2642,-1.6809,6.9527,79.32962398717899,27.134299703163677,82.6386026816793,-21.700820922851562,-88.93849690755208,-40.73726230197482,-4.298924361125077,-1.1971630436359066,-2.117471978215888,3.5361819797092013,0.13570149739583334,-4.071180555555555,0.2969,-0.2433,8.1041,0.16191,-0.04752,-0.01232,0.001,0.001,0.001,0.0005,0.0005,0.0005,0.01,0.01,0.01,passive,-1
0.8407,excitation,multi_sine,20.81372520163049,-666.6323885512395,308.2613835405453,-177.38822033576392,0.13138732141758852,-149.96321245579608,-47.9043,-0.1972,23.6674,2.7433,-0.0746,9.9538,79.22929895986425,27.10553537500967,82.58744419211209,-21.616651746961804,-88.93548753526476,-40.83550347222222,-4.081257735148514,-1.1971630436359066,-2.1981086353264234,3.5492875840928817,0.13570149739583334,-4.0033213297526045,0.316,-0.2317,7.6261,0.17315,-0.04768,-0.00897,0.001,0.001,0.001,0.0005,0.0005,0.0005,0.01,0.01,0.01,passive,-1
0.8607,excitation,multi_sine,20.04946873419615,-666.6345802068735,308.6406012554527,-177.38870513846425,0.13184387106456916,-149.9639411478378,-47.5294,-0.1586,23.9171,20.4165,1.3738,8.8974,79.16282351654355,27.085962578801826,82.5528603733176,-21.559770372178818,-88.9334699842665,-40.90059916178385,-4.081257735148514,-1.1427480867593596,-2.1335163682994276,3.583272298177083,0.13570149739583334,-4.274732801649305,0.2525,-0.3267,7.0604,0.17687,-0.0518,-0.00446,0.001,0.001,0.001,0.0005,0.0005,0.0005,0.01,0.01,0.01,passive,-1
0.8809,excitation,multi_sine,18.913612063205623,-666.641680422611,309.21469786370545,-177.38914228158055,0.13211234019094797,-149.96428130547088,-48.0039,-0.0905,24.7624,32.5717,2.4238,9.1863,79.06413012211866,27.057143862884825,82.49943119464534,-21.47393120659722,-88.93058776855469,-40.99797566731771,-4.081257735148514,-1.1971630436359066,-2.226961343595297,3.495203653971354,0.13570149739583334,-4.206882052951388,0.1131,-0.4121,7.5089,0.14072,-0.04273,-0.01175,0.001,0.001,0.001,0.0005,0.0005,0.0005,0.01,0.01,0.01,passive,-1
0.9009,excitation,multi_sine,18.177086100417114,-666.6436984785045,309.60601979445346,-177.38875655462826,0.13175033877417544,-149.96366215413119,-47.1908,-0.0259,24.857,47.1536,2.5943,5.424,79.00009532966236,27.037346717154627,82.46360325577236,-21.41680399576823,-88.92866346571181,-41.06197781032986,-4.026835979801594,-1.305999755859375,-2.1745111446569463,3.6182488335503473,0.13570149739583334,-3.8676198323567705,0.3797,-0.32,8.0099,0.16246,-0.05524,-0.01502,0.001,0.001,0.001,0.0005,0.0005,0.0005,0.01,0.01,0.01,passive,-1
0.9207,excitation,multi_sine,17.11459723474426,-666.6400617187049,310.18135641337676,-177.38906492264053,0.1321000219431759,-149.9610641082836,-45.7023,0.034,24.6649,59.794,1.8837,-0.214,78.9076021402189,27.007882146552056,82.41107147518952,-21.33135477701823,-88.92574734157986,-41.156090630425346,-3.754754396948484,-1.1971630436359066,-2.2307820839456993,3.5250006781684027,0.13570149739583334,-4.0033213297526045,0.3139,-0.393,7.5256,0.16882,-0.04812,-0.00713,0.001,0.001,0.001,0.0005,0.0005,0.0005,0.01,0.01,0.01,passive,-1
0.9408,excitation,multi_sine,16.242882637438893,-666.6348974561859,310.66082337309007,-177.38928482608412,0.13231538828527203,-149.95937304478335,-43.5671,0.0498,24.1027,73.6622,0.9476,-8.8231,78.8317040169593,26.98332607155979,82.36735731068224,-21.260333591037327,-88.92340766059027,-41.23286777072482,-3.8635911091719524,-1.1971630436359066,-2.198618520604502,3.570149739583333,0.13570149739583334,-3.664059109157986,0.3344,-0.5141,7.8856,0.16759,-0.05,-0.00698,0.001,0.001,0.001,0.0005,0.0005,0.0005,0.01,0.01,0.01,passive,-1
0.9612,excitation,multi_sine,15.198363645807964,-666.6324645999395,311.2379540052601,-177.38965291010848,0.13258325709742286,-149.95991415220547,-42.5758,0.0542,24.2355,94.2249,0.3204,-20.8769,78.74086965428721,26.954575340346533,82.31349302990601,-21.174418131510418,-88.92076280381944,-41.32218254937066,-3.754754396948484,-1.1427480867593596,-2.2704103677579672,3.606897989908854,0.13570149739583334,-3.528349134657118,0.1727,-0.5203,7.7337,0.15944,-0.04838,-0.00737,0.001,0.001,0.001,0.0005,0.0005,0.0005,0.01,0.01,0.01,passive,-1
0.9807,excitation,multi_sine,14.514975305910035,-666.6359818851759,311.62393845540294,-177.38967692613326,0.1325787281477767,-149.96015815982778,-41.1928,0.0439,24.0877,90.6052,0.1361,-19.322,78.68153940332998,26.93619907492458,82.27625780766553,-21.11692640516493,-88.91903347439236,-41.380615234375,-3.5915027278484684,-1.1971630436359066,-2.348755940352336,3.6394670274522567,0.13570149739583334,-3.596208360460069,0.2162,-0.4963,8.24,0.15946,-0.0513,-0.00867,0.001,0.001,0.001,0.0005,0.0005,0.0005,0.01,0.01,0.01,passive,-1
1.0009,excitation,multi_sine,13.857684282115038,-666.636421278998,312.0159454474585,-177.38905957988138,0.132037040265936,-149.9609137907577,-38.8328,0.011,23.3134,76.8013,0.0667,-14.3003,78.62443225218517,26.917244939520806,82.2392469349474,-21.06000264485677,-88.91737196180556,-41.43631829155816,-3.5370877709719215,-1.1971630436359066,-2.3843799251140934,3.457845052083333,0.13570149739583334,-3.4604983859592013,0.303,-0.5057,6.9986,0.17726,-0.05012,0.0009,0.001,0.001,0.001,0.0005,0.0005,0.0005,0.01,0.01,0.01,passive,-1
1.0209,excitation,multi_sine,12.92308556077842,-666.6364853635541,312.59066787325895,-177.38844116185345,0.13160310327368804,-149.96121997816772,-37.2058,0.017,23.009,78.6094,-0.0281,-19.46,78.54321772509282,26.889745126856436,82.18441047290764,-20.975858900282116,-88.91491360134549,-41.516265869140625,-3.373836101871906,-1.0883331298828125,-2.2777799096437965,3.479673597547743,-0.0,-3.324796888563368,0.2476,-0.4071,7.6701,0.17404,-0.065,-0.00096,0.001,0.001,0.001,0.0005,0.0005,0.0005,0.01,0.01,0.01,passive,-1
1.0406,excitation,multi_sine,12.321790853710194,-666.6370765024969,312.97233471947806,-177.38763248646367,0.13091088451269256,-149.9613107459554,-34.5759,0.0493,21.9247,84.4739,-0.1858,-28.363,78.49099187567683,26.87167479260133,82.14792308240834,-20.92071533203125,-88.91337076822917,-41.567772759331596,-3.047339562142249,-1.0883331298828125,-2.133026878432472,3.3594428168402777,-0.0,-3.121236165364583,0.2822,-0.5093,7.5132,0.17191,-0.05567,-0.00311,0.001,0.001,0.001,0.0005,0.0005,0.0005,0.01,0.01,0.01,passive,-1
1.0617,excitation,multi_sine,11.468099642544118,-666.6335216787933,313.52583431785104,-177.3867106233593,0.1300701568033705,-149.9617267330627,-34.1411,0.0745,22.1472,95.3344,-0.5436,-39.6676,78.41678657154046,26.84517435508199,82.09540489876625,-20.840606689453125,-88.91123453776042,-41.6406504313151,-3.1017545190187965,-1.0339181730062654,-2.107682180876779,3.329679701063368,-0.0,-2.9176754421657987,0.2407,-0.5662,7.2166,0.16122,-0.0685,-0.01107,0.001,0.001,0.001,0.0005,0.0005,0.0005,0.01,0.01,0.01,passive,-1
1.081,excitation,multi_sine,10.929553596166576,-666.6319580766814,313.8665541749967,-177.3871855022656,0.13048377178866272,-149.9620153817186,-33.739,0.058,22.1598,106.4403,-0.9689,-49.8342,78.36999269995358,26.829225143583695,82.06201081228728,-20.789159138997395,-88.90988667805989,-41.68657090928819,-2.7208362239422184,-1.0339181730062654,-2.102168621403156,3.135986328125,0.06785074869791667,-2.781973944769965,0.1946,-0.5842,6.9101,0.15261,-0.06175,-0.00379,0.001,0.001,0.001,0.0005,0.0005,0.0005,0.01,0.01,0.01,passive,-1
1.1007,excitation,multi_sine,10.18862985083803,-666.6289097437474,314.35617743853504,-177.38763415165977,0.13083918332457087,-149.9612795093502,-29.9311,0.0024,19.9907,116.6051,-1.4539,-60.6157,78.30560438703782,26.806382283125775,82.0140544022664,-20.715721978081596,-88.9080301920573,-41.75086127387153,-2.61199951171875,-0.87066650390625,-1.8837133728631652,2.9601372612847223,0.06785074869791667,-2.5784132215711804,0.2577,-0.5024,7.198,0.17431,-0.05743,-0.00252,0.001,0.001,0.001,0.0005,0.0005,0.0005,0.01,0.01,0.01,passive,-1
1.1207,excitation,multi_sine,9.74096441457745,-666.6283832100081,314.66153340686486,-177.38796323490826,0.13114059118849358,-149.9606845962174,-27.0876,-0.0416,18.3982,127.1425,-1.6485,-71.6898,78.26672393496673,26.792445418858293,81.98365164275216,-20.66968282063802,-88.90688578287761,-41.78981357150607,-2.3399179288656407,-0.8162515470297029,-1.877914277633818,2.8526136610243054,0.06785074869791667,-2.307001749674479,0.3142,-0.5458,6.8787,0.20235,-0.05628,0.00036,0.001,0.001,0.001,0.0005,0.0005,0.0005,0.01,0.01,0.01,passive,-1
1.1408,excitation,multi_sine,9.132755719093398,-666.6321835585468,315.07736806831076,-177.3887916417161,0.13194786170047146,-149.95992319393207,-24.4744,-0.0753,16.943,143.1322,-1.2107,-86.1025,78.21398140180229,26.774245913666075,81.94084847327507,-20.605824788411457,-88.90530056423611,-41.842592027452255,-2.067836346012531,-0.7074148348062346,-1.7287286437383973,2.5515068901909723,0.06785074869791667,-2.0355902777777777,0.2132,-0.5375,7.5762,0.17938,-0.04891,-0.00153,0.001,0.001,0.001,0.0005,0.0005,0.0005,0.01,0.01,0.01,passive,-1
1.1606,excitation,multi_sine,8.679013617046133,-666.6364702178192,315.39687512785633,-177.38885190019204,0.13197683994261075,-149.9599589301165,-21.5489,-0.1004,15.2734,150.238,-0.3738,-94.1972,78.17467944456799,26.760438220335704,81.90800506289642,-20.557861328125,-88.90419854058159,-41.88131544325087,-1.9045846769125154,-0.7074148348062346,-1.5309475436068998,2.232530381944444,0.06785074869791667,-1.832029554578993,0.2312,-0.3314,7.8574,0.17691,-0.04856,0.00061,0.001,0.001,0.001,0.0005,0.0005,0.0005,0.01,0.01,0.01,passive,-1
1.1811,excitation,multi_sine,8.34638571723208,-666.6383760898607,315.63228319512825,-177.38860500210512,0.13168741379498056,-149.96080222333308,-18.6118,-0.1002,13.4181,141.2638,0.5636,-91.7146,78.14586072865099,26.750090948425896,81.88424440893796,-20.523240831163193,-88.90345255533855,-41.90889994303385,-1.6325030940594059,-0.5985781225827661,-1.4255780512743657,2.1219550238715277,0.06785074869791667,-1.6284688313802083,0.2292,-0.3674,7.5939,0.1652,-0.06384,-0.00768,0.001,0.001,0.001,0.0005,0.0005,0.0005,0.01,0.01,0.01,passive,-1
1.201,excitation,multi_sine,7.913777381263469,-666.6405246898636,315.9482003307319,-177.38755052966476,0.1307595555243193,-149.96340242724597,-16.1499,-0.0716,11.68,140.8204,1.1229,-94.1225,78.10837396300666,26.73609969639542,81.85287626663057,-20.47817654079861,-88.90245225694444,-41.943274603949654,-1.4148296696124691,-0.544163165706219,-1.1182939888227104,1.7236243353949652,0.06785074869791667,-1.2213473849826388,0.0538,-0.4861,6.6911,0.16241,-0.04831,-0.00141,0.001,0.001,0.001,0.0005,0.0005,0.0005,0.01,0.01,0.01,passive,-1
1.2208,excitation,multi_sine,7.679219222533092,-666.637644801683,316.12236777690606,-177.38726323074343,0.13051730321051394,-149.96423268565871,-13.2633,-0.0187,9.6291,143.9401,1.1418,-97.141,78.08797175341313,26.727941531946165,81.83613843256884,-20.453033447265625,-88.90188429090712,-41.96256001790365,-1.1971630436359066,-0.489748208829672,-1.0149096498394956,1.4252980550130208,-0.0,-1.0856458875868056,0.1956,-0.6168,7.2274,0.15783,-0.06239,-0.00533,0.001,0.001,0.001,0.0005,0.0005,0.0005,0.01,0.01,0.01,passive,-1
1.241,excitation,multi_sine,7.402716107401037,-666.6394105647681,316.333330340427,-177.3869459232456,0.13029588915025342,-149.96465132662124,-10.2089,0.0106,7.5785,141.571,0.8514,-94.4026,78.06400714534344,26.71879758929262,81.81468925853767,-20.422075059678818,-88.9011722140842,-41.98575337727865,-0.8162515470297029,-0.32649653972965653,-0.7716535813737624,1.089570787217882,-0.0,-0.8820851643880208,0.1778,-0.5512,7.3057,0.16467,-0.048,-0.00133,0.001,0.001,0.001,0.0005,0.0005,0.0005,0.01,0.01,0.01,passive,-1
1.261,excitation,multi_sine,7.258724885042468,-666.6398606991022,316.4346512379731,-177.38753266343224,0.1308728018695827,-149.96519659606258,-7.723,0.0157,5.9716,137.1517,0.4306,-87.9232,78.0515183552657,26.714487359075264,81.80390008605353,-20.405773586697048,-88.90079922146268,-41.99751112196181,-0.7074148348062346,-0.2176666259765625,-0.5827240896697091,0.9157477484809028,-0.0,-0.678524441189236,0.1953,-0.3806,8.0719,0.16544,-0.06095,-0.00389,0.001,0.001,0.001,0.0005,0.0005,0.0005,0.01,0.01,0.01,passive,-1
1.2809,excitation,multi_sine,7.108366414634915,-666.6384620632124,316.5416458870727,-177.38879588342684,0.13201073899542656,-149.96533884572318,-4.5691,0.0183,4.002,130.511,0.0322,-78.3326,78.03844489673577,26.709816809928064,81.79239707418007,-20.387488471137154,-88.90043470594618,-42.01023525661892,-0.489748208829672,-0.16324487062964108,-0.38435832108601486,0.644344753689236,-0.0,-0.4749637179904514,0.219,-0.3866,8.2424,0.17625,-0.05261,-0.00375,0.001,0.001,0.001,0.0005,0.0005,0.0005,0.01,0.01,0.01,passive,-1
1.3008,excitation,multi_sine,7.046703335866265,-666.6378986647023,316.59292399737114,-177.389360993843,0.13252737057170766,-149.96535721030116,-1.9818,-0.0051,2.4697,118.4441,-0.1037,-65.8466,78.03308090361038,26.707600508586015,81.78687671623608,-20.37881639268663,-88.90028211805556,-42.015482584635414,-0.2720815828531095,-0.10882991375309406,-0.29898992859491025,0.4441748725043403,-0.06785074869791667,-0.2714114718967014,0.2387,-0.3217,8.2921,0.18573,-0.051,0.0001,0.001,0.001,0.001,0.0005,0.0005,0.0005,0.01,0.01,0.01,passive,-1
1.3211,excitation,multi_sine,7.024408917983584,-666.6383274912464,316.6511935894746,-177.3890382295731,0.1322543371880842,-149.96375182015444,0.1681,-0.0216,1.3677,104.7815,0.1906,-53.9749,78.03113654108331,26.705105469958617,81.78105042712524,-20.370805528428818,-88.90018039279514,-42.018941243489586,0.16324487062964108,-0.0,-0.1875222083365563,0.21387736002604166,0.06785074869791667,-0.06785074869791667,0.1804,-0.4473,7.4934,0.17152,-0.05176,-0.00475,0.001,0.001,0.001,0.0005,0.0005,0.0005,0.01,0.01,0.01,passive,-1
1.3407,excitation,multi_sine,7.067278449738232,-666.6397989657767,316.65762198420157,-177.38964471531742,0.13282947612138474,-149.9599634004397,1.961,-0.0077,0.531,92.0964,0.6966,-44.6614,78.03484850590772,26.705200648543858,81.77952077129099,-20.368533664279514,-88.90016343858507,-42.01899210611979,0.2720815828531095,-0.0,0.025548651666924504,0.06819831000434028,-0.0,0.06785074869791667,-0.0125,-0.5806,7.2678,0.16168,-0.0483,-0.00368,0.001,0.001,0.001,0.0005,0.0005,0.0005,0.01,0.01,0.01,passive,-1
1.361,excitation,multi_sine,7.148768475089602,-666.6376379761759,316.6440002910363,-177.39075898480647,0.13388068164650013,-149.954675494284,3.6161,0.0191,-0.1827,78.5247,1.1686,-36.2486,78.04183053498221,26.705812510877553,81.7803433862063,-20.36849127875434,-88.90018039279514,-42.017296685112846,0.3809114966062036,0.10882991375309406,-0.014725486830909653,-0.037163628472222224,0.06785074869791667,0.20355224609375,0.1918,-0.4123,7.5445,0.17528,-0.04848,-0.00314,0.001,0.001,0.001,0.0005,0.0005,0.0005,0.01,0.01,0.01,passive,-1
1.3811,excitation,multi_sine,7.234588391526801,-666.6391852766861,316.63644713012695,-177.38999565632324,0.13339052615835786,-149.95404346372385,5.18,0.0574,-0.8724,73.3037,1.6005,-33.8653,78.04926806157178,26.70630879921488,81.78123398582534,-20.370992024739582,-88.90024820963542,-42.01051500108507,0.3809114966062036,-0.05441495687654703,0.08505566285388304,-0.2381473117404514,-0.0,0.4749637179904514,0.1106,-0.4755,7.6576,0.17286,-0.05014,-0.00137,0.001,0.001,0.001,0.0005,0.0005,0.0005,0.01,0.01,0.01,passive,-1
1.401,excitation,multi_sine,7.310048971764455,-666.640218996838,316.6292355017916,-177.3880448526876,0.13187712352716202,-149.9565646261981,6.5178,0.0962,-1.5188,70.5937,1.6953,-34.6726,78.05581498854231,26.706485559444616,81.78314435600053,-20.37583245171441,-88.90034993489583,-42.001495361328125,0.435333251953125,-0.0,0.16296613334429147,-0.3756035698784722,-0.0,0.6106736924913194,0.1635,-0.6189,8.5195,0.16174,-0.06416,-0.00829,0.001,0.001,0.001,0.0005,0.0005,0.0005,0.01,0.01,0.01,passive,-1
1.421,excitation,multi_sine,7.466162285658429,-666.6359492442118,316.5925631516931,-177.38560097496097,0.13004597846587315,-149.96010158906867,7.8125,0.1263,-2.1877,67.7022,1.1157,-34.5417,78.06924876600209,26.707226592715422,81.78943973956721,-20.386454264322918,-88.90059577094183,-41.98463439941406,0.6529998779296875,0.10882991375309406,0.3373468984471689,-0.4750823974609375,-0.06785074869791667,0.7463751898871528,0.2216,-0.5854,8.3305,0.1787,-0.05558,-0.01301,0.001,0.001,0.001,0.0005,0.0005,0.0005,0.01,0.01,0.01,passive,-1
1.441,excitation,multi_sine,7.612054330182094,-666.6305551488575,316.5485229043302,-177.384810930307,0.1295334323816366,-149.9607944891211,9.1725,0.1377,-2.8857,71.1101,0.1538,-34.3768,78.08177834690207,26.70842992197169,81.7954699827893,-20.39504157172309,-88.90085008409288,-41.97150336371528,0.87066650390625,0.16324487062964108,0.40784703622950186,-0.585903591579861,-0.06785074869791667,0.8820851643880208,0.324,-0.5122,7.8876,0.18185,-0.05491,-0.00237,0.001,0.001,0.001,0.0005,0.0005,0.0005,0.01,0.01,0.01,passive,-1
1.4611,excitation,multi_sine,7.865002763787314,-666.6271885230112,316.4686633883831,-177.38355490597715,0.12865590235907867,-149.96149183088335,10.7966,0.1455,-3.7432,73.3231,-0.8147,-31.5872,78.10362183221496,26.711482435169785,81.8049674459023,-20.40983412000868,-88.90135023328993,-41.94912380642361,0.9250814607827971,0.16324487062964108,0.4341299226968595,-0.6749725341796875,-0.06785074869791667,0.9499359130859375,0.1457,-0.5451,7.8225,0.17097,-0.04417,0.00095,0.001,0.001,0.001,0.0005,0.0005,0.0005,0.01,0.01,0.01,passive,-1
1.481,excitation,multi_sine,8.047301335153815,-666.6262748770743,316.40599243389886,-177.38282338780246,0.12807354275334787,-149.9622583716263,12.2941,0.133,-4.4386,69.1819,-1.5915,-24.8134,78.11940788042428,26.714133838615794,81.81191548262493,-20.42089674207899,-88.90179951985677,-41.93269517686632,1.0339181730062654,0.16324487062964108,0.44166942634204825,-0.7353549533420138,-0.06785074869791667,1.0856458875868056,0.2992,-0.4086,8.0173,0.18894,-0.04755,-0.00709,0.001,0.001,0.001,0.0005,0.0005,0.0005,0.01,0.01,0.01,passive,-1
1.5009,excitation,multi_sine,8.35721632536855,-666.624481596074,316.28787276632755,-177.38318240734287,0.12833729084604037,-149.96235816162297,13.0709,0.0744,-4.6589,59.2871,-1.9242,-16.0317,78.1462550399327,26.719409451626316,81.82375161954673,-20.438427395290798,-88.90266418457031,-41.90594991048177,1.1971630436359066,0.32649653972965653,0.5358962257309715,-0.7551998562282985,-0.06785074869791667,1.153496636284722,0.2843,-0.3996,7.7011,0.18267,-0.05018,-0.00358,0.001,0.001,0.001,0.0005,0.0005,0.0005,0.01,0.01,0.01,passive,-1
1.5231,excitation,multi_sine,8.580908921235713,-666.6234355811862,316.19830493089034,-177.38419505030888,0.1291426199801548,-149.96239292578645,14.9449,0.0012,-5.055,51.4274,-2.1136,-7.7541,78.16564427744044,26.723583712436184,81.83210693963683,-20.450286865234375,-88.90333387586806,-41.88666449652778,1.1971630436359066,0.2720815828531095,0.4926103648572865,-0.7432895236545138,-0.0,1.2213473849826388,0.4033,-0.3343,8.2764,0.20314,-0.06064,-0.00263,0.001,0.001,0.001,0.0005,0.0005,0.0005,0.01,0.01,0.01,passive,-1
1.5412,excitation,multi_sine,8.944179945794541,-666.6227043048743,316.0728937779776,-177.38533156612814,0.12993123458406095,-149.9619855010106,16.3083,-0.0381,-5.2466,42.1001,-2.025,-2.3968,78.1971551876257,26.729566366365642,81.84378671174002,-20.467571682400173,-88.90446133083768,-41.855765448676216,1.4148296696124691,0.2176666259765625,0.47051533614054764,-0.6894599066840278,-0.06785074869791667,1.2892066107855902,0.4114,-0.4326,8.4413,0.20476,-0.05931,-0.00661,0.001,0.001,0.001,0.0005,0.0005,0.0005,0.01,0.01,0.01,passive,-1
1.561,excitation,multi_sine,9.20256070720985,-666.6234116173259,315.99684452782446,-177.3857688640164,0.13013344719177622,-149.96101895972782,16.169,-0.0614,-4.8963,27.1499,-1.4701,0.5814,78.21959013986115,26.733373509775294,81.85074834540339,-20.478566487630207,-88.90526665581596,-41.83442857530382,1.4148296696124691,0.2720815828531095,0.3821216243328434,-0.6781853569878472,-0.0,1.357057359483507,0.2863,-0.3756,8.3423,0.19481,-0.05346,-0.00581,0.001,0.001,0.001,0.0005,0.0005,0.0005,0.01,0.01,0.01,passive,-1
1.581,excitation,multi_sine,9.586658561785878,-666.6258360778763,315.88998075178364,-177.38608374921733,0.13019217512368494,-149.96127113270447,16.4951,-0.0726,-4.8007,17.1461,-0.6751,-1.1,78.25297062939937,26.738914263130415,81.860402173335,-20.49456278483073,-88.90647888183594,-41.80098639594184,1.4692514249593904,0.16324487062964108,0.3837668541634437,-0.6989966498480903,-0.0,1.4249081081814237,0.2847,-0.524,7.6957,0.18573,-0.05746,-0.00737,0.001,0.001,0.001,0.0005,0.0005,0.0005,0.01,0.01,0.01,passive,-1
1.601,excitation,multi_sine,9.924806843567007,-666.6285285280749,315.8015541914571,-177.3861207478038,0.13008156052787204,-149.96081346185278,16.9169,-0.074,-4.919,5.6271,0.2325,-3.6417,78.28236041682781,26.74361200615911,81.86832239132116,-20.50815158420139,-88.90748765733507,-41.772215101453995,1.4692514249593904,0.2176666259765625,0.3992877620281559,-0.6793128119574653,-0.06785074869791667,1.4927588568793402,0.3672,-0.4642,8.4771,0.18107,-0.04204,-0.0095,0.001,0.001,0.001,0.0005,0.0005,0.0005,0.01,0.01,0.01,passive,-1
1.6206,excitation,multi_sine,10.191897670978125,-666.63041875859,315.72540353937455,-177.38627806696508,0.13016160529683052,-149.96121827609772,16.9772,-0.0697,-5.1201,0.1919,0.777,-7.9328,78.30557039468596,26.747602708268875,81.87514125710666,-20.519544813368054,-88.90826755099826,-41.74873352050781,1.5236663818359375,0.2720815828531095,0.473642632512763,-0.7132381863064235,-0.0,1.4249081081814237,0.4804,-0.3278,7.9167,0.20033,-0.06198,-0.00865,0.001,0.001,0.001,0.0005,0.0005,0.0005,0.01,0.01,0.01,passive,-1
1.6407,excitation,multi_sine,10.603515812663185,-666.631157888578,315.5969460177967,-177.38696411877572,0.13068862298425596,-149.9617365330237,16.8896,-0.0652,-5.3706,4.3233,0.9422,-15.0554,78.3413031549737,26.75405445665416,81.88684142462098,-20.53799099392361,-88.90945434570312,-41.71269734700521,1.360414712735922,0.2720815828531095,0.525684923228651,-0.7933807373046875,-0.06785074869791667,1.5606180826822915,0.3362,-0.4593,7.7239,0.17441,-0.0593,-0.01205,0.001,0.001,0.001,0.0005,0.0005,0.0005,0.01,0.01,0.01,passive,-1
1.6607,excitation,multi_sine,10.868681283219592,-666.630705664992,315.5018631602348,-177.38761068561487,0.13120129478943143,-149.96303900986965,17.0347,-0.0408,-5.7769,4.8807,0.9484,-19.958,78.36431597719098,26.758670618038366,81.89565904069654,-20.551376342773438,-88.91025119357639,-41.68853759765625,1.4148296696124691,0.2720815828531095,0.520762830677599,-0.8447011311848958,-0.06785074869791667,1.5606180826822915,0.3603,-0.5612,8.0095,0.17107,-0.0633,-0.00688,0.001,0.001,0.001,0.0005,0.0005,0.0005,0.01,0.01,0.01,passive,-1
1.6806,excitation,multi_sine,11.282314294175418,-666.6304194694288,315.3507590936092,-177.3883331340449,0.13181424423689503,-149.96393756542292,16.8974,0.0036,-6.1102,0.2934,0.8119,-21.8695,78.40021190076772,26.76603336145382,81.9097386728419,-20.573043823242188,-88.91140407986111,-41.65199279785156,1.4148296696124691,0.32649653972965653,0.5736821240717822,-0.9267086452907985,-0.06785074869791667,1.5606180826822915,0.4822,-0.555,7.8189,0.1808,-0.06521,-0.01078,0.001,0.001,0.001,0.0005,0.0005,0.0005,0.01,0.01,0.01,passive,-1
1.701,excitation,multi_sine,11.550734508735172,-666.631754513987,315.2496564897486,-177.38833196126967,0.13179642977634845,-149.96454914873433,16.9829,0.0262,-6.5192,-4.9069,0.4977,-23.3694,78.42353745262221,26.77107782647161,81.91919534513266,-20.588319566514755,-88.91215006510417,-41.62823147243923,1.5236663818359375,0.3809114966062036,0.5810652628983601,-1.0027228461371527,-0.0,1.4249081081814237,0.5282,-0.532,8.4145,0.18922,-0.06472,-0.01813,0.001,0.001,0.001,0.0005,0.0005,0.0005,0.01,0.01,0.01,passive,-1
1.721,excitation,multi_sine,11.967802766900032,-666.6331537290422,315.0958477456634,-177.3875521044524,0.13104621845758596,-149.96332665168578,17.1721,0.0135,-7.1276,-12.9505,0.0442,-23.9992,78.45976650124729,26.77858333776493,81.93420636771928,-20.61303032769097,-88.91326056586371,-41.59350925021701,1.4148296696124691,0.32649653972965653,0.679636284856513,-1.0758802625868056,-0.0,1.4927588568793402,0.591,-0.7031,7.9778,0.18128,-0.06178,-0.0111,0.001,0.001,0.001,0.0005,0.0005,0.0005,0.01,0.01,0.01,passive,-1
1.7408,excitation,multi_sine,12.23369092240686,-666.6326113275258,314.98461642887526,-177.38708495788876,0.13058699252925557,-149.9632189161171,16.8214,-0.0002,-7.5706,-24.7623,-0.4897,-22.2091,78.48284730816832,26.783770570660582,81.94536945607402,-20.63076443142361,-88.9139895968967,-41.57073974609375,1.5236663818359375,0.32649653972965653,0.7156137900777383,-1.1535305447048612,-0.06785074869791667,1.357057359483507,0.4827,-0.4401,8.6619,0.17556,-0.05983,-0.00999,0.001,0.001,0.001,0.0005,0.0005,0.0005,0.01,0.01,0.01,passive,-1
1.7607,excitation,multi_sine,12.635314221026801,-666.6285287076188,314.7977802681381,-177.38704587956173,0.1304899088230014,-149.96140461052408,16.0667,-0.0061,-7.9613,-37.9755,-0.8711,-18.1766,78.51764867801478,26.79214628616182,81.96423521136293,-20.65914577907986,-88.91502380371094,-41.538077460394966,1.4148296696124691,0.3809114966062036,0.7987114934637995,-1.2400309244791667,-0.0,1.357057359483507,0.5477,-0.5453,8.223,0.18823,-0.06294,-0.01276,0.001,0.001,0.001,0.0005,0.0005,0.0005,0.01,0.01,0.01,passive,-1
1.7807,excitation,multi_sine,12.877296463672288,-666.6283872118349,314.6658087244636,-177.38700297487512,0.13041928012462886,-149.96150655014267,15.1172,-0.0239,-8.3277,-51.6187,-0.7541,-11.6954,78.53866954841236,26.798346491143256,81.97709791731126,-20.678956773546005,-88.91567654079861,-41.517181396484375,1.305999755859375,0.3809114966062036,0.7726937473410427,-1.2658352322048612,-0.06785074869791667,1.2892066107855902,0.6081,-0.4517,7.9729,0.19624,-0.05868,-0.01509,0.001,0.001,0.001,0.0005,0.0005,0.0005,0.01,0.01,0.01,passive,-1
1.8008,excitation,multi_sine,13.234515548145735,-666.6325004083366,314.46390531905644,-177.38685084318766,0.13029185323843595,-149.96009208815258,13.8456,-0.0464,-8.4761,-64.8534,-0.1878,-2.1147,78.56976575190478,26.80839463035659,81.99589568789642,-20.708940294053818,-88.91654968261719,-41.4878421359592,1.305999755859375,0.489748208829672,0.797848087726253,-1.2781863742404513,-0.06785074869791667,1.153496636284722,0.5304,-0.4702,8.1034,0.20052,-0.05924,-0.00718,0.001,0.001,0.001,0.0005,0.0005,0.0005,0.01,0.01,0.01,passive,-1
1.821,excitation,multi_sine,13.492570849557916,-666.634200510553,314.2880421438706,-177.3874367739774,0.13077140038287666,-149.9596393033517,12.472,-0.0562,-8.4505,-73.1768,0.3442,8.0882,78.59222109955137,26.816926710676437,82.0122460091468,-20.733761257595486,-88.91721937391493,-41.466123792860245,1.0339181730062654,0.435333251953125,0.8451042552985767,-1.2420908610026042,-0.0,0.9499359130859375,0.4897,-0.5834,9.1686,0.17324,-0.04975,-0.01938,0.001,0.001,0.001,0.0005,0.0005,0.0005,0.01,0.01,0.01,passive,-1
1.841,excitation,multi_sine,13.681961142117334,-666.6334193984137,314.1484154005997,-177.38808661856234,0.13132918017799666,-149.95926784728593,10.9356,-0.0485,-8.1619,-78.2634,0.5934,19.0916,78.60866659938699,26.823432846824723,82.02554381719911,-20.753216213650173,-88.91769409179688,-41.45027160644531,0.979496417659344,0.435333251953125,0.8374423791866491,-1.1806827121310763,-0.06785074869791667,0.8820851643880208,0.42,-0.5826,8.2232,0.18346,-0.05465,-0.01118,0.001,0.001,0.001,0.0005,0.0005,0.0005,0.01,0.01,0.01,passive,-1
1.8609,excitation,multi_sine,13.933293759984752,-666.6358058773237,313.9554563256572,-177.3884715869744,0.13161604881610062,-149.9585292581869,9.307,-0.0175,-7.672,-83.7205,0.7107,31.8342,78.6305576739925,26.832780743589495,82.04360055451346,-20.780809190538193,-88.91833835177951,-41.429434882269966,0.87066650390625,0.3809114966062036,0.7297614069268255,-1.0938008626302083,-0.06785074869791667,0.7463751898871528,0.3725,-0.4769,7.307,0.20211,-0.04964,-0.00123,0.001,0.001,0.001,0.0005,0.0005,0.0005,0.01,0.01,0.01,passive,-1
1.8808,excitation,multi_sine,14.065612363047654,-666.6371770626505,313.8424302948807,-177.3881682430556,0.13136203763867732,-149.95878995455527,7.6199,0.0222,-6.9047,-87.3752,0.6739,43.3411,78.64208787974745,26.838131139774134,82.05460727804959,-20.797932942708332,-88.91866048177083,-41.417838202582466,0.7074148348062346,0.32649653972965653,0.6768829043548886,-1.0756683349609375,-0.0,0.6106736924913194,0.2747,-0.4558,7.9683,0.17694,-0.05144,-0.00758,0.001,0.001,0.001,0.0005,0.0005,0.0005,0.01,0.01,0.01,passive,-1
1.9008,excitation,multi_sine,14.224744399687372,-666.6343814253942,313.6900785066642,-177.387926187537,0.13114982887186283,-149.95895565393906,5.8807,0.0386,-5.9461,-88.262,0.3677,51.9632,78.65588197613707,26.844725656037284,82.07031854308478,-20.820999145507812,-88.91904195149739,-41.40413920084635,0.489748208829672,0.2176666259765625,0.6504232576577971,-0.859527587890625,-0.0,0.4749637179904514,0.3861,-0.518,7.7011,0.19809,-0.05011,-0.00544,0.001,0.001,0.001,0.0005,0.0005,0.0005,0.01,0.01,0.01,passive,-1
1.9208,excitation,multi_sine,14.302897063396848,-666.63168123881,313.5994123861298,-177.38813864765112,0.13131641836992552,-149.9592723665656,4.3598,0.0216,-4.9293,-86.3557,-0.0598,57.3865,78.6626396556892,26.848539597917313,82.07966643984955,-20.83411322699653,-88.91924540201823,-41.39721340603298,0.32649653972965653,0.2176666259765625,0.5196478815362005,-0.7143232557508681,-0.0,0.4071129692925347,0.3699,-0.4891,8.2095,0.18199,-0.04537,-0.01229,0.001,0.001,0.001,0.0005,0.0005,0.0005,0.01,0.01,0.01,passive,-1
1.9406,excitation,multi_sine,14.38773720573701,-666.631551652731,313.49035668151555,-177.38835378915635,0.13144723450883403,-149.9593341722295,2.3613,0.0037,-3.5478,-80.9223,-0.3577,58.7648,78.67002959298615,26.853509279760985,82.09032644139658,-20.849728054470486,-88.9194827609592,-41.38994004991319,0.2176666259765625,0.16324487062964108,0.3464296548673422,-0.5731709798177084,-0.0,0.2714114718967014,0.3524,-0.493,8.4569,0.18603,-0.04412,-0.01287,0.001,0.001,0.001,0.0005,0.0005,0.0005,0.01,0.01,0.01,passive,-1
1.9606,excitation,multi_sine,14.423996813416284,-666.6329114521783,313.43912286256693,-177.38834481307472,0.13142771335379627,-149.959186949697,0.6774,-0.0038,-2.2989,-71.82,-0.3968,55.4621,78.67321127712137,26.856004318388383,82.09512616148089,-20.857137044270832,-88.91956753200955,-41.38699001736111,0.16324487062964108,0.10882991375309406,0.23985003480816833,-0.3721703423394097,-0.06785074869791667,0.13570149739583334,0.3885,-0.4643,8.0703,0.20174,-0.04938,-0.00717,0.001,0.001,0.001,0.0005,0.0005,0.0005,0.01,0.01,0.01,passive,-1
1.9809,excitation,multi_sine,14.430547226088615,-666.6333488986918,313.3963404978076,-177.3881638419228,0.13127470581623243,-149.96041562579177,-0.6405,-0.0172,-1.239,-60.937,-0.2383,50.0384,78.67380274404394,26.857901091622836,82.09949757793161,-20.863698323567707,-88.91960144042969,-41.38524373372396,-0.05441495687654703,-0.0,0.09141223265392945,-0.1360744900173611,-0.0,-0.0,0.4314,-0.5054,8.3038,0.19536,-0.05723,-0.00734,0.001,0.001,0.001,0.0005,0.0005,0.0005,0.01,0.01,0.01,passive,-1
2.0006,excitation,multi_sine,14.390233972397352,-666.6341584608156,313.3979583663412,-177.38716569348574,0.13037680768181772,-149.9638186997311,-1.6493,-0.021,-0.3599,-49.1978,-0.0453,43.7258,78.67034232262337,26.857642749748607,82.10010264179495,-20.865385267469616,-88.91960991753471,-41.38532002766927,-0.2720815828531095,-0.05441495687654703,-0.02718028455677599,-0.0635952419704861,-0.0,-0.0,0.4278,-0.4404,8.9142,0.20893,-0.05417,-0.01002,0.001,0.001,0.001,0.0005,0.0005,0.0005,0.01,0.01,0.01,passive,-1
2.0207,excitation,multi_sine,14.320992079289267,-666.6366975564675,313.418119422854,-177.38569883466687,0.1290624583395471,-149.96860679604544,-2.4496,-0.0084,0.4094,-36.1085,-0.0461,36.3015,78.66440725798654,26.856643374603575,82.09894010336092,-20.86515638563368,-88.91959296332465,-41.38646443684896,-0.2720815828531095,-0.0,-0.05069619358176052,0.06256951226128472,-0.0,-0.06785074869791667,0.2887,-0.4496,8.6423,0.18685,-0.06109,-0.01569,0.001,0.001,0.001,0.0005,0.0005,0.0005,0.01,0.01,0.01,passive,-1
2.0408,excitation,multi_sine,14.26109508900816,-666.6347046012258,313.4284858573829,-177.3863786721865,0.12954522103278568,-149.97020835938534,-3.1342,0.0061,1.0399,-28.2248,-0.3453,31.8968,78.6591928312094,26.85588874439202,82.09803590680113,-20.86255391438802,-88.91956753200955,-41.39005025227865,-0.2176666259765625,-0.05441495687654703,-0.06496618289758663,0.2112664116753472,0.06785074869791667,-0.2714114718967014,0.2832,-0.4363,7.9995,0.19441,-0.06122,-0.00475,0.001,0.001,0.001,0.0005,0.0005,0.0005,0.01,0.01,0.01,passive,-1
2.0608,excitation,multi_sine,14.221370945849346,-666.6327736619005,313.4366269312621,-177.3881854935435,0.13098042386741973,-149.96823383791374,-3.5489,-0.0005,1.5394,-28.1197,-0.648,30.8815,78.65571201437771,26.85550123158068,82.09639067697053,-20.858044094509548,-88.91951666937933,-41.395458645290795,-0.2720815828531095,-0.10882991375309406,-0.1263767657893719,0.3219774034288194,-0.0,-0.339262220594618,0.3201,-0.4519,8.3247,0.19787,-0.05642,-0.00393,0.001,0.001,0.001,0.0005,0.0005,0.0005,0.01,0.01,0.01,passive,-1
2.0812,excitation,multi_sine,14.148237991993692,-666.6328989694889,313.4702994633319,-177.39047848945404,0.13276221341792482,-149.96468502146587,-3.9524,-0.0272,2.1331,-30.9582,-0.7631,30.2348,78.64936224304803,26.854277506913288,82.09147538288985,-20.84869384765625,-88.91939798990886,-41.40525817871094,-0.3809114966062036,-0.10882991375309406,-0.2270553135635829,0.4401397705078125,0.06785074869791667,-0.4749637179904514,0.457,-0.4751,8.7234,0.1985,-0.05706,-0.00925,0.001,0.001,0.001,0.0005,0.0005,0.0005,0.01,0.01,0.01,passive,-1
2.1008,excitation,multi_sine,14.078436039750414,-666.6345009256594,313.5103323998073,-177.39124803728103,0.1332891156085135,-149.96315821435846,-4.5459,-0.0507,2.757,-33.3368,-0.6625,27.7865,78.64333199982596,26.852707060256808,82.08675044597966,-20.841233995225693,-88.9192877875434,-41.41273498535156,-0.435333251953125,-0.10882991375309406,-0.2993842398766244,0.495452880859375,-0.0,-0.5428229437934028,0.3767,-0.4457,8.4188,0.19686,-0.05305,-0.00771,0.001,0.001,0.001,0.0005,0.0005,0.0005,0.01,0.01,0.01,passive,-1
2.1206,excitation,multi_sine,13.95103504709506,-666.6358980886686,313.5892111667093,-177.3919894418523,0.13374153360420163,-149.9615621895493,-5.2777,-0.0792,3.3679,-35.0067,-0.3312,23.6467,78.63229808240834,26.849273832717746,82.07834073812654,-20.828136867947048,-88.9190673828125,-41.42522176106771,-0.544163165706219,-0.16324487062964108,-0.379884927579672,0.580291748046875,-0.0,-0.6106736924913194,0.2813,-0.5446,8.28,0.18937,-0.04802,-0.01475,0.001,0.001,0.001,0.0005,0.0005,0.0005,0.01,0.01,0.01,passive,-1
2.1412,excitation,multi_sine,13.85914397314623,-666.6375935824788,313.64946749952406,-177.39242726386777,0.1340358122992134,-149.9602095607072,-6.3531,-0.0908,4.0001,-37.3689,0.1982,19.4836,78.62434387207031,26.846731204797727,82.07184140044863,-20.818277994791668,-88.91886393229167,-41.43441942003038,-0.5985781225827661,-0.2176666259765625,-0.4274062354965965,0.6322394476996528,-0.0,-0.6106736924913194,0.3886,-0.4584,8.4449,0.19849,-0.05611,-0.01191,0.001,0.001,0.001,0.0005,0.0005,0.0005,0.01,0.01,0.01,passive,-1
2.1607,excitation,multi_sine,13.705948985237688,-666.6410846609206,313.7567969939632,-177.39209552775904,0.13370039705860892,-149.95843953192085,-7.2402,-0.0634,4.3641,-36.7851,0.7226,14.5537,78.61108685484027,26.84210144647277,82.06093665396813,-20.80273946126302,-88.91845703125,-41.449271308051216,-0.5985781225827661,-0.2176666259765625,-0.4737786019202506,0.6523810492621528,-0.0,-0.6106736924913194,0.2482,-0.4609,7.8752,0.18855,-0.05574,-0.00537,0.001,0.001,0.001,0.0005,0.0005,0.0005,0.01,0.01,0.01,passive,-1
2.1809,excitation,multi_sine,13.585280657646818,-666.6421189027363,313.83227344190425,-177.39170018903397,0.13331999482922552,-149.9582974408414,-7.5935,-0.0245,4.3229,-31.6087,1.0673,9.365,78.60062400893409,26.838600234229965,82.05373027537128,-20.792244805230034,-88.91816880967882,-41.459757486979164,-0.7074148348062346,-0.2176666259765625,-0.45447094605700805,0.6485239664713541,-0.0,-0.678524441189236,0.2686,-0.5419,8.4652,0.1945,-0.04997,-0.01164,0.001,0.001,0.001,0.0005,0.0005,0.0005,0.01,0.01,0.01,passive,-1
2.2011,excitation,multi_sine,13.379740641961765,-666.6415606941271,313.93839834024664,-177.39146904613958,0.13312894098794806,-149.95939202345025,-8.1979,0.0034,4.4154,-25.5055,1.2331,6.4074,78.5827644272606,26.83339260592319,82.04385889638769,-20.776935153537327,-88.91766018337674,-41.47634718153212,-0.7618297916827815,-0.2176666259765625,-0.3899398652633818,0.6110127766927084,0.06785074869791667,-0.7463751898871528,0.2354,-0.3771,9.0087,0.19403,-0.06353,-0.00144,0.001,0.001,0.001,0.0005,0.0005,0.0005,0.01,0.01,0.01,passive,-1
2.221,excitation,multi_sine,13.242301987806735,-666.6410506270308,314.00521286752394,-177.39146413669118,0.13317836547349257,-149.95967399685745,-8.7474,0.0186,4.575,-18.9252,1.199,4.9575,78.57081271634243,26.830108944732363,82.03756351282101,-20.766957600911457,-88.91727023654514,-41.48790147569444,-0.8162515470297029,-0.16324487062964108,-0.3809114966062036,0.6036207411024306,-0.0,-0.7463751898871528,0.212,-0.6737,8.7705,0.16659,-0.05916,-0.01141,0.001,0.001,0.001,0.0005,0.0005,0.0005,0.01,0.01,0.01,passive,-1
2.2408,excitation,multi_sine,13.034670734417139,-666.6383646186389,314.10725973509903,-177.39148318487685,0.13332083862019825,-149.95947831928504,-9.0069,0.0326,4.6488,-13.1274,0.8465,4.6475,78.55271518820584,26.824867324073715,82.0282768022896,-20.75174119737413,-88.9166259765625,-41.50601704915365,-0.7618297916827815,-0.2720815828531095,-0.39786688171991025,0.6118181016710069,-0.06785074869791667,-0.8142344156901041,0.1575,-0.7205,8.6503,0.16047,-0.05924,-0.00942,0.001,0.001,0.001,0.0005,0.0005,0.0005,0.01,0.01,0.01,passive,-1
2.261,excitation,multi_sine,12.889319700173475,-666.6381796386697,314.18124109227443,-177.39118404508588,0.13320625680863163,-149.9594606693503,-9.206,0.0427,4.7952,-9.8035,0.336,5.2038,78.54007003330948,26.821264134775294,82.02137635485961,-20.741136338975693,-88.91613430447049,-41.5185546875,-0.7618297916827815,-0.2176666259765625,-0.4780752351968595,0.7054646809895834,-0.0,-0.7463751898871528,0.3038,-0.5559,8.1898,0.18626,-0.06154,-0.00155,0.001,0.001,0.001,0.0005,0.0005,0.0005,0.01,0.01,0.01,passive,-1
2.2809,excitation,multi_sine,12.700577225984352,-666.6382703291674,314.28020556665956,-177.39058939435063,0.13282305911440911,-149.95986062463456,-9.3498,0.0482,4.9853,-5.3388,-0.1149,3.8595,78.5236653242961,26.816471213161353,82.01221881526531,-20.72737799750434,-88.91554938422308,-41.5343983968099,-0.8162515470297029,-0.2720815828531095,-0.45207108601485146,0.7190789116753472,-0.0,-0.7463751898871528,0.3016,-0.3633,8.5977,0.20089,-0.05164,-0.00019,0.001,0.001,0.001,0.0005,0.0005,0.0005,0.01,0.01,0.01,passive,-1
2.3008,excitation,multi_sine,12.478852859649354,-666.6387295442719,314.40838322741746,-177.38949288025483,0.13196285820640155,-149.95994177962277,-9.4444,0.0571,5.0754,0.3677,-0.4455,0.6582,78.50440525772548,26.810311799002164,82.00047105845839,-20.710254245334202,-88.91489664713542,-41.553378634982636,-0.7618297916827815,-0.2720815828531095,-0.4795505032681002,0.7192145453559028,-0.0,-0.7463751898871528,0.1941,-0.4198,8.5826,0.18484,-0.05096,-0.00339,0.001,0.001,0.001,0.0005,0.0005,0.0005,0.01,0.01,0.01,passive,-1
2.3206,excitation,multi_sine,12.331409482272203,-666.6381408338469,314.49298084991995,-177.38899619617786,0.13164091582072338,-149.96004496035894,-9.3752,0.0471,5.0196,3.7105,-0.6461,-1.2286,78.49157654412902,26.806178329014543,81.99270720529084,-20.698538886176216,-88.9144304063585,-41.5659671359592,-0.8162515470297029,-0.2720815828531095,-0.47109320612237005,0.7159847683376735,0.06785074869791667,-0.7463751898871528,0.2059,-0.5852,7.914,0.19251,-0.06045,-0.00813,0.001,0.001,0.001,0.0005,0.0005,0.0005,0.01,0.01,0.01,passive,-1
2.3408,excitation,multi_sine,12.10352722398107,-666.6355103195259,314.6123834840582,-177.38879141302985,0.13156846954961254,-149.96074218792054,-9.2353,0.0189,4.9029,7.201,-0.6829,-2.1563,78.4717318091062,26.800161682733215,81.98180245881034,-20.68121168348524,-88.91377766927083,-41.58491346571181,-0.87066650390625,-0.2176666259765625,-0.4353400504234994,0.6881459554036459,0.06785074869791667,-0.8142344156901041,0.1467,-0.7054,8.9801,0.17362,-0.06051,-0.01144,0.001,0.001,0.001,0.0005,0.0005,0.0005,0.01,0.01,0.01,passive,-1
2.3609,excitation,multi_sine,11.957031879709103,-666.6335564175903,314.68748209317175,-177.38878704679004,0.13161645160117577,-149.9609128958689,-9.127,-0.0082,4.8433,11.9147,-0.4875,-2.2812,78.45897108021349,26.796361337793936,81.97490880985072,-20.670089721679688,-88.91336229112413,-41.597374810112846,-0.7618297916827815,-0.2176666259765625,-0.3939169704323948,0.701412624782986,0.06785074869791667,-0.7463751898871528,0.2159,-0.5683,8.3688,0.17986,-0.05967,-0.00554,0.001,0.001,0.001,0.0005,0.0005,0.0005,0.01,0.01,0.01,passive,-1
2.3806,excitation,multi_sine,11.746487882215355,-666.633080094573,314.7935131336069,-177.38915527434966,0.13197835791475687,-149.96102088968712,-8.7089,-0.0188,4.6748,16.241,-0.1695,-1.4308,78.44067639643603,26.791364462068767,81.96442556853341,-20.653516981336804,-88.91279432508681,-41.61537170410156,-0.7074148348062346,-0.2176666259765625,-0.4553479487353032,0.7135433620876735,0.06785074869791667,-0.678524441189236,0.3008,-0.455,8.5183,0.19181,-0.06215,-0.01188,0.001,0.001,0.001,0.0005,0.0005,0.0005,0.01,0.01,0.01,passive,-1
2.4009,excitation,multi_sine,11.61173690473899,-666.6347016137356,314.8640026443635,-177.38940985744898,0.13226571236775164,-149.96105152255907,-8.4065,-0.0085,4.6866,21.6031,0.2811,-1.9124,78.42899662433284,26.78831874734104,81.95701523582534,-20.642310248480904,-88.9124043782552,-41.62689208984375,-0.7074148348062346,-0.2176666259765625,-0.48891199697362314,0.7121107313368056,-0.0,-0.678524441189236,0.3215,-0.5224,8.5404,0.19051,-0.06538,-0.00976,0.001,0.001,0.001,0.0005,0.0005,0.0005,0.01,0.01,0.01,passive,-1
2.4209,excitation,multi_sine,11.412939658448195,-666.6386234066013,314.9786618924819,-177.38928336022576,0.13223827151405151,-149.96156642337354,-7.9755,0.0051,4.7604,29.0331,0.8089,-5.4159,78.41179649428565,26.783485034904857,81.9450567264368,-20.625101725260418,-88.91185336642795,-41.643380059136284,-0.7074148348062346,-0.16324487062964108,-0.5293221048789449,0.7222832573784722,-0.0,-0.678524441189236,0.3685,-0.5325,8.9518,0.2218,-0.07193,-0.00731,0.001,0.001,0.001,0.0005,0.0005,0.0005,0.01,0.01,0.01,passive,-1
2.441,excitation,multi_sine,11.288611360437887,-666.63961662712,315.05776228250943,-177.38906003195214,0.13203211646880988,-149.96192995193385,-7.258,0.0312,4.6812,38.6478,1.0705,-12.1565,78.40102091874226,26.779929434899056,81.93724528397664,-20.61370849609375,-88.91155666775174,-41.653662787543404,-0.6529998779296875,-0.2720815828531095,-0.4867908742168162,0.7026926676432291,-0.0,-0.6106736924913194,0.3371,-0.6683,8.099,0.19256,-0.05937,-0.01029,0.001,0.001,0.001,0.0005,0.0005,0.0005,0.01,0.01,0.01,passive,-1
2.461,excitation,multi_sine,11.123717969217706,-666.6366655257201,315.1691947055112,-177.38894788940723,0.13192178933773924,-149.96177479447744,-6.5011,0.0534,4.4992,49.7132,0.7503,-21.0565,78.38664895237082,26.774415875425433,81.92693880288908,-20.597585042317707,-88.91114128960503,-41.668006049262154,-0.544163165706219,-0.2176666259765625,-0.340290636119276,0.6375037299262153,-0.0,-0.5428229437934028,0.3292,-0.4918,8.7009,0.18793,-0.06196,-0.01116,0.001,0.001,0.001,0.0005,0.0005,0.0005,0.01,0.01,0.01,passive,-1
2.4806,excitation,multi_sine,11.010681447272924,-666.6318930000737,315.24819508222487,-177.38941727667583,0.1323404846297752,-149.96148573529825,-5.4936,0.061,3.9626,58.6406,-0.0094,-29.4022,78.37674358103534,26.77026880849706,81.91974602123298,-20.58529324001736,-88.91084459092882,-41.678059895833336,-0.489748208829672,-0.16324487062964108,-0.35178684952235456,0.5993821885850694,-0.0,-0.5428229437934028,0.1908,-0.5535,8.5014,0.18499,-0.05076,-0.00475,0.001,0.001,0.001,0.0005,0.0005,0.0005,0.01,0.01,0.01,passive,-1
2.5011,excitation,multi_sine,10.904755322907368,-666.6296491180042,315.3341418387593,-177.38940382103198,0.1323519539359062,-149.96122067002779,-4.1427,0.0742,3.1245,65.2316,-0.7629,-36.5722,78.3674976613262,26.766087749216815,81.91166263995784,-20.572730170355904,-88.91055636935764,-41.6874270968967,-0.32649653972965653,-0.16324487062964108,-0.2942445962735922,0.4749637179904514,-0.0,-0.2714114718967014,0.2643,-0.5836,8.4759,0.19223,-0.05088,-0.0071,0.001,0.001,0.001,0.0005,0.0005,0.0005,0.01,0.01,0.01,passive,-1
2.5208,excitation,multi_sine,10.848000288949274,-666.629724274084,315.38266031587017,-177.3890693098311,0.13207180656013962,-149.96147159269952,-2.7085,0.065,2.2546,66.8688,-1.0854,-39.4753,78.36256877030476,26.763851052463643,81.90706687398476,-20.566185845269096,-88.91041225857205,-41.69203016493056,-0.2720815828531095,-0.16324487062964108,-0.23171226577003404,0.3633202446831597,-0.06785074869791667,-0.20355224609375,0.3404,-0.5857,7.9593,0.20318,-0.06008,-0.00418,0.001,0.001,0.001,0.0005,0.0005,0.0005,0.01,0.01,0.01,passive,-1
2.5407,excitation,multi_sine,10.80538119894629,-666.6300127569172,315.4197106365836,-177.38867788159294,0.1317639424320426,-149.96196970701524,-1.1976,0.015,1.3604,64.0286,-0.9118,-37.7061,78.3588704024211,26.76215143487005,81.9036064525642,-20.561421712239582,-88.91029357910156,-41.69517517089844,-0.16324487062964108,-0.05441495687654703,-0.18153955440710087,0.2706654866536458,-0.0,-0.13570149739583334,0.3266,-0.5972,8.5098,0.19004,-0.05777,-0.01169,0.001,0.001,0.001,0.0005,0.0005,0.0005,0.01,0.01,0.01,passive,-1
2.5608,excitation,multi_sine,10.779845627736778,-666.6331918798248,315.4365307382576,-177.38923936185415,0.13230362355352868,-149.96179740651738,0.1083,-0.0438,0.6472,58.8206,-0.4215,-33.0347,78.35670169037168,26.76190668993657,81.90084627359221,-20.557564629448784,-88.91020033094618,-41.697472466362846,-0.0,0.05441495687654703,-0.02105486274945854,0.0809139675564236,-0.0,-0.0,0.1948,-0.6257,8.2677,0.18326,-0.06311,-0.00911,0.001,0.001,0.001,0.0005,0.0005,0.0005,0.01,0.01,0.01,passive,-1
2.5809,excitation,multi_sine,10.798597328416177,-666.6312339227044,315.43138676745156,-177.3901105643319,0.13309117325901396,-149.959956330768,1.0945,-0.0564,0.1104,49.854,0.0712,-26.6934,78.35827893549853,26.762069853225558,81.90104342923306,-20.556742350260418,-88.91018337673611,-41.697726779513886,0.2176666259765625,-0.0,0.04444160083732983,0.03947787814670139,-0.0,-0.0,0.1202,-0.5628,7.7036,0.18755,-0.04122,0.00224,0.001,0.001,0.001,0.0005,0.0005,0.0005,0.01,0.01,0.01,passive,-1
2.6007,excitation,multi_sine,10.861596398127118,-666.6297767870981,315.421039646217,-177.39063607991105,0.13359716812564532,-149.9549888448748,1.8112,-0.0165,-0.2691,39.3085,0.5854,-21.1306,78.36368371944616,26.76255254462214,81.90178446250387,-20.5572509765625,-88.91016642252605,-41.69729444715712,0.2176666259765625,0.05441495687654703,0.00257662027189047,-0.0654262966579861,-0.0,-0.0,0.1674,-0.5015,8.3542,0.19156,-0.0504,-0.00315,0.001,0.001,0.001,0.0005,0.0005,0.0005,0.01,0.01,0.01,passive,-1
2.621,excitation,multi_sine,10.901618280326979,-666.6315326682696,315.4174880287798,-177.38997518755738,0.13304604291805525,-149.95271408662347,2.5259,0.0368,-0.5986,32.1422,1.1902,-18.2147,78.36717133474822,26.76289926661123,81.90215837837445,-20.55887010362413,-88.91017489963107,-41.69609917534722,0.2176666259765625,-0.05441495687654703,0.05099532627823329,-0.11517842610677083,-0.0,0.13570149739583334,0.4415,-0.5216,8.5389,0.19729,-0.05886,-0.00874,0.001,0.001,0.001,0.0005,0.0005,0.0005,0.01,0.01,0.01,passive,-1
2.6408,excitation,multi_sine,10.95645035018296,-666.6342253838444,315.4127996591715,-177.38748985262967,0.1309659446048013,-149.95338742190424,3.343,0.0733,-1.005,30.2498,1.4653,-18.0503,78.37197105483253,26.763110019192837,81.90382400361618,-20.564159817165798,-88.91024271647136,-41.690682305230034,0.16324487062964108,-0.0,0.0906711993831219,-0.3053029378255208,-0.0,0.4071129692925347,0.2747,-0.5722,8.7458,0.19237,-0.06087,-0.00767,0.001,0.001,0.001,0.0005,0.0005,0.0005,0.01,0.01,0.01,passive,-1
2.6611,excitation,multi_sine,10.99882075112438,-666.6330314278531,315.3990615390721,-177.385967074382,0.12979301976846322,-149.9556459771894,3.7804,0.0775,-1.3185,32.3684,1.097,-19.6443,78.37562183342358,26.76334796565594,81.90651619788444,-20.569195217556423,-88.91028510199652,-41.68482462565104,0.2176666259765625,-0.0,0.21158199499149133,-0.3391435411241319,-0.0,0.4071129692925347,0.2047,-0.549,8.6391,0.18208,-0.05339,-0.00586,0.001,0.001,0.001,0.0005,0.0005,0.0005,0.01,0.01,0.01,passive,-1
2.6805,excitation,multi_sine,11.091084576514877,-666.6267660715372,315.3590145067414,-177.38469450986292,0.1288968352728171,-149.95819439070365,4.1809,0.0739,-1.691,35.5167,0.3199,-21.3798,78.38350805905786,26.764190975982363,81.91262802275101,-20.578028361002605,-88.91042073567708,-41.67448255750868,0.3809114966062036,0.10882991375309406,0.27309455493889234,-0.3864881727430555,-0.06785074869791667,0.4749637179904514,0.3761,-0.5142,8.643,0.19575,-0.05042,-0.00885,0.001,0.001,0.001,0.0005,0.0005,0.0005,0.01,0.01,0.01,passive,-1
2.7011,excitation,multi_sine,11.169436816496125,-666.6232762392476,315.3256489440099,-177.3841038392271,0.1285100537949527,-149.95941543558854,4.9517,0.0849,-2.1914,38.9189,-0.4228,-23.1972,78.39023854472849,26.76521074653852,81.91700623767211,-20.58437771267361,-88.91055636935764,-41.666598849826386,0.435333251953125,0.05441495687654703,0.2623733671584932,-0.4296790228949653,-0.06785074869791667,0.5428229437934028,0.3318,-0.5849,8.4458,0.19964,-0.06338,-0.00864,0.001,0.001,0.001,0.0005,0.0005,0.0005,0.01,0.01,0.01,passive,-1
2.7209,excitation,multi_sine,11.325268530084141,-666.6225163390932,315.2545938036352,-177.3835932367618,0.12833202880166264,-149.96188902629447,6.0561,0.0862,-2.7607,41.541,-0.7867,-23.9842,78.40373350842164,26.76837883373298,81.92440977190981,-20.595957438151043,-88.91083611382378,-41.650755140516495,0.489748208829672,0.10882991375309406,0.2261579154741646,-0.39553324381510413,-0.0,0.6106736924913194,0.2544,-0.5459,8.7721,0.18479,-0.04945,-0.00988,0.001,0.001,0.001,0.0005,0.0005,0.0005,0.01,0.01,0.01,passive,-1
2.7407,excitation,multi_sine,11.426196896290062,-666.6239211533325,315.2065336416939,-177.38358857691546,0.12840323859948433,-149.96300998823432,6.9569,0.0644,-3.2065,42.9657,-0.9133,-22.9901,78.41251713214534,26.77082628306776,81.92879478530128,-20.60306125217014,-88.9110819498698,-41.64093017578125,0.544163165706219,0.16324487062964108,0.2904850421565594,-0.4636891682942708,-0.0,0.5428229437934028,0.4714,-0.4474,9.1533,0.20677,-0.04968,-0.01537,0.001,0.001,0.001,0.0005,0.0005,0.0005,0.01,0.01,0.01,passive,-1
2.761,excitation,multi_sine,11.541205794635147,-666.6238672644502,315.1519441091967,-177.38389866669792,0.128733441717203,-149.96383899986435,7.8535,0.0248,-3.6478,46.3502,-1.0291,-22.4989,78.42249728665493,26.77345049263227,81.93387324267094,-20.61065673828125,-88.91137017144096,-41.63020663791232,0.6529998779296875,0.10882991375309406,0.3510934055441677,-0.5162472195095485,-0.0,0.678524441189236,0.3397,-0.6373,8.6493,0.19593,-0.05552,-0.00953,0.001,0.001,0.001,0.0005,0.0005,0.0005,0.01,0.01,0.01,passive,-1
2.7809,excitation,multi_sine,11.749829212320577,-666.6228379811483,315.060322450613,-177.38417397392985,0.12896395154338144,-149.963321465293,8.7377,-0.0007,-4.1219,47.1342,-1.1667,-21.1772,78.44058801632116,26.777726730497758,81.94273164956877,-20.623991224500866,-88.91191270616319,-41.61278618706597,0.8162515470297029,0.16324487062964108,0.39953930543200805,-0.6092919243706597,-0.0,0.678524441189236,0.4168,-0.6335,8.337,0.1953,-0.06467,-0.00867,0.001,0.001,0.001,0.0005,0.0005,0.0005,0.01,0.01,0.01,passive,-1
2.8008,excitation,multi_sine,11.905762654646622,-666.6221580713675,314.9905830582307,-177.3843028322827,0.12907448740722227,-149.96263229980198,9.5401,-0.0131,-4.496,44.7615,-1.2065,-18.5286,78.45411017389581,26.780983197807085,81.94950292606165,-20.634256998697918,-88.9123026529948,-41.600070529513886,0.87066650390625,0.2176666259765625,0.45635412235071166,-0.656856960720486,-0.06785074869791667,0.8142344156901041,0.4128,-0.6184,8.3279,0.18982,-0.04961,-0.01062,0.001,0.001,0.001,0.0005,0.0005,0.0005,0.01,0.01,0.01,passive,-1
2.8207,excitation,multi_sine,12.149167360629145,-666.620996514087,314.87370699327806,-177.3846591233053,0.12925229412959494,-149.96255466800193,10.2278,-0.0289,-4.7291,43.0059,-1.1319,-15.9487,78.47523981981938,26.786428772576965,81.96082917770536,-20.65131293402778,-88.91304016113281,-41.57921685112847,0.9250814607827971,0.2720815828531095,0.5053778922203743,-0.6828138563368056,-0.0,0.8820851643880208,0.3354,-0.4877,8.1199,0.19887,-0.05209,-0.00674,0.001,0.001,0.001,0.0005,0.0005,0.0005,0.01,0.01,0.01,passive,-1
2.8411,excitation,multi_sine,12.319651640784674,-666.6211669206144,314.7888040062792,-177.38504006935784,0.12948224144525894,-149.96276931037653,11.3615,-0.0499,-5.1518,43.0158,-0.93,-14.3264,78.49006048523553,26.79053504868309,81.96876299263226,-20.663392808702255,-88.91357421875,-41.564322577582466,0.979496417659344,0.2176666259765625,0.4818211923731436,-0.7782321506076388,-0.06785074869791667,0.9499359130859375,0.329,-0.5448,8.2014,0.191,-0.05174,-0.01601,0.001,0.001,0.001,0.0005,0.0005,0.0005,0.01,0.01,0.01,passive,-1
2.8606,excitation,multi_sine,12.5939028447098,-666.6246994562492,314.66181961706894,-177.38525904688782,0.12950927389458297,-149.9626984630404,12.4501,-0.0679,-5.5475,41.2801,-0.5865,-13.3645,78.51395710860149,26.797102371064742,81.98014363203899,-20.681915283203125,-88.91442192925346,-41.54071384006076,0.979496417659344,0.2720815828531095,0.44389932462484527,-0.7773335774739583,-0.0,0.9499359130859375,0.2749,-0.5551,8.0087,0.18569,-0.05925,-0.01001,0.001,0.001,0.001,0.0005,0.0005,0.0005,0.01,0.01,0.01,passive,-1
2.881,excitation,multi_sine,12.786794285345955,-666.6270097828025,314.5779793849031,-177.38543442560385,0.12960043276187488,-149.9629274089095,12.9382,-0.0821,-5.6415,36.6709,-0.1812,-13.161,78.53075612889658,26.801480585985843,81.98758115862856,-20.694079928927952,-88.9149898952908,-41.523827446831596,1.0883331298828125,0.2176666259765625,0.4871783870281559,-0.7569291856553819,-0.06785074869791667,1.0856458875868056,0.248,-0.6294,8.2062,0.17143,-0.06756,-0.01125,0.001,0.001,0.001,0.0005,0.0005,0.0005,0.01,0.01,0.01,passive,-1
2.901,excitation,multi_sine,13.107241372147715,-666.6294748500961,314.447821407807,-177.38592194885678,0.12989741902847912,-149.9622213812686,13.6915,-0.0994,-5.8683,33.2732,0.1535,-14.9122,78.55863665590192,26.80823826553798,81.99910456591313,-20.712661743164062,-88.91592237684462,-41.49687025282118,1.1971630436359066,0.2720815828531095,0.5210619633740717,-0.7507493760850694,-0.06785074869791667,1.153496636284722,0.4673,-0.4729,8.3879,0.21153,-0.05628,-0.01091,0.001,0.001,0.001,0.0005,0.0005,0.0005,0.01,0.01,0.01,passive,-1
2.921,excitation,multi_sine,13.331620870422539,-666.6293614059188,314.353348460804,-177.38657022009633,0.13036499387302672,-149.96153227540097,14.3106,-0.0934,-6.1343,28.3842,0.4738,-16.4726,78.57812787046527,26.81294280703705,82.00763664623298,-20.725699530707466,-88.9165751139323,-41.47822062174479,1.1971630436359066,0.2720815828531095,0.5676926716719524,-0.8608245849609375,-0.06785074869791667,1.2213473849826388,0.5336,-0.5921,8.2952,0.19136,-0.05595,-0.0166,0.001,0.001,0.001,0.0005,0.0005,0.0005,0.01,0.01,0.01,passive,-1
2.9409,excitation,multi_sine,13.736870741736787,-666.6301092729155,314.174153640576,-177.38748280126572,0.13108178138105417,-149.96089683078927,14.9484,-0.0547,-6.5775,23.2287,0.7047,-17.6645,78.61334394700457,26.82192358640161,82.0238441996055,-20.75082567003038,-88.91769409179688,-41.44393073187934,1.360414712735922,0.3809114966062036,0.5987684797532488,-0.9750281439887153,-0.0,1.2892066107855902,0.3631,-0.462,8.8529,0.17285,-0.04594,-0.01729,0.001,0.001,0.001,0.0005,0.0005,0.0005,0.01,0.01,0.01,passive,-1
2.9606,excitation,multi_sine,13.988484083331084,-666.6313693049591,314.0659517664609,-177.3876533247921,0.13119196328753457,-149.96005549806614,15.2336,-0.0241,-6.9491,23.0618,0.7276,-19.9726,78.63522142466933,26.827423548934483,82.03368838470762,-20.76663547092014,-88.91836378309462,-41.42307705349392,1.305999755859375,0.32649653972965653,0.6424622488493966,-1.0541280110677083,-0.06785074869791667,1.357057359483507,0.6039,-0.6363,8.4112,0.19524,-0.05249,-0.01335,0.001,0.001,0.001,0.0005,0.0005,0.0005,0.01,0.01,0.01,passive,-1
2.981,excitation,multi_sine,14.23116471249874,-666.6342337693092,313.9512869816874,-177.38737545909743,0.13095176002659495,-149.9605832742773,15.7062,-0.0236,-7.4173,27.9686,0.6791,-23.0774,78.65635786906327,26.833324621219447,82.04420561837678,-20.784106784396702,-88.9190165201823,-41.401613023546005,1.305999755859375,0.3809114966062036,0.673966360564279,-1.1295572916666667,-0.06785074869791667,1.2892066107855902,0.5602,-0.6331,8.4622,0.20037,-0.05625,-0.01351,0.001,0.001,0.001,0.0005,0.0005,0.0005,0.01,0.01,0.01,passive,-1
3.0007,excitation,multi_sine,14.61984690331225,-666.6346810619355,313.7665184806504,-177.38689436675696,0.13048508228504088,-149.9611067791306,16.4089,-0.025,-7.9419,34.2568,0.5093,-24.5443,78.69014626682394,26.842305400584003,82.0620040138169,-20.812640719943577,-88.92008463541667,-41.36762830946181,1.4148296696124691,0.3809114966062036,0.7884797955503559,-1.244591606987847,-0.0,1.4249081081814237,0.4524,-0.6929,8.6555,0.1868,-0.05041,-0.02091,0.001,0.001,0.001,0.0005,0.0005,0.0005,0.01,0.01,0.01,passive,-1
3.0206,excitation,multi_sine,14.882746869173406,-666.6323190128485,313.63029934235476,-177.38699218693603,0.13054271940584236,-149.96237844155894,16.761,-0.0134,-8.2626,39.5821,0.17,-23.4811,78.71296193340036,26.84861438109143,82.07539020198406,-20.83298577202691,-88.92083062065971,-41.343773735894096,1.4692514249593904,0.3809114966062036,0.8454033879950495,-1.3034311930338542,-0.0,1.4927588568793402,0.4222,-0.681,8.0913,0.17436,-0.05435,-0.01829,0.001,0.001,0.001,0.0005,0.0005,0.0005,0.01,0.01,0.01,passive,-1
3.0409,excitation,multi_sine,15.310581453641971,-666.6316662002586,313.4192138223737,-177.38722442222135,0.13071010083416482,-149.96250405767293,17.5614,-0.0156,-8.7112,43.9268,0.0515,-22.1701,78.75013596940748,26.858900466767867,82.09529612324026,-20.864071316189236,-88.92198350694444,-41.30683051215278,1.5780813387124846,0.435333251953125,0.7919130230894184,-1.3096110026041667,-0.0,1.5606180826822915,0.5562,-0.6568,7.6871,0.19053,-0.06916,-0.01415,0.001,0.001,0.001,0.0005,0.0005,0.0005,0.01,0.01,0.01,passive,-1
3.0608,excitation,multi_sine,15.599989715117776,-666.6338250094058,313.2776205337211,-177.3871127966609,0.1305977018114348,-149.96299168276974,18.9237,-0.0135,-9.3286,44.3544,0.1785,-20.7384,78.77533110061495,26.866127240775835,82.10826760471457,-20.885238647460938,-88.92277187771268,-41.28139071994357,1.5780813387124846,0.489748208829672,0.7918314414449258,-1.3581000434027777,-0.06785074869791667,1.5606180826822915,0.6366,-0.4731,8.5174,0.19795,-0.0547,-0.01766,0.001,0.001,0.001,0.0005,0.0005,0.0005,0.01,0.01,0.01,passive,-1
3.0808,excitation,multi_sine,16.067902163090466,-666.6353398756074,313.0508903151302,-177.38761524650374,0.1309753575423608,-149.9616753331534,20.0755,0.0012,-9.8158,39.08,0.2094,-18.494,78.81602674427599,26.87763025264929,82.12881938065632,-20.917909410264755,-88.92400953504774,-41.24238755967882,1.686918050935953,0.489748208829672,0.9007429368425124,-1.381005181206597,-0.13570149739583334,1.5606180826822915,0.5706,-0.6512,8.5942,0.1888,-0.06194,-0.01967,0.001,0.001,0.001,0.0005,0.0005,0.0005,0.01,0.01,0.01,passive,-1
3.1009,excitation,multi_sine,16.38092128594972,-666.6334201617722,312.8896916728885,-177.3886033090309,0.13179966625664644,-149.96157213938332,20.6356,-0.0057,-9.9982,32.4667,0.1262,-17.4108,78.84320702883277,26.88550288134282,82.1436060537206,-20.940136379665798,-88.92485724555121,-41.21556599934896,1.7413330078125,0.489748208829672,0.9074666240427753,-1.3804287380642362,-0.06785074869791667,1.696319580078125,0.6439,-0.5861,8.4924,0.19935,-0.05689,-0.01058,0.001,0.001,0.001,0.0005,0.0005,0.0005,0.01,0.01,0.01,passive,-1
3.1208,excitation,multi_sine,16.878266371690877,-666.6349438647195,312.65133093102173,-177.38887826942903,0.13201937234866232,-149.96038585154366,21.1023,-0.0043,-10.2857,22.2773,0.1083,-16.1172,78.88646569582495,26.89766534484259,82.16522518951113,-20.97489251030816,-88.9261457655165,-41.17389255099826,1.7413330078125,0.489748208829672,0.8727944251334313,-1.459282769097222,-0.13570149739583334,1.832029554578993,0.5569,-0.653,8.1033,0.1922,-0.04904,-0.01433,0.001,0.001,0.001,0.0005,0.0005,0.0005,0.01,0.01,0.01,passive,-1
3.1407,excitation,multi_sine,17.208008995182233,-666.6363707340927,312.49479547133853,-177.38838695815502,0.13158523373583655,-149.96040603237853,21.3296,0.0105,-10.5972,8.0784,0.0206,-13.7298,78.91516203927522,26.905633152121364,82.17978071458269,-20.998975965711804,-88.92701890733507,-41.14545186360677,1.795747964689047,0.489748208829672,0.9452117315613398,-1.503813001844618,-0.06785074869791667,1.8998803032769096,0.5748,-0.5026,9.0949,0.19588,-0.05443,-0.01246,0.001,0.001,0.001,0.0005,0.0005,0.0005,0.01,0.01,0.01,passive,-1
3.1607,excitation,multi_sine,17.803720491448992,-666.6317030929289,312.2002307091093,-177.38837758896167,0.13155196305850594,-149.96083146658955,21.4151,0.0017,-10.9061,2.4907,-0.1879,-15.0779,78.96689160035388,26.919821559792698,82.20799436663637,-21.043048434787327,-88.92861260308159,-41.09380086263021,1.9045846769125154,0.544163165706219,1.036603568804146,-1.6518317328559027,-0.06785074869791667,1.832029554578993,0.5748,-0.5503,7.9377,0.19329,-0.05418,-0.01038,0.001,0.001,0.001,0.0005,0.0005,0.0005,0.01,0.01,0.01,passive,-1
3.1807,excitation,multi_sine,18.15552573682056,-666.6322758073969,312.02131204543724,-177.38823230024792,0.13143060029828146,-149.9607002208798,21.4288,-0.0049,-11.2239,7.3875,-0.181,-19.0938,78.99749831397935,26.928877122331375,82.224494254235,-21.069751315646702,-88.92952813042534,-41.06363084581163,1.9045846769125154,0.544163165706219,1.0162965377958695,-1.699159410264757,-0.06785074869791667,1.8998803032769096,0.6272,-0.673,8.3283,0.1755,-0.06746,-0.0212,0.001,0.001,0.001,0.0005,0.0005,0.0005,0.01,0.01,0.01,passive,-1
3.2008,excitation,multi_sine,18.502017775942786,-666.6350170159901,311.8324016813834,-177.3883480371039,0.13152458422886779,-149.96153639292407,21.6229,-0.0031,-11.6657,15.8208,-0.0895,-21.9693,79.02769032091197,26.938714508963102,82.24134766229308,-21.09726799858941,-88.9304690890842,-41.032918294270836,1.8501697200359684,0.6529998779296875,1.1152074832727412,-1.803343031141493,-0.06785074869791667,1.8998803032769096,0.4955,-0.4984,8.4309,0.17643,-0.04768,-0.01471,0.001,0.001,0.001,0.0005,0.0005,0.0005,0.01,0.01,0.01,passive,-1
3.2207,excitation,multi_sine,19.03158697038776,-666.6342332289256,311.53428391453554,-177.38899826425964,0.13212574222244475,-149.96265733827823,21.5591,-0.0071,-11.959,24.6048,-0.1017,-23.4922,79.07374995769841,26.953664345316366,82.26860273002397,-21.14006890190972,-88.93185933430989,-40.986226399739586,1.8501697200359684,0.5985781225827661,1.1444205104714573,-1.768129136827257,-0.06785074869791667,2.0355902777777777,0.4949,-0.4537,8.188,0.18351,-0.06104,-0.01391,0.001,0.001,0.001,0.0005,0.0005,0.0005,0.01,0.01,0.01,passive,-1
3.2414,excitation,multi_sine,19.388071837026672,-666.6355995022273,311.33620772014984,-177.38880775115558,0.13195764912399718,-149.96393056598535,22.1173,-0.0233,-12.4907,32.1752,0.022,-24.7557,79.1047985718982,26.963794066174195,82.28671385510133,-21.16957770453559,-88.93283420138889,-40.95424228244357,2.0134145906656093,0.6529998779296875,1.1075456071608136,-1.8728807237413194,-0.0,2.0355902777777777,0.523,-0.4929,8.3049,0.18467,-0.05271,-0.01565,0.001,0.001,0.001,0.0005,0.0005,0.0005,0.01,0.01,0.01,passive,-1
3.261,excitation,multi_sine,19.92897286913956,-666.6356212660286,311.0281193920158,-177.38818449219468,0.13140905713107956,-149.9660696440572,23.5661,-0.0139,-13.3169,35.9549,0.1489,-25.5335,79.15188477771117,26.97924019086479,82.31551897407758,-21.216201782226562,-88.93431769476996,-40.90554979112413,2.0134145906656093,0.6529998779296875,1.2520266995571627,-1.9746059841579862,-0.06785074869791667,1.9677310519748263,0.6199,-0.5823,8.5782,0.18008,-0.04772,-0.02233,0.001,0.001,0.001,0.0005,0.0005,0.0005,0.01,0.01,0.01,passive,-1
3.2807,excitation,multi_sine,20.311441261684802,-666.6326673331506,310.8130483151185,-177.38810522996224,0.1313450043802819,-149.96607960406465,24.2449,0.0096,-13.6148,32.6635,0.1949,-24.0527,79.18512249937152,26.989771021474706,82.33584640049698,-21.24820285373264,-88.93530951605902,-40.87266710069444,2.122251302889078,0.7074148348062346,1.2271918872795482,-2.035098605685764,-0.0,2.0355902777777777,0.6381,-0.5514,7.8614,0.1855,-0.05146,-0.01411,0.001,0.001,0.001,0.0005,0.0005,0.0005,0.01,0.01,0.01,passive,-1
3.301,excitation,multi_sine,20.90281748188958,-666.6362677533202,310.4815499973234,-177.3875121484963,0.1308043798472719,-149.96474824842593,25.0019,0.0026,-14.1353,25.2948,0.3804,-22.6004,79.23665490480933,27.00707992704788,82.36570528238127,-21.297743055555554,-88.93683539496527,-40.82303365071615,2.122251302889078,0.7618297916827815,1.292035697710396,-2.1052381727430554,-0.0,2.171291775173611,0.7532,-0.5688,8.4072,0.18843,-0.05497,-0.01579,0.001,0.001,0.001,0.0005,0.0005,0.0005,0.01,0.01,0.01,passive,-1
3.3206,excitation,multi_sine,21.303974337563723,-666.6336918825754,310.24776816634756,-177.38825300754758,0.13145782542135975,-149.96343536322135,25.2128,0.0069,-14.4837,15.2756,0.6124,-20.8149,79.27152425935952,27.018820885384436,82.38693010689008,-21.330769856770832,-88.93782721625433,-40.789854261610245,2.3399179288656407,0.7074148348062346,1.3028656610167852,-2.056706746419271,-0.06785074869791667,2.103441026475694,0.7498,-0.5355,7.9039,0.18899,-0.05911,-0.01271,0.001,0.001,0.001,0.0005,0.0005,0.0005,0.01,0.01,0.01,passive,-1
3.341,excitation,multi_sine,21.91583017141758,-666.6350923466864,309.9088599842013,-177.38744287587167,0.1308104491795145,-149.96174462880708,25.209,0.0207,-14.837,2.9081,0.7161,-18.1423,79.32480387168356,27.036394931302212,82.41774077462678,-21.38180202907986,-88.93933614095052,-40.73884752061632,2.2855029719890934,0.7618297916827815,1.2899213734239634,-2.13942633734809,-0.06785074869791667,2.103441026475694,0.6883,-0.5698,7.8756,0.18765,-0.06326,-0.01641,0.001,0.001,0.001,0.0005,0.0005,0.0005,0.01,0.01,0.01,passive,-1
3.3607,excitation,multi_sine,22.322418447257977,-666.633074311895,309.66979679901715,-177.3874850574625,0.1307956432103296,-149.96058921273044,25.1319,0.0254,-15.2043,-4.6612,0.7308,-15.7576,79.36017631304146,27.048462216216738,82.4397066324064,-21.416880289713543,-88.94039577907986,-40.70503234863281,2.176666259765625,0.7618297916827815,1.413762309763691,-2.216178046332465,-0.06785074869791667,2.0355902777777777,0.6034,-0.6082,7.9071,0.18924,-0.04943,-0.01249,0.001,0.001,0.001,0.0005,0.0005,0.0005,0.01,0.01,0.01,passive,-1
3.381,excitation,multi_sine,22.917937930248183,-666.6349639800815,309.30376317731395,-177.38737558812997,0.13067662551374115,-149.96030148494887,24.81,0.0496,-15.4825,-8.7386,0.7738,-11.8812,79.41207583587949,27.067538724087253,82.47246166267017,-21.47048102484809,-88.94195556640625,-40.65403408474392,2.176666259765625,0.8162515470297029,1.3712310791015625,-2.317843967013889,-0.06785074869791667,2.171291775173611,0.6369,-0.5178,7.4776,0.18711,-0.05284,-0.00767,0.001,0.001,0.001,0.0005,0.0005,0.0005,0.01,0.01,0.01,passive,-1
3.4008,excitation,multi_sine,23.403259532583466,-666.6322717110179,308.9829637450624,-177.3877842586473,0.13104112899013406,-149.96150158269882,24.8636,0.0745,-15.8545,-8.9042,0.5337,-8.4437,79.45431473231551,27.08370548663753,82.50178346539488,-21.516774495442707,-88.9432356092665,-40.61112297905816,2.122251302889078,0.8162515470297029,1.5526482610419245,-2.339206271701389,-0.06785074869791667,2.2391425238715277,0.7873,-0.4332,8.3647,0.19859,-0.05343,-0.01488,0.001,0.001,0.001,0.0005,0.0005,0.0005,0.01,0.01,0.01,passive,-1
3.4208,excitation,multi_sine,23.790251063503778,-666.6303130781047,308.7299478388828,-177.3873921094113,0.13079258518345477,-149.96233636373086,24.7665,0.0802,-16.0485,-6.3465,-0.1687,-7.3526,79.4879943545502,27.096432223178372,82.52527218053837,-21.554523044162327,-88.94419352213542,-40.57703653971354,2.122251302889078,0.7618297916827815,1.4368771090365873,-2.4152543809678817,-0.06785074869791667,2.103441026475694,0.708,-0.4635,8.5552,0.18265,-0.06349,-0.02044,0.001,0.001,0.001,0.0005,0.0005,0.0005,0.01,0.01,0.01,passive,-1
3.4406,excitation,multi_sine,24.38385426461602,-666.6288332757454,308.34074537503807,-177.38563616836632,0.13051147545076433,-149.96220971022126,24.5497,0.0759,-16.0401,-5.8173,-0.952,-7.4859,79.53954715539913,27.116154585734453,82.5614604383412,-21.613549126519096,-88.94478691948784,-40.52625020345052,2.122251302889078,0.87066650390625,1.5619077776918318,-2.4999491373697915,-0.06785074869791667,2.0355902777777777,0.6735,-0.4858,8.0085,0.19793,-0.05847,-0.01334,0.001,0.001,0.001,0.0005,0.0005,0.0005,0.01,0.01,0.01,passive,-1
3.4609,excitation,multi_sine,24.78032983842221,-666.6281176973621,308.0803011823089,-177.38434665544955,0.13053212785043178,-149.96154284969478,24.1291,0.0554,-15.8625,-10.3024,-1.6521,-6.3751,79.5739474154935,27.129445595316366,82.58551342652575,-21.652908325195312,-88.94493103027344,-40.49293518066406,2.176666259765625,0.87066650390625,1.459577201616646,-2.4045901828342013,-0.06785074869791667,1.9677310519748263,0.7467,-0.4525,8.1447,0.19039,-0.06365,-0.01657,0.001,0.001,0.001,0.0005,0.0005,0.0005,0.01,0.01,0.01,passive,-1
3.4812,excitation,multi_sine,25.380492898341174,-666.6257692812636,307.69014403337036,-177.3841721554503,0.13103287441654793,-149.95973676355737,24.1889,0.0134,-16.098,-18.0455,-2.1382,-5.891,79.62612567561688,27.149569067624537,82.62062752600944,-21.709518432617188,-88.94593132866753,-40.44319152832031,2.2310880151125465,0.8162515470297029,1.4202616474415997,-2.3027886284722223,-0.06785074869791667,1.9677310519748263,0.7759,-0.4896,7.8884,0.19502,-0.05953,-0.01608,0.001,0.001,0.001,0.0005,0.0005,0.0005,0.01,0.01,0.01,passive,-1
3.501,excitation,multi_sine,25.776182793064134,-666.6253420421394,307.4352605322777,-177.3841867408188,0.13087950550285163,-149.95836623360594,24.0225,-0.0566,-16.3727,-24.94,-2.1909,-6.3098,79.66062111429649,27.16293486038057,82.643300424708,-21.746673583984375,-88.94704182942708,-40.410495334201386,2.122251302889078,0.8162515470297029,1.318502142877862,-2.335230509440104,-0.13570149739583334,2.0355902777777777,0.7498,-0.4474,8.3697,0.19348,-0.04768,-0.01489,0.001,0.001,0.001,0.0005,0.0005,0.0005,0.01,0.01,0.01,passive,-1
3.5212,excitation,multi_sine,26.346361993517394,-666.6287643690183,307.04421275864235,-177.38448018013443,0.13083697640510106,-149.9573914133519,23.4698,-0.1117,-16.7149,-32.9633,-1.8092,-4.2923,79.71041311131846,27.18392853689666,82.67718400105392,-21.802868313259548,-88.94871181911893,-40.362328423394096,1.9589996337890625,0.9250814607827971,1.4766821530785892,-2.3641798231336804,-0.13570149739583334,1.8998803032769096,0.7273,-0.4927,8.1398,0.1846,-0.05764,-0.02008,0.001,0.001,0.001,0.0005,0.0005,0.0005,0.01,0.01,0.01,passive,-1
3.5408,excitation,multi_sine,26.706851504827497,-666.6297107259155,306.7787110393744,-177.3849637504466,0.13111697749044973,-149.95736217033644,22.4419,-0.1336,-16.634,-39.9116,-0.9999,0.2005,79.74187643221109,27.197980975160505,82.70034638961943,-21.840506659613716,-88.94973754882812,-40.33132765028212,1.9045846769125154,0.87066650390625,1.4088606126237624,-2.385838826497396,-0.06785074869791667,1.9677310519748263,0.7468,-0.5284,8.1889,0.19807,-0.04871,-0.01617,0.001,0.001,0.001,0.0005,0.0005,0.0005,0.01,0.01,0.01,passive,-1
3.5612,excitation,multi_sine,27.22669332772489,-666.634454416619,306.38136233425826,-177.38528344958922,0.13121918756857023,-149.95800999945303,21.1973,-0.1358,-16.3633,-46.0795,0.1951,7.6852,79.78731060972308,27.219362164487933,82.73463787418781,-21.897294786241318,-88.9512210422092,-40.28589884440104,1.795747964689047,0.9250814607827971,1.4163321315652073,-2.3349761962890625,-0.06785074869791667,1.8998803032769096,0.7441,-0.413,8.3666,0.19552,-0.04829,-0.02003,0.001,0.001,0.001,0.0005,0.0005,0.0005,0.01,0.01,0.01,passive,-1
3.5811,excitation,multi_sine,27.553114989859438,-666.637515276613,306.11884586555266,-177.38564863980935,0.1314115995067871,-149.95911041460494,20.5973,-0.1245,-16.4275,-51.2898,1.3534,17.0745,79.81585058835473,27.233468990514773,82.757249586653,-21.934526231553818,-88.95217895507812,-40.256686740451386,1.795747964689047,0.9250814607827971,1.3737465131400834,-2.326227823893229,-0.06785074869791667,1.832029554578993,0.8097,-0.6629,8.5661,0.17989,-0.04867,-0.02607,0.001,0.001,0.001,0.0005,0.0005,0.0005,0.01,0.01,0.01,passive,-1
3.6007,excitation,multi_sine,28.01591077355569,-666.6426803522627,305.731497010602,-177.38637465859617,0.13186946545537362,-149.96149362530198,19.3765,-0.0926,-15.7726,-58.0212,1.998,30.5278,79.85633547943418,27.254374286915997,82.79037853278736,-21.989034016927082,-88.95355224609375,-40.21444532606337,1.795747964689047,0.87066650390625,1.395297664226872,-2.1747334798177085,-0.06785074869791667,1.696319580078125,0.7884,-0.5404,8.3549,0.19238,-0.04146,-0.02169,0.001,0.001,0.001,0.0005,0.0005,0.0005,0.01,0.01,0.01,passive,-1
3.6206,excitation,multi_sine,28.40092646434645,-666.6390184024455,305.42287550853496,-177.3870809680755,0.13233997946336948,-149.96115481436314,18.2307,-0.0361,-15.0371,-64.8969,2.0697,42.8511,79.88987913226137,27.27019432747718,82.81803471027034,-22.032691107855904,-88.95461188422308,-40.18174065483941,1.5780813387124846,0.7618297916827815,1.2886364625232054,-2.0855289035373263,-0.06785074869791667,1.5606180826822915,0.7981,-0.6531,8.6779,0.16974,-0.056,-0.0288,0.001,0.001,0.001,0.0005,0.0005,0.0005,0.01,0.01,0.01,passive,-1
3.6408,excitation,multi_sine,28.68276176204748,-666.6401478027085,305.19380439379023,-177.3869314712985,0.13216078880131424,-149.96039801406621,17.2121,0.0246,-14.3276,-68.3998,1.9894,48.8598,79.91448959501663,27.2823431940362,82.83821936881188,-22.065989176432293,-88.95534091525607,-40.15826755099826,1.6325030940594059,0.7074148348062346,1.2103180838103342,-2.046390109592014,-0.0,1.4249081081814237,0.802,-0.6734,8.3797,0.17705,-0.06086,-0.03033,0.001,0.001,0.001,0.0005,0.0005,0.0005,0.01,0.01,0.01,passive,-1
3.6608,excitation,multi_sine,29.085595533855628,-666.6383909856228,304.8649502292853,-177.387338942085,0.13234606797391993,-149.95673836966122,15.8054,0.0646,-13.2583,-77.8727,1.6992,57.8901,79.94961049297068,27.299495734790764,82.86735761283647,-22.112816704644096,-88.95635816786024,-40.127343071831596,1.360414712735922,0.7074148348062346,1.1105845234181622,-1.8092515733506944,-0.06785074869791667,1.2213473849826388,0.8889,-0.5357,8.5099,0.19027,-0.06479,-0.02244,0.001,0.001,0.001,0.0005,0.0005,0.0005,0.01,0.01,0.01,passive,-1
3.6806,excitation,multi_sine,29.314119286029992,-666.6406508479361,304.6678268418309,-177.3871696732289,0.13212342951113332,-149.95646633041125,13.824,0.0772,-11.7034,-88.9791,0.9861,67.5685,79.96959799587137,27.310094550104424,82.88452375053178,-22.141460842556423,-88.95698547363281,-40.10795593261719,1.251584798982828,0.7074148348062346,1.0083899167504642,-1.7771063910590277,-0.0,1.2213473849826388,0.8312,-0.6126,9.0972,0.18594,-0.05415,-0.02993,0.001,0.001,0.001,0.0005,0.0005,0.0005,0.01,0.01,0.01,passive,-1
3.7011,excitation,multi_sine,29.63575070477541,-666.6361013658695,304.39397412677516,-177.38791674748938,0.13264374130061185,-149.95497039597936,11.2889,0.067,-9.7644,-96.9533,0.0427,74.0007,79.99760089534344,27.324045011312656,82.90913421328705,-22.17992994520399,-88.95782470703125,-40.081888834635414,0.979496417659344,0.544163165706219,0.9774908688989016,-1.4916822645399306,-0.06785074869791667,0.9499359130859375,0.9236,-0.6229,8.7999,0.19466,-0.06108,-0.02761,0.001,0.001,0.001,0.0005,0.0005,0.0005,0.01,0.01,0.01,passive,-1
3.7228,excitation,multi_sine,29.880255134907983,-666.6330992833601,304.1728419840954,-177.38788323348197,0.13252692720736314,-149.95463109534015,10.1152,0.0805,-9.081,-117.3934,-0.8182,88.813,80.01890730149675,27.335235293548887,82.9294208488842,-22.21215142144097,-88.95848592122395,-40.06128946940104,0.8162515470297029,0.435333251953125,0.7417267147857364,-1.2453884548611112,-0.0,0.678524441189236,0.8073,-0.6512,8.6766,0.19071,-0.06041,-0.03153,0.001,0.001,0.001,0.0005,0.0005,0.0005,0.01,0.01,0.01,passive,-1
3.7408,excitation,multi_sine,30.0099627684253,-666.6334809378593,304.05523296985433,-177.38746912121263,0.1321461902896792,-149.95440990398944,8.1068,0.0787,-7.6101,-123.6732,-1.1854,92.1655,80.03024035161084,27.3413879092377,82.94007405196086,-22.229860093858505,-88.95882500542534,-40.05037943522135,0.6529998779296875,0.32649653972965653,0.607334552424969,-0.9875657823350694,-0.0,0.6106736924913194,0.8182,-0.7365,8.1027,0.18827,-0.05739,-0.02018,0.001,0.001,0.001,0.0005,0.0005,0.0005,0.01,0.01,0.01,passive,-1
3.7608,excitation,multi_sine,30.113231818452114,-666.6333553619689,303.95555283087884,-177.38742585895326,0.13204583156089286,-149.95422662330864,4.9864,0.0325,-5.0562,-113.5741,-1.3296,83.1313,80.03926192179765,27.346561545192603,82.94902763744392,-22.24435594346788,-88.95912170410156,-40.041707356770836,0.489748208829672,0.2720815828531095,0.49193051781984837,-0.8110555013020833,-0.0,0.4749637179904514,0.6836,-0.6598,8.0115,0.18018,-0.06039,-0.01591,0.001,0.001,0.001,0.0005,0.0005,0.0005,0.01,0.01,0.01,passive,-1
3.7808,excitation,multi_sine,30.219371560330103,-666.6321468858613,303.8435475291837,-177.3879061568941,0.1323538716127265,-149.95398593272444,2.4994,-0.0149,-3.1687,-108.2915,-1.3954,79.0987,80.04852143844755,27.352272260307085,82.95900099348313,-22.259750366210938,-88.95944383409288,-40.03286573621962,0.32649653972965653,0.16324487062964108,0.3438598330658261,-0.4757097032335069,-0.0,0.2714114718967014,0.7532,-0.6032,7.6439,0.19235,-0.05453,-0.01429,0.001,0.001,0.001,0.0005,0.0005,0.0005,0.01,0.01,0.01,passive,-1
3.8008,excitation,multi_sine,30.257529344444976,-666.631204163629,303.79206743143897,-177.38849904933656,0.13280318389728965,-149.95404166132118,0.2193,-0.0412,-1.5873,-103.602,-1.2366,76.7629,80.05184589046063,27.354848880578977,82.96348118545986,-22.26616753472222,-88.9595709906684,-40.02955966525607,0.16324487062964108,0.16324487062964108,0.2202296493077042,-0.2849578857421875,-0.0,0.13570149739583334,0.6935,-0.5083,8.713,0.18193,-0.04919,-0.01915,0.001,0.001,0.001,0.0005,0.0005,0.0005,0.01,0.01,0.01,passive,-1
3.8206,excitation,multi_sine,30.23387521837544,-666.6316635819192,303.77320193037167,-177.38766980158817,0.1320392806214614,-149.95745956384687,-1.259,-0.0416,-0.6302,-91.0712,-0.6791,68.331,80.04982674475944,27.355501533734916,82.96608499961324,-22.270592583550346,-88.95965576171875,-40.02821180555556,-0.2176666259765625,-0.05441495687654703,-0.04649473889039295,-0.057915581597222224,-0.0,0.06785074869791667,0.6178,-0.5469,8.3535,0.18882,-0.05827,-0.01878,0.001,0.001,0.001,0.0005,0.0005,0.0005,0.01,0.01,0.01,passive,-1
3.8411,excitation,multi_sine,30.167840691568756,-666.6367885001383,303.8065220811997,-177.3850811108672,0.12985852748954538,-149.96248112837173,-2.7677,-0.0587,0.4434,-73.1516,0.0554,55.4904,80.0441840143487,27.353808714611695,82.96427660649366,-22.270456949869793,-88.95964728461371,-40.02883063422309,-0.32649653972965653,-0.10882991375309406,-0.07290679629486387,0.044606526692708336,-0.0,-0.06785074869791667,0.5601,-0.687,8.433,0.1829,-0.05949,-0.01992,0.001,0.001,0.001,0.0005,0.0005,0.0005,0.01,0.01,0.01,passive,-1
3.8607,excitation,multi_sine,30.101208564419917,-666.6375683060331,303.82404274562407,-177.3849951405621,0.1296996939965272,-149.96606136251845,-4.32,-0.0682,1.7149,-63.435,0.3706,50.2178,80.03841891147123,27.352693765470296,82.96308687417815,-22.268252902560764,-88.95964728461371,-40.03099229600694,-0.3809114966062036,-0.10882991375309406,-0.0706565026009437,0.2036624484592014,0.06785074869791667,-0.2714114718967014,0.7575,-0.5643,8.7376,0.19093,-0.05134,-0.02301,0.001,0.001,0.001,0.0005,0.0005,0.0005,0.01,0.01,0.01,passive,-1
3.8808,excitation,multi_sine,29.989376002380297,-666.6366143256687,303.8543702684492,-177.38767465421608,0.13164804412709114,-149.9659196109264,-5.5766,-0.0451,2.8001,-60.8219,0.3753,50.8539,80.02868350189512,27.35096015552483,82.95936811088335,-22.259190877278645,-88.9595709906684,-40.04077487521701,-0.435333251953125,-0.05441495687654703,-0.2167284370648979,0.5078125,0.06785074869791667,-0.5428229437934028,0.8633,-0.5716,8.5732,0.1902,-0.06001,-0.02318,0.001,0.001,0.001,0.0005,0.0005,0.0005,0.01,0.01,0.01,passive,-1
3.9006,excitation,multi_sine,29.905660654745162,-666.6364921861928,303.890765637291,-177.3898539953805,0.13320794834290559,-149.963701683187,-6.6388,-0.0078,3.7299,-65.6581,0.3487,54.7169,80.02139554165377,27.349138165464495,82.95498309749188,-22.250018649631077,-88.95948621961806,-40.05018446180556,-0.489748208829672,-0.16324487062964108,-0.3587484831857209,0.6410471598307291,0.06785074869791667,-0.678524441189236,0.8615,-0.6319,8.059,0.21761,-0.06015,-0.0163,0.001,0.001,0.001,0.0005,0.0005,0.0005,0.01,0.01,0.01,passive,-1
3.9208,excitation,multi_sine,29.73732012825143,-666.6393484580661,303.99941928863916,-177.39060724685018,0.1334544173675614,-149.96119088627088,-7.7985,0.0057,4.7253,-72.5113,0.4248,57.5385,80.00678562881923,27.343645001401995,82.94468341487469,-22.232962714301216,-88.95926581488715,-40.06712171766493,-0.6529998779296875,-0.32649653972965653,-0.516017498356281,0.8371310763888888,0.06785074869791667,-0.7463751898871528,0.6719,-0.6244,8.0111,0.18542,-0.0436,-0.0152,0.001,0.001,0.001,0.0005,0.0005,0.0005,0.01,0.01,0.01,passive,-1
3.9409,excitation,multi_sine,29.597853431721894,-666.6388793368733,304.09729377545915,-177.39052626285374,0.13313317702831673,-149.96010059909312,-9.2452,-0.023,5.8541,-77.7387,0.4519,57.7862,79.99463676226021,27.33825381439511,82.93646406419207,-22.219212849934895,-88.95906236436632,-40.08021036783854,-0.7618297916827815,-0.3809114966062036,-0.5217350119411355,0.915188259548611,-0.0,-0.8820851643880208,0.5724,-0.6599,8.6292,0.18735,-0.0462,-0.01606,0.001,0.001,0.001,0.0005,0.0005,0.0005,0.01,0.01,0.01,passive,-1
3.9608,excitation,multi_sine,29.35433088215062,-666.636528596784,304.2571543081211,-177.39097658722542,0.13327061442415955,-149.95859779415076,-10.9055,-0.0318,7.0826,-81.0287,0.2661,56.7096,79.97337794539952,27.329273035030553,82.92299629438041,-22.195629543728298,-88.95856221516927,-40.10270860460069,-0.979496417659344,-0.435333251953125,-0.6308844538018255,1.0449981689453125,0.06785074869791667,-1.0177951388888888,0.8152,-0.6082,8.7345,0.18866,-0.05923,-0.02606,0.001,0.001,0.001,0.0005,0.0005,0.0005,0.01,0.01,0.01,passive,-1
3.9807,excitation,multi_sine,29.16214451503767,-666.6358641472799,304.3772963435218,-177.39114696183418,0.13332124840067075,-149.9580830601241,-12.8943,-0.0077,8.4022,-81.4815,0.2935,54.2723,79.9566129174563,27.322603735593287,82.91280538728921,-22.17807345920139,-88.95811292860243,-40.11978997124566,-1.0883331298828125,-0.435333251953125,-0.6963877158589883,1.1753590901692708,0.06785074869791667,-1.0856458875868056,0.6257,-0.6024,8.4237,0.1767,-0.05288,-0.0237,0.001,0.001,0.001,0.0005,0.0005,0.0005,0.01,0.01,0.01,passive,-1
4.0006,excitation,multi_sine,28.843525882640435,-666.6388118750673,304.58510475356786,-177.39074938563803,0.1329046138261194,-149.95739360035066,-14.8574,0.0128,9.6178,-76.7974,0.7833,48.9589,79.92887515832882,27.31159021358679,82.89467386680074,-22.148623996310764,-88.9573245578342,-40.14788309733073,-1.251584798982828,-0.489748208829672,-0.8372724174272896,1.289215087890625,0.06785074869791667,-1.2892066107855902,0.752,-0.6438,8.7862,0.19263,-0.05826,-0.02216,0.001,0.001,0.001,0.0005,0.0005,0.0005,0.01,0.01,0.01,passive,-1
4.0209,excitation,multi_sine,28.600042308131957,-666.642399791217,304.735876791445,-177.3904990261574,0.1327609543810206,-149.95789079628045,-16.0585,0.0311,10.3335,-67.4981,1.3249,41.0292,79.90769112464226,27.303751577245126,82.8812332908706,-22.126990424262154,-88.95665486653645,-40.16832139756944,-1.4148296696124691,-0.489748208829672,-0.8400529918104115,1.4005533854166667,0.06785074869791667,-1.4249081081814237,0.7551,-0.6551,8.1578,0.20267,-0.06074,-0.01478,0.001,0.001,0.001,0.0005,0.0005,0.0005,0.01,0.01,0.01,passive,-1
4.0408,excitation,multi_sine,28.208456991978036,-666.6395067041847,304.9789270874535,-177.39022907588526,0.13272524237576255,-149.95784801231872,-17.1892,0.0391,10.9936,-57.1391,1.3415,32.3806,79.87347442324798,27.290059457911124,82.86115060938467,-22.092386881510418,-88.95547654893663,-40.202178955078125,-1.4692514249593904,-0.6529998779296875,-0.8677839524675124,1.5252600775824652,0.06785074869791667,-1.4927588568793402,0.6836,-0.6684,8.3279,0.20157,-0.0653,-0.02027,0.001,0.001,0.001,0.0005,0.0005,0.0005,0.01,0.01,0.01,passive,-1
4.0609,excitation,multi_sine,27.861684827947386,-666.633641746624,305.2073368305389,-177.38948600862648,0.13227613456368753,-149.95725203681212,-18.0517,0.0635,11.4785,-45.5416,0.9543,22.5995,79.84311925302637,27.276856828444075,82.84305308124807,-22.060987684461804,-88.95440843370226,-40.232764350043404,-1.686918050935953,-0.6529998779296875,-0.9765322845761139,1.6227637396918402,-0.0,-1.4927588568793402,0.6295,-0.6495,8.7843,0.19479,-0.05507,-0.02082,0.001,0.001,0.001,0.0005,0.0005,0.0005,0.01,0.01,0.01,passive,-1
4.081,excitation,multi_sine,27.411445823626302,-666.634724739446,305.5070467818772,-177.38734574129484,0.13069095469487604,-149.9567930191575,-19.1459,0.1163,12.0534,-43.5608,0.5803,18.0467,79.80385128814395,27.260560894956683,82.81823866438157,-22.02130635579427,-88.95304361979167,-40.27203030056423,-1.6325030940594059,-0.6529998779296875,-1.0589025516321162,1.6925133599175346,-0.0,-1.7641703287760415,0.6708,-0.5422,8.9787,0.19802,-0.06499,-0.01893,0.001,0.001,0.001,0.0005,0.0005,0.0005,0.01,0.01,0.01,passive,-1
4.1006,excitation,multi_sine,27.089541224055353,-666.6325532180658,305.70214856664256,-177.387153231563,0.1305976977365791,-149.9571453056862,-19.8462,0.132,12.3396,-51.0859,0.0958,19.7399,79.77574641161625,27.24966294694655,82.80198352171642,-21.99350145128038,-88.95215352376302,-40.299462212456596,-1.795747964689047,-0.7074148348062346,-1.0013127090907332,1.7839135064019096,0.06785074869791667,-1.832029554578993,0.5853,-0.5066,9.163,0.19126,-0.05752,-0.01608,0.001,0.001,0.001,0.0005,0.0005,0.0005,0.01,0.01,0.01,passive,-1
4.121,excitation,multi_sine,26.76154483310514,-666.6298019567504,305.89754202334086,-177.38743408618032,0.13091352814242008,-149.95687777957576,-20.7655,0.1018,12.613,-58.1422,-0.5869,21.3993,79.74709765745861,27.23875820046604,82.7854564402363,-21.96475558810764,-88.9512210422092,-40.32804701063368,-1.8501697200359684,-0.7074148348062346,-1.086184813244508,1.821687486436632,-0.0,-1.832029554578993,0.634,-0.7166,8.8439,0.19963,-0.04805,-0.01788,0.001,0.001,0.001,0.0005,0.0005,0.0005,0.01,0.01,0.01,passive,-1
4.1407,excitation,multi_sine,26.239685951085725,-666.6297865853608,306.20857083507474,-177.3873147223598,0.13090168924957937,-149.95656910837138,-21.8185,0.0685,12.8883,-62.3622,-1.2774,21.7832,79.70159549524288,27.221938784759825,82.75857528837601,-21.91973368326823,-88.94977145724826,-40.3733401828342,-1.9589996337890625,-0.7074148348062346,-1.1393012622795482,1.9570414225260415,0.06785074869791667,-1.832029554578993,0.6026,-0.6054,8.8414,0.20345,-0.04641,-0.02325,0.001,0.001,0.001,0.0005,0.0005,0.0005,0.01,0.01,0.01,passive,-1
4.161,excitation,multi_sine,25.876781363097464,-666.6258667625559,306.4249420329607,-177.38734022768188,0.13096009497250233,-149.95585037031987,-23.1029,0.0528,13.2661,-63.23,-1.9659,21.2537,79.66989422788714,27.20979671667118,82.74052534953202,-21.888478597005207,-88.94876268174913,-40.40540059407552,-2.067836346012531,-0.8162515470297029,-1.140919298228651,1.9681888156467013,0.06785074869791667,-2.0355902777777777,0.6931,-0.601,8.3113,0.20027,-0.05884,-0.01287,0.001,0.001,0.001,0.0005,0.0005,0.0005,0.01,0.01,0.01,passive,-1
4.181,excitation,multi_sine,25.29069328691451,-666.6245170487665,306.7644180719353,-177.38698866523535,0.1306312002978042,-149.95624301720474,-25.4518,0.0138,14.3523,-63.735,-2.2673,21.614,79.61880372302367,27.191298078782488,82.71154347032603,-21.83990478515625,-88.94725375705295,-40.455542670355904,-2.176666259765625,-0.7074148348062346,-1.3079237229753249,2.106535169813368,-0.0,-2.103441026475694,0.5322,-0.6704,8.8162,0.1751,-0.05906,-0.0172,0.001,0.001,0.001,0.0005,0.0005,0.0005,0.01,0.01,0.01,passive,-1
4.2007,excitation,multi_sine,24.870787981355228,-666.6272028749728,306.9954302320323,-177.38684834387314,0.13054648519965106,-149.95744044337127,-26.3759,-0.044,14.6805,-60.8903,-2.047,21.8106,79.58226194476137,27.17915601069384,82.69105288061765,-21.80633544921875,-88.94616021050346,-40.490502251519096,-2.2855029719890934,-0.8162515470297029,-1.2429915324296101,2.1178097195095487,0.13570149739583334,-2.171291775173611,0.5857,-0.6559,8.2293,0.20179,-0.06195,-0.01224,0.001,0.001,0.001,0.0005,0.0005,0.0005,0.01,0.01,0.01,passive,-1
4.2209,excitation,multi_sine,24.222777182563444,-666.626127676256,307.348224095031,-177.38723289672873,0.1308898728522224,-149.95877896590383,-27.1652,-0.0796,14.8298,-53.7951,-1.6424,19.8719,79.52579384983176,27.160106696704826,82.6602830037032,-21.754286024305554,-88.94448174370659,-40.545035468207466,-2.503169597965656,-0.8162515470297029,-1.2996023952370823,2.140672471788194,0.06785074869791667,-2.307001749674479,0.6038,-0.6925,8.1454,0.19342,-0.06823,-0.01385,0.001,0.001,0.001,0.0005,0.0005,0.0005,0.01,0.01,0.01,passive,-1
4.2407,excitation,multi_sine,23.77541505841959,-666.6297480114495,307.59547313615616,-177.3867382230091,0.13046386340862326,-149.9591772033742,-28.1427,-0.1136,15.1572,-48.7662,-1.0737,18.0743,79.48688620387918,27.14729837851949,82.6382287658087,-21.71887715657552,-88.94332038031683,-40.58314005533854,-2.448754641089109,-0.8162515470297029,-1.349142848855198,2.1949259440104165,0.06785074869791667,-2.307001749674479,0.5447,-0.6597,8.9749,0.19556,-0.04816,-0.01815,0.001,0.001,0.001,0.0005,0.0005,0.0005,0.01,0.01,0.01,passive,-1
4.2609,excitation,multi_sine,23.081172143901544,-666.632002486991,307.9600676657442,-177.38743711024216,0.13105518871262348,-149.96001794888315,-28.8827,-0.1368,15.4158,-44.836,-0.133,16.6342,79.42646139919168,27.12820827370823,82.60533776613745,-21.66412353515625,-88.94152323404948,-40.642098320855034,-2.557584554842203,-0.8162515470297029,-1.3927890286587252,2.2884707980685763,0.13570149739583334,-2.510553995768229,0.5351,-0.7213,8.2285,0.18923,-0.05231,-0.0172,0.001,0.001,0.001,0.0005,0.0005,0.0005,0.01,0.01,0.01,passive,-1
4.2809,excitation,multi_sine,22.613314143816513,-666.6368602018185,308.2129753480304,-177.38732377225344,0.13098289709234895,-149.959765980534,-29.972,-0.1251,15.9254,-43.7807,0.9009,17.2647,79.38579294941214,27.115433947874767,82.58206660204594,-21.626934475368923,-88.94026862250433,-40.682593451605904,-2.503169597965656,-0.7618297916827815,-1.4491415495919708,2.352871365017361,0.06785074869791667,-2.510553995768229,0.5194,-0.6549,8.5979,0.20153,-0.05915,-0.01607,0.001,0.001,0.001,0.0005,0.0005,0.0005,0.01,0.01,0.01,passive,-1
4.3008,excitation,multi_sine,22.011050087531125,-666.6363451189392,308.52862105919326,-177.3881113785545,0.13171684783766593,-149.9598293152351,-30.7473,-0.0987,16.247,-42.8008,1.5989,18.4386,79.33333595200341,27.098804889339032,82.55365579435141,-21.579182942708332,-88.93864101833768,-40.73443942599826,-2.7208362239422184,-0.87066650390625,-1.4509159503596845,2.4358622233072915,0.06785074869791667,-2.6462639702690973,0.526,-0.6772,8.4266,0.21087,-0.05057,-0.01092,0.001,0.001,0.001,0.0005,0.0005,0.0005,0.01,0.01,0.01,passive,-1
4.321,excitation,multi_sine,21.270233860972684,-666.6391393229362,308.9257923765013,-177.38817531267938,0.131808163139091,-149.95920525781887,-31.748,-0.0537,16.6083,-40.9701,1.9926,18.322,79.2688796543839,27.078382284334392,82.51757631207457,-21.520538330078125,-88.93664889865451,-40.798848470052086,-2.6664212670656715,-0.8162515470297029,-1.5481884644763304,2.4875556098090277,0.06785074869791667,-2.781973944769965,0.3387,-0.7782,8.0915,0.20228,-0.0488,-0.00843,0.001,0.001,0.001,0.0005,0.0005,0.0005,0.01,0.01,0.01,passive,-1
4.3409,excitation,multi_sine,20.756697688123754,-666.6397685139582,309.19163796469445,-177.38854389221734,0.13210985542581205,-149.95941556103637,-33.0021,0.0039,17.1971,-40.3921,2.0829,17.938,79.22419330861308,27.06462218029664,82.4934213468344,-21.480755276150173,-88.93531799316406,-40.8428700764974,-2.884087893042234,-0.8162515470297029,-1.4736092444693687,2.492429945203993,0.13570149739583334,-2.781973944769965,0.4344,-0.8218,7.8157,0.19303,-0.05055,-0.01212,0.001,0.001,0.001,0.0005,0.0005,0.0005,0.01,0.01,0.01,passive,-1
4.3606,excitation,multi_sine,19.960413246592285,-666.6411862217655,309.6094666262217,-177.3880304538248,0.13166433597882066,-149.96012458231255,-33.3205,0.0478,17.3743,-37.0901,1.5895,15.8457,79.15492369396851,27.04305063379873,82.45590058883818,-21.420194837782116,-88.93324957953558,-40.91073777940538,-2.884087893042234,-0.9250814607827971,-1.6045069930577043,2.450620863172743,0.13570149739583334,-2.9176754421657987,0.4221,-0.8017,8.0314,0.19559,-0.05541,-0.01283,0.001,0.001,0.001,0.0005,0.0005,0.0005,0.01,0.01,0.01,passive,-1
4.381,excitation,multi_sine,19.413956142436305,-666.6372192363923,309.8869818323462,-177.38822831891562,0.13181615471671881,-149.960488748896,-33.6126,0.0677,17.4788,-35.1362,0.7473,14.3185,79.10731400593673,27.028209572971456,82.43152807254603,-21.37925042046441,-88.9318339029948,-40.95751444498698,-2.992917806795328,-0.9250814607827971,-1.5227281929242729,2.615542941623264,0.13570149739583334,-3.0533854166666665,0.3592,-0.7885,8.5523,0.18319,-0.04721,-0.01945,0.001,0.001,0.001,0.0005,0.0005,0.0005,0.01,0.01,0.01,passive,-1
4.4008,excitation,multi_sine,18.59082192215247,-666.6361613130514,310.30923359501486,-177.38823240519318,0.1317436557001709,-149.95982027396633,-34.5315,0.0697,17.8479,-32.1571,-0.0579,12.2766,79.03569212054262,27.00641367695119,82.39336145986425,-21.317062377929688,-88.92970614963107,-41.02909511990017,-2.884087893042234,-0.9250814607827971,-1.6517087728670328,2.6899210611979165,0.13570149739583334,-2.985526190863715,0.2648,-0.7612,8.0623,0.19488,-0.05627,-0.00786,0.001,0.001,0.001,0.0005,0.0005,0.0005,0.01,0.01,0.01,passive,-1
4.421,excitation,multi_sine,18.042827465063247,-666.6332687987168,310.59096650010656,-177.38881269040635,0.1322380503567303,-149.9592162683285,-35.5737,0.0686,18.2756,-30.0221,-0.7942,9.7687,78.98797365698483,26.991796965646273,82.3677380250232,-21.27454121907552,-88.92825656467014,-41.07693142361111,-3.047339562142249,-0.9250814607827971,-1.6492613235322555,2.744174533420139,0.13570149739583334,-3.121236165364583,0.3739,-0.6879,9.0789,0.18796,-0.06063,-0.01678,0.001,0.001,0.001,0.0005,0.0005,0.0005,0.01,0.01,0.01,passive,-1
4.4406,excitation,multi_sine,17.214670870820193,-666.6327161893543,311.03345287279467,-177.3884553298796,0.13195428441525953,-149.95679089033845,-35.9554,0.0393,18.3433,-32.7207,-1.0827,9.6653,78.91592346795714,26.96941640117381,82.32719874618077,-21.209733751085068,-88.92599317762587,-41.150665283203125,-3.047339562142249,-0.9250814607827971,-1.7198226475479579,2.696202596028646,0.06785074869791667,-3.1890869140625,0.3901,-0.741,8.265,0.18956,-0.06279,-0.01201,0.001,0.001,0.001,0.0005,0.0005,0.0005,0.01,0.01,0.01,passive,-1
4.461,excitation,multi_sine,16.639374549984087,-666.632342793243,311.3234448765417,-177.3888383650942,0.13232420962969343,-149.95620192056003,-36.5788,-0.0023,18.5124,-31.5716,-0.83,9.1391,78.8658867260017,26.95486087610226,82.3001476325611,-21.166000366210938,-88.92444186740451,-41.20079040527344,-3.1017545190187965,-0.9250814607827971,-1.7485053940574722,2.7891370985243054,0.06785074869791667,-3.121236165364583,0.3282,-0.8109,8.3552,0.18635,-0.06325,-0.01049,0.001,0.001,0.001,0.0005,0.0005,0.0005,0.01,0.01,0.01,passive,-1
4.4806,excitation,multi_sine,15.748039566188952,-666.6339778562314,311.76533611213597,-177.38867837915348,0.13216873014935793,-149.95719473607855,-37.158,-0.0158,18.6738,-25.0796,-0.3107,6.9504,78.78843855149675,26.932963003026376,82.25886732044786,-21.100633409288193,-88.92215304904514,-41.27649943033854,-3.319421144995359,-0.9250814607827971,-1.6346650076384592,2.7815077039930554,0.13570149739583334,-3.121236165364583,0.1545,-0.9305,8.1299,0.17749,-0.05645,-0.00823,0.001,0.001,0.001,0.0005,0.0005,0.0005,0.01,0.01,0.01,passive,-1
4.501,excitation,multi_sine,14.985429034534366,-666.634145200981,312.1460584584181,-177.38758103428938,0.13112260215248508,-149.95807569596488,-37.3578,-0.0199,18.6324,-18.7329,0.2571,4.7203,78.72218065922803,26.91394768138923,82.22401836130878,-21.046218872070312,-88.92024570041232,-41.341256035698784,-3.373836101871906,-0.979496417659344,-1.811853541005956,2.7600945366753473,0.06785074869791667,-3.1890869140625,0.2841,-0.8503,8.3128,0.19197,-0.05607,-0.0119,0.001,0.001,0.001,0.0005,0.0005,0.0005,0.01,0.01,0.01,passive,-1
4.521,excitation,multi_sine,14.373514357233907,-666.6341255798615,312.4454140313031,-177.3873364455906,0.1308652619390655,-149.9584079804618,-38.3318,-0.0089,18.9921,-15.6541,0.7292,3.8017,78.66901662090036,26.89916780679533,82.1960426557182,-21.002146402994793,-88.91868591308594,-41.393585205078125,-3.319421144995359,-0.979496417659344,-1.7220797397122525,2.750846015082465,-0.0,-3.2569376627604165,0.2279,-0.7956,8.4115,0.19335,-0.05911,-0.00766,0.001,0.001,0.001,0.0005,0.0005,0.0005,0.01,0.01,0.01,passive,-1
4.5408,excitation,multi_sine,13.455497819631592,-666.6358898639988,312.9023872238504,-177.3871463616482,0.13075270440829032,-149.95925758812976,-38.3381,0.0312,18.9843,-14.0103,0.8647,3.3654,78.58929095882,26.877113568900835,82.15245766214805,-20.934227837456596,-88.91627841525607,-41.47168477376302,-3.2650061881188117,-0.87066650390625,-1.8184752511506033,2.7628241644965277,0.06785074869791667,-3.2569376627604165,0.1867,-0.8893,8.2182,0.18826,-0.06556,-0.01187,0.001,0.001,0.001,0.0005,0.0005,0.0005,0.01,0.01,0.01,passive,-1
