t,trajectory_type,trajectory_variant,x,y,z,rx,ry,rz,vx,vy,vz,ax,ay,az,j1,j2,j3,j4,j5,j6,dj1,dj2,dj3,dj4,dj5,dj6,fx,fy,fz,tx,ty,tz,Mx,My,Mz,Bx,By,Bz,Kx,Ky,Kz,mode,comfort
0.0006,excitation,multi_sine,41.42502146879809,-666.6346152489078,296.0034634885219,-177.38832656696195,0.13143038743458757,-149.9617592511613,-0.057,-0.0176,0.2564,0.8104,0.4383,-1.9871,81.02751476929919,27.800869327960626,83.59955287215733,-23.379253811306423,-88.99000379774306,-39.05893113878038,0.05441495687654703,-0.0,-0.024596865814511138,0.0130462646484375,-0.0,-0.0,1.0268,0.1649,8.654,0.18076,-0.00655,-0.02057,0.001,0.001,0.001,0.0005,0.0005,0.0005,0.01,0.01,0.01,passive,-1
0.0208,excitation,multi_sine,41.42527569185092,-666.6345934766562,296.0033328512343,-177.3883318212858,0.1314458930952846,-149.96174702442102,-0.0101,-0.0136,0.154,0.3631,0.3147,-3.493,81.02753516471032,27.800876126431003,83.59955967062771,-23.379253811306423,-88.98999532063802,-39.058922661675346,-0.05441495687654703,-0.0,0.01646589524675124,0.01739501953125,0.06785074869791667,0.06785074869791667,1.1848,0.1027,8.6453,0.20546,-0.01133,-0.02062,0.001,0.001,0.001,0.0005,0.0005,0.0005,0.01,0.01,0.01,passive,-1
0.0407,excitation,multi_sine,41.4254796112767,-666.6345913324715,296.0032546508509,-177.38834774962024,0.13143624916006852,-149.96171030943862,0.0323,-0.0075,-0.0037,-1.1007,0.0839,-5.1578,81.02755556012144,27.800882924901376,83.59955967062771,-23.379253811306423,-88.99001227484808,-39.058939615885414,-0.05441495687654703,-0.0,0.0026514034460086633,-0.015928480360243056,-0.0,-0.0,1.1329,0.1054,8.7955,0.18744,-0.01419,-0.02347,0.001,0.001,0.001,0.0005,0.0005,0.0005,0.01,0.01,0.01,passive,-1
0.0611,excitation,multi_sine,41.425637448400686,-666.6346848862974,296.00324384456513,-177.38834364831087,0.1314435482418003,-149.96168786766776,-0.0254,-0.0055,-0.0759,-3.8554,-0.1245,-4.4144,81.02756915706219,27.800896521842127,83.59953927521659,-23.37924533420139,-88.99000379774306,-39.05894809299045,-0.0,-0.0,0.0070432153078589105,0.03370496961805555,0.06785074869791667,-0.0,1.1911,0.0859,8.8029,0.18936,-0.01224,-0.02871,0.001,0.001,0.001,0.0005,0.0005,0.0005,0.01,0.01,0.01,passive,-1
0.0811,excitation,multi_sine,41.42526774095744,-666.6347454351537,296.0035428466783,-177.38831305482879,0.13143991881927797,-149.9617042118714,-0.183,-0.0078,-0.0578,-7.8362,-0.3006,-1.2993,81.02753516471032,27.800882924901376,83.59951887980546,-23.379236857096355,-88.98998684353299,-39.05896504720052,-0.0,-0.0,0.00823974609375,0.020480685763888888,-0.0,-0.06785074869791667,1.061,0.1076,8.5799,0.18569,-0.00669,-0.02608,0.001,0.001,0.001,0.0005,0.0005,0.0005,0.01,0.01,0.01,passive,-1
0.101,excitation,multi_sine,41.42028092849025,-666.6355011796493,296.0058609369931,-177.38823387211244,0.1313609741930616,-149.96200512488673,-0.451,-0.0153,0.0185,-12.7898,-0.4329,4.4449,81.02711365954711,27.800814940197633,83.59926733640161,-23.379024929470486,-88.98999532063802,-39.059083726671005,-0.05441495687654703,-0.05441495687654703,-0.032537479211788366,0.034705268012152776,0.06785074869791667,-0.0,0.9824,0.1149,8.1093,0.17992,-0.00193,-0.02229,0.001,0.001,0.001,0.0005,0.0005,0.0005,0.01,0.01,0.01,passive,-1
0.1208,excitation,multi_sine,41.405317669056664,-666.6370843612486,296.0109527240915,-177.38810400684994,0.13124715502430245,-149.96301467403924,-0.7044,-0.0335,0.0719,-18.151,-0.6314,12.3277,81.02583554711673,27.800631381497524,83.59874385418279,-23.378482394748264,-88.98999532063802,-39.059346516927086,-0.05441495687654703,-0.0,-0.04881301728805693,0.05574544270833333,-0.0,-0.06785074869791667,1.1009,0.1611,8.5955,0.19119,0.00016,-0.01589,0.001,0.001,0.001,0.0005,0.0005,0.0005,0.01,0.01,0.01,passive,-1
0.141,excitation,multi_sine,41.38073770562027,-666.6366154884099,296.0169010448645,-177.3890395829943,0.1319828121416515,-149.9639579069933,-1.1516,-0.0511,0.3864,-26.93,-0.7967,24.3946,81.02368723047842,27.800230271745438,83.59792123926748,-23.37603251139323,-88.98997836642795,-39.06052483452691,-0.16324487062964108,-0.05441495687654703,-0.07077887506768255,0.1784091525607639,-0.06785074869791667,-0.06785074869791667,0.8985,-0.0091,7.7713,0.17536,-0.0028,-0.01955,0.001,0.001,0.001,0.0005,0.0005,0.0005,0.01,0.01,0.01,passive,-1
0.1611,excitation,multi_sine,41.358060132045935,-666.636286179141,296.02205655893124,-177.39056567303027,0.13318523455949516,-149.96413402886168,-1.7233,-0.0526,0.9284,-39.4964,-0.7897,40.663,81.02170207712909,27.799992325282332,83.5966975146001,-23.372573852539062,-88.98995293511284,-39.062296549479164,-0.16324487062964108,-0.0,-0.10036581813698948,0.2550506591796875,-0.0,-0.13570149739583334,0.934,0.1215,8.9025,0.1784,-0.00161,-0.02129,0.001,0.001,0.001,0.0005,0.0005,0.0005,0.01,0.01,0.01,passive,-1
0.1807,excitation,multi_sine,41.32107232115186,-666.6375191009769,296.03891092964136,-177.3928722612629,0.13492172632310193,-149.96246463594636,-2.5196,-0.0591,1.7955,-51.6597,-0.6135,56.1106,81.01848640064202,27.799394059889387,83.59366539681312,-23.36591084798177,-88.98991054958768,-39.067111545138886,-0.2176666259765625,-0.05441495687654703,-0.21762583515431622,0.4169548882378472,-0.0,-0.339262220594618,1.0485,0.0641,8.2263,0.18066,-0.00643,-0.02036,0.001,0.001,0.001,0.0005,0.0005,0.0005,0.01,0.01,0.01,passive,-1
0.2011,excitation,multi_sine,41.253595548582524,-666.641410438252,296.089673464365,-177.39518986147272,0.13664250951507356,-149.96029340485768,-3.6507,-0.0896,3.0822,-65.0882,-0.1741,71.1392,81.01263971612005,27.797252541721456,83.58723404383895,-23.354212443033855,-88.98980034722221,-39.075003729926216,-0.2720815828531095,-0.10882991375309406,-0.32988897644647275,0.5967458089192709,-0.0,-0.4071129692925347,1.077,-0.0208,8.5144,0.17604,-0.0187,-0.02588,0.001,0.001,0.001,0.0005,0.0005,0.0005,0.01,0.01,0.01,passive,-1
0.2207,excitation,multi_sine,41.18618508020268,-666.6432300031292,296.15050728543383,-177.39618673023926,0.13728526320386278,-149.95904660844687,-5.0652,-0.1019,4.6732,-74.2367,0.3072,79.0104,81.00677943465733,27.79415243923074,83.581224196028,-23.343709309895832,-88.9897240532769,-39.08199734157986,-0.435333251953125,-0.2720815828531095,-0.3899398652633818,0.7156880696614584,-0.0,-0.4749637179904514,1.1591,0.0085,8.7269,0.18365,-0.00097,-0.03271,0.001,0.001,0.001,0.0005,0.0005,0.0005,0.01,0.01,0.01,passive,-1
0.241,excitation,multi_sine,41.04897789285994,-666.6428910857356,296.2841054807233,-177.39711392726016,0.1378312034078341,-149.95748654170637,-7.0847,-0.0788,6.7447,-81.1734,0.774,80.8336,80.99478693291692,27.78668771875967,83.56964640098043,-23.323194715711804,-88.98949517144096,-39.09532335069444,-0.544163165706219,-0.3809114966062036,-0.5769997776144802,0.9467315673828125,-0.06785074869791667,-0.678524441189236,1.1103,0.136,8.2511,0.18536,-0.00948,-0.02186,0.001,0.001,0.001,0.0005,0.0005,0.0005,0.01,0.01,0.01,passive,-1
0.2611,excitation,multi_sine,40.92865217092421,-666.6440147011518,296.402386112904,-177.39730380619812,0.13784536059417035,-149.95674755093,-8.7143,-0.0587,8.3812,-90.9254,1.4158,82.0469,80.98429009465887,27.780181582611387,83.55952347859298,-23.306070963541668,-88.98928324381511,-39.10636901855469,-0.7074148348062346,-0.435333251953125,-0.7238331407603651,1.1764017740885417,-0.0,-0.8142344156901041,1.1464,0.1582,9.0571,0.18382,-0.01033,-0.0322,0.001,0.001,0.001,0.0005,0.0005,0.0005,0.01,0.01,0.01,passive,-1
0.2811,excitation,multi_sine,40.68585071463316,-666.6482910364521,296.6308805020813,-177.39624494975777,0.13682953229692377,-149.9573190439874,-10.5932,-0.0158,9.9777,-98.8179,2.1116,79.3481,80.96314005332418,27.76760441241878,83.54063052942257,-23.275443183051216,-88.98881700303819,-39.12660386827257,-0.979496417659344,-0.6529998779296875,-0.8771658415841584,1.3875325520833333,-0.0,-0.8820851643880208,1.1742,0.2167,9.4833,0.18762,-0.01649,-0.02996,0.001,0.001,0.001,0.0005,0.0005,0.0005,0.01,0.01,0.01,passive,-1
0.3009,excitation,multi_sine,40.49251268454418,-666.6485284903567,296.8143008369969,-177.39513593459108,0.1357732014815596,-149.9576472579209,-12.3078,0.0331,11.2159,-102.7339,2.3123,72.7303,80.94625945138459,27.757087178749615,83.52626536152151,-23.251588609483505,-88.98846096462674,-39.14288838704427,-1.1427480867593596,-0.7074148348062346,-0.9007157429610149,1.501371595594618,-0.0,-1.153496636284722,1.119,0.104,8.8681,0.20198,-0.00684,-0.02667,0.001,0.001,0.001,0.0005,0.0005,0.0005,0.01,0.01,0.01,passive,-1
0.3209,excitation,multi_sine,40.15305710279269,-666.6434230675101,297.1214313863225,-177.3934844549444,0.1343535467945639,-149.9582915488151,-14.2122,0.0665,12.3757,-107.5995,1.9832,67.2182,80.91652294196705,27.73872451026841,83.50326613624497,-23.21152581108941,-88.9876725938585,-39.17152404785156,-1.360414712735922,-0.8162515470297029,-1.050084935556544,1.760957505967882,-0.0,-1.2892066107855902,1.0395,0.0727,9.1771,0.18375,-0.00416,-0.0221,0.001,0.001,0.001,0.0005,0.0005,0.0005,0.01,0.01,0.01,passive,-1
0.3411,excitation,multi_sine,39.88717479993499,-666.6432816710095,297.34324515129657,-177.39253107082374,0.13365815592891175,-149.9590919788924,-16.862,0.115,14.0198,-118.1918,1.5314,67.7163,80.89327217328666,27.725834610438582,83.48590964137918,-23.181779649522568,-88.98695203993056,-39.19363233778212,-1.5236663818359375,-0.8162515470297029,-1.101950466042698,1.8573760986328125,0.06785074869791667,-1.4249081081814237,1.1214,0.1202,8.8465,0.19291,-0.01116,-0.02781,0.001,0.001,0.001,0.0005,0.0005,0.0005,0.01,0.01,0.01,passive,-1
0.3608,excitation,multi_sine,39.6050222298371,-666.6430519091722,297.57700209290294,-177.39178206985278,0.13315475958233086,-149.95847012040716,-19.3834,0.1608,15.4318,-128.6529,0.8774,69.9729,80.87503867574257,27.715779672754874,83.4719999709932,-23.15808614095052,-88.98632473415799,-39.2120361328125,-1.5236663818359375,-0.87066650390625,-1.1880326979231126,2.0129818386501737,0.06785074869791667,-1.6284688313802083,1.1125,0.0689,8.8375,0.1824,-0.00508,-0.0236,0.001,0.001,0.001,0.0005,0.0005,0.0005,0.01,0.01,0.01,passive,-1
0.3808,excitation,multi_sine,39.11216016987705,-666.6352905762662,297.9503381945285,-177.39152010700525,0.13321100957046197,-149.95920628138765,-21.5999,0.1587,16.5252,-133.1277,-0.0065,69.348,80.82536905118735,27.689625957224628,83.43906138202932,-23.097737630208332,-88.98464626736111,-39.260448879665795,-1.8501697200359684,-0.979496417659344,-1.2541886131362159,2.3161824544270835,0.06785074869791667,-1.8998803032769096,1.0666,-0.0326,9.2397,0.1877,-0.00536,-0.02409,0.001,0.001,0.001,0.0005,0.0005,0.0005,0.01,0.01,0.01,passive,-1
0.4011,excitation,multi_sine,38.7574681306051,-666.6349097065066,298.22468731618403,-177.39065700803312,0.13266657694838097,-149.9585880320814,-24.1786,0.1323,17.8179,-125.7966,-0.7643,61.7255,80.79434083239867,27.673656350315206,83.41744904470916,-23.060209486219616,-88.98357815212674,-39.29166158040365,-2.122251302889078,-1.0339181730062654,-1.3670092289990718,2.414830525716146,0.06785074869791667,-2.103441026475694,1.0765,-0.1075,9.384,0.194,-0.02559,-0.02769,0.001,0.001,0.001,0.0005,0.0005,0.0005,0.01,0.01,0.01,passive,-1
0.4211,excitation,multi_sine,38.0676811187467,-666.6307483615001,298.72433178836997,-177.39037111840136,0.13258838000128675,-149.95746254312536,-27.2273,0.1173,19.4178,-108.3493,-1.3701,46.9938,80.73397721394454,27.644123795008895,83.37820827370822,-22.98984103732639,-88.98161146375868,-39.35234069824219,-2.3943328857421875,-1.1971630436359066,-1.461467176380724,2.5945621066623263,0.13570149739583334,-2.2391425238715277,1.0491,-0.0677,8.8031,0.19925,-0.02455,-0.02469,0.001,0.001,0.001,0.0005,0.0005,0.0005,0.01,0.01,0.01,passive,-1
0.4407,excitation,multi_sine,37.63249313276381,-666.6292247747236,299.0376119275969,-177.38917502073022,0.1315980417592472,-149.9572399657355,-29.3866,0.0892,20.3722,-89.9025,-1.6992,32.4261,80.6959329737295,27.625645552531328,83.35404650999767,-22.947591145833332,-88.980467054579,-39.39012315538194,-2.3943328857421875,-1.1427480867593596,-1.505874784866182,2.610651652018229,-0.0,-2.4427032470703125,1.1754,0.0378,8.6899,0.2174,-0.02242,-0.02311,0.001,0.001,0.001,0.0005,0.0005,0.0005,0.01,0.01,0.01,passive,-1
0.4611,excitation,multi_sine,36.9261681377894,-666.62750301807,299.5129435622233,-177.38846406066799,0.1310965962981361,-149.95768820280344,-31.5015,0.0392,21.0947,-74.984,-1.6114,20.1839,80.63419606425974,27.597663048470373,83.31674330305344,-22.88130866156684,-88.97855122884114,-39.45064968532986,-2.61199951171875,-1.1971630436359066,-1.5795226144318533,2.826385498046875,0.06785074869791667,-2.714114718967014,1.2192,0.1647,9.0994,0.21551,-0.02426,-0.02731,0.001,0.001,0.001,0.0005,0.0005,0.0005,0.01,0.01,0.01,passive,-1
0.4808,excitation,multi_sine,36.42078173428938,-666.6291025019482,299.8508368756157,-177.38728949206174,0.13015927727322224,-149.95801361304487,-32.2231,0.0048,21.024,-65.3439,-1.3418,11.0888,80.59007399153,27.57810384920328,83.29001851601176,-22.835193210177952,-88.97720336914062,-39.493916829427086,-2.7752511808187657,-1.1971630436359066,-1.653727918568224,2.9489559597439237,0.13570149739583334,-2.714114718967014,1.0773,0.0135,9.3686,0.19826,-0.01511,-0.02786,0.001,0.001,0.001,0.0005,0.0005,0.0005,0.01,0.01,0.01,passive,-1
0.5011,excitation,multi_sine,35.62256964200254,-666.6264154015156,300.35351953279525,-177.38716955665498,0.13010161609151258,-149.95881644607195,-32.3094,-0.0092,20.4503,-62.4278,-1.1676,6.4928,80.52032168548887,27.54844892143023,83.25036303831799,-22.76390923394097,-88.9750756157769,-39.56204732259115,-2.992917806795328,-1.1971630436359066,-1.7490832640392946,3.0414835611979165,0.06785074869791667,-2.985526190863715,1.167,0.0104,8.8936,0.22134,-0.01836,-0.02174,0.001,0.001,0.001,0.0005,0.0005,0.0005,0.01,0.01,0.01,passive,-1
0.5209,excitation,multi_sine,35.06642030936225,-666.6302952925771,300.6996183395237,-177.3865613612822,0.12967227242728557,-149.95924847174123,-33.7901,-0.0276,20.7029,-66.4928,-1.0055,7.3523,80.47180780089728,27.52876055122602,83.22213578932356,-22.715267605251736,-88.97355821397569,-39.609569973415795,-2.992917806795328,-1.251584798982828,-1.765623942460164,3.139512803819444,0.13570149739583334,-2.9176754421657987,0.8965,-0.1778,8.1644,0.18533,-0.01138,-0.02121,0.001,0.001,0.001,0.0005,0.0005,0.0005,0.01,0.01,0.01,passive,-1
0.5407,excitation,multi_sine,34.219323441489344,-666.6281753989658,301.2193184645295,-177.38712006879464,0.13015425765879776,-149.95731933614178,-35.6021,-0.0395,21.1498,-74.8412,-0.6715,12.9738,80.39779965240176,27.498507358060024,83.18015523476176,-22.639973958333332,-88.97122701009114,-39.684643215603295,-3.1017545190187965,-1.1971630436359066,-1.7782079111231435,3.2162306043836804,0.06785074869791667,-3.2569376627604165,0.8627,-0.0602,8.7422,0.19987,-0.01636,-0.02052,0.001,0.001,0.001,0.0005,0.0005,0.0005,0.01,0.01,0.01,passive,-1
0.5609,excitation,multi_sine,33.628696195752624,-666.6304459211788,301.56399766114333,-177.3879175439593,0.1309081567346393,-149.95618551764963,-37.3928,-0.0449,21.5766,-92.7936,-0.3194,24.8614,80.3462536500232,27.478927763381808,83.15130932496325,-22.58884006076389,-88.96954854329427,-39.736735026041664,-3.2650061881188117,-1.251584798982828,-1.7668748610090501,3.1440480550130205,0.06785074869791667,-3.324796888563368,1.0586,-0.0287,9.0373,0.21389,-0.02365,-0.02171,0.001,0.001,0.001,0.0005,0.0005,0.0005,0.01,0.01,0.01,passive,-1
0.5809,excitation,multi_sine,33.012140688901404,-666.6310134843998,301.9183898884252,-177.38841357150153,0.13131090110892762,-149.95563169410804,-39.7969,-0.0584,22.4148,-104.5146,-0.0073,34.2025,80.3061562717551,27.463773972917313,83.12958821211711,-22.550006442599827,-88.96830240885417,-39.77694193522135,-3.428251058748453,-1.305999755859375,-1.801132353225557,3.1800587972005205,0.06785074869791667,-3.324796888563368,0.8266,0.0361,9.6672,0.1849,-0.02109,-0.02437,0.001,0.001,0.001,0.0005,0.0005,0.0005,0.01,0.01,0.01,passive,-1
0.6006,excitation,multi_sine,32.04684477259357,-666.6305912416534,302.44755211908335,-177.38992964822233,0.13265552601654534,-149.95518088693365,-41.51,-0.0676,22.9218,-91.3032,0.4536,31.0546,80.2081835151899,27.42804801109994,83.07849770725363,-22.458216349283855,-88.96524217393663,-39.87430996365017,-3.5370877709719215,-1.1971630436359066,-1.8564175143100248,3.3546023898654513,0.13570149739583334,-3.596208360460069,0.8357,-0.1271,9.1319,0.18384,-0.02054,-0.02149,0.001,0.001,0.001,0.0005,0.0005,0.0005,0.01,0.01,0.01,passive,-1
0.6208,excitation,multi_sine,31.20006455973251,-666.6339897411017,302.9091325468012,-177.39005096690883,0.1327719750735049,-149.95633598810994,-42.8198,-0.0524,23.2403,-71.1616,1.0881,24.0397,80.1343589253945,27.401907892510444,83.0402155205755,-22.39139133029514,-88.9630126953125,-39.94621276855469,-3.5370877709719215,-1.360414712735922,-1.8776015479965966,3.26690673828125,0.13570149739583334,-3.9354705810546875,0.7458,0.0935,9.1572,0.21503,-0.02105,-0.01726,0.001,0.001,0.001,0.0005,0.0005,0.0005,0.01,0.01,0.01,passive,-1
0.641,excitation,multi_sine,30.168291535248624,-666.6340583291783,303.47244439008324,-177.38982911163757,0.13263911660079553,-149.95692813940718,-45.0387,-0.0188,24.1727,-57.1033,1.682,19.3907,80.04435397610806,27.369703538347,82.99414908531868,-22.310621473524304,-88.96024068196614,-40.03469679090712,-3.754754396948484,-1.305999755859375,-1.9110228283570545,3.3589002821180554,0.13570149739583334,-3.8676198323567705,0.8189,0.0997,9.1656,0.21597,-0.01551,-0.00972,0.001,0.001,0.001,0.0005,0.0005,0.0005,0.01,0.01,0.01,passive,-1
0.6607,excitation,multi_sine,29.46633870654087,-666.6351975458197,303.8441641493875,-177.38984373600042,0.13268233642163363,-149.95684582572468,-46.3628,0.02,24.7439,-38.8134,2.0387,11.5638,79.9831473473275,27.348669071008665,82.96331802217087,-22.256825764973957,-88.95834181043837,-40.095367431640625,-3.918006066048499,-1.360414712735922,-1.9133275098139697,3.3858998616536455,0.06785074869791667,-3.596208360460069,0.8633,-0.0916,8.3237,0.21436,-0.01672,-0.00986,0.001,0.001,0.001,0.0005,0.0005,0.0005,0.01,0.01,0.01,passive,-1
0.6809,excitation,multi_sine,28.385171309869733,-666.6351730083674,304.42335571478657,-177.38824680326883,0.13140118095554876,-149.95770466311242,-45.6115,0.0587,24.2267,-21.0135,1.9591,2.3793,79.88887295864596,27.315730482044785,82.91632699494315,-22.176055908203125,-88.95543416341145,-40.18785264756944,-3.9724210229250465,-1.4148296696124691,-1.9916662839379642,3.4000651041666665,0.13570149739583334,-4.071180555555555,0.6548,-0.1346,8.9007,0.19433,-0.01292,-0.01507,0.001,0.001,0.001,0.0005,0.0005,0.0005,0.01,0.01,0.01,passive,-1
0.7008,excitation,multi_sine,27.65668770276083,-666.6338179850999,304.8025731159831,-177.3881278616688,0.1312937385914841,-149.95717470826358,-45.6849,0.1098,24.1207,-11.2197,1.1988,-4.4662,79.82534125299738,27.29421332330987,82.88504043428024,-22.121429443359375,-88.95347595214844,-40.25128682454427,-3.918006066048499,-1.305999755859375,-1.9896539367071473,3.461617363823785,0.13570149739583334,-3.9354705810546875,0.579,-0.1774,8.5242,0.18221,-0.01947,-0.01513,0.001,0.001,0.001,0.0005,0.0005,0.0005,0.01,0.01,0.01,passive,-1
0.7208,excitation,multi_sine,26.548799931775864,-666.6270579186964,305.3855050090216,-177.38771278550556,0.13096850671699742,-149.9575228727352,-46.6882,0.1385,24.3978,-5.1568,-0.1542,-10.5726,79.72866700427367,27.26083283377166,82.83756671565594,-22.038116455078125,-88.95050896538628,-40.3466542561849,-3.8635911091719524,-1.360414712735922,-2.067176894386216,3.574642605251736,0.13570149739583334,-3.9354705810546875,0.6093,-0.1247,8.6448,0.2004,-0.02193,-0.01368,0.001,0.001,0.001,0.0005,0.0005,0.0005,0.01,0.01,0.01,passive,-1
0.741,excitation,multi_sine,25.801768588627013,-666.627363926341,305.77385990480906,-177.38765068589555,0.13088017563247545,-149.95808304417366,-46.6344,0.1271,24.1021,-6.8637,-1.6811,-12.827,79.66357844890935,27.239397256681233,82.80458733586981,-21.981803046332466,-88.94856770833333,-40.41053771972656,-4.244502605778156,-1.305999755859375,-2.0375151681427908,3.49228752983941,0.06785074869791667,-4.0033213297526045,0.5694,-0.2409,8.7433,0.1886,-0.00466,-0.01318,0.001,0.001,0.001,0.0005,0.0005,0.0005,0.01,0.01,0.01,passive,-1
0.7607,excitation,multi_sine,24.67252334833506,-666.6238152700809,306.3654564583638,-177.38710091108987,0.1304583268817668,-149.95847607693455,-46.3096,0.0858,23.5887,-16.8981,-2.8211,-8.2931,79.56512979941793,27.206485861598853,82.75496530060721,-21.896913316514755,-88.94554138183594,-40.5076175265842,-3.9724210229250465,-1.360414712735922,-2.108946696366414,3.610704210069444,0.20355224609375,-4.0033213297526045,0.5093,-0.1948,8.3469,0.18688,-0.01237,-0.0131,0.001,0.001,0.001,0.0005,0.0005,0.0005,0.01,0.01,0.01,passive,-1
0.781,excitation,multi_sine,23.91274965284,-666.6226605403481,306.7507690545619,-177.38718320730553,0.13056661994005495,-149.95891984956717,-46.841,0.0015,23.4367,-19.4165,-3.3548,-4.2718,79.49892629491221,27.185356215675277,82.72194512999884,-21.84058295355903,-88.94350687662761,-40.572730170355904,-4.190087648901609,-1.305999755859375,-2.142707900245591,3.529205322265625,0.06785074869791667,-4.274732801649305,0.3997,-0.2859,8.424,0.17553,-0.01233,-0.01479,0.001,0.001,0.001,0.0005,0.0005,0.0005,0.01,0.01,0.01,passive,-1
0.8009,excitation,multi_sine,22.744842383362926,-666.6216397235847,307.33045814231843,-177.3867620565768,0.13013202290493958,-149.9607122989061,-47.5489,-0.1027,23.491,-15.0939,-3.0421,-0.4341,79.39722117811147,27.15375012690478,82.67226870697324,-21.756786770290798,-88.94051445855034,-40.671683417426216,-4.353339318001624,-1.305999755859375,-2.0825278404915686,3.545803493923611,0.20355224609375,-4.206882052951388,0.3725,-0.2273,8.2286,0.1907,-0.01605,-0.00747,0.001,0.001,0.001,0.0005,0.0005,0.0005,0.01,0.01,0.01,passive,-1
0.8211,excitation,multi_sine,21.965493117038307,-666.6255759882671,307.7066030467264,-177.38706191671483,0.13038048633013347,-149.9622488453395,-47.9352,-0.1783,23.5334,-17.5742,-1.8539,9.2486,79.32944042847888,27.134048159759825,82.63848030921257,-21.70083787706163,-88.93850538465712,-40.73728773328993,-4.4077542748781715,-1.1971630436359066,-2.1127742351871905,3.58199225531684,0.13570149739583334,-4.0033213297526045,0.5757,-0.3318,8.1506,0.19512,-0.01038,-0.01104,0.001,0.001,0.001,0.0005,0.0005,0.0005,0.01,0.01,0.01,passive,-1
0.841,excitation,multi_sine,21.195959338699577,-666.6301214320192,308.0750613310633,-177.3878137525938,0.13103675141642646,-149.96299269424551,-48.0077,-0.199,23.6611,-7.918,-0.2811,13.0779,79.26252988305423,27.115053233533803,82.60467831451113,-21.644973754882812,-88.93648783365886,-40.802815755208336,-4.026835979801594,-1.251584798982828,-2.0840574963258045,3.4940422905815973,0.13570149739583334,-4.274732801649305,0.5535,-0.2843,8.1267,0.19556,-0.00732,-0.00749,0.001,0.001,0.001,0.0005,0.0005,0.0005,0.01,0.01,0.01,passive,-1
0.8611,excitation,multi_sine,19.859653976894872,-666.6353844630917,308.7355263465816,-177.38879243405648,0.1319519282512943,-149.96413563177535,-48.1426,-0.1663,24.0937,20.8052,1.3352,7.4892,79.14631683047455,27.081122067895265,82.54412433888652,-21.545545789930554,-88.93295288085938,-40.916748046875,-4.244502605778156,-1.1427480867593596,-2.206538738590656,3.5834587944878473,0.13570149739583334,-4.274732801649305,0.4817,-0.3518,8.4573,0.18872,-0.01074,-0.00806,0.001,0.001,0.001,0.0005,0.0005,0.0005,0.01,0.01,0.01,passive,-1
0.8806,excitation,multi_sine,19.099379288500813,-666.640954007749,309.1154277039237,-177.38920934285292,0.13220740144073231,-149.9645589661669,-47.4859,-0.1054,24.2942,45.5571,2.415,1.639,79.08027648925781,27.06215433555074,82.50854794341738,-21.488460964626736,-88.93105400933159,-40.98171657986111,-4.135672692025062,-1.1971630436359066,-2.197170446414759,3.508928087022569,0.13570149739583334,-4.139031304253472,0.4547,-0.1942,8.3766,0.19242,-0.01072,-0.00462,0.001,0.001,0.001,0.0005,0.0005,0.0005,0.01,0.01,0.01,passive,-1
0.9008,excitation,multi_sine,17.994741720740326,-666.6432268855913,309.69806991056885,-177.3887166155173,0.13172213825542567,-149.96369254416285,-47.2883,-0.035,24.8335,62.4936,2.6324,-2.2018,78.98422769980856,27.032567392481436,82.45533631579711,-21.403308444552952,-88.92818027072482,-41.077660454644096,-3.9724210229250465,-1.251584798982828,-2.193104961130879,3.5434977213541665,0.13570149739583334,-4.0033213297526045,0.5158,-0.424,7.9855,0.19255,-0.02268,-0.00984,0.001,0.001,0.001,0.0005,0.0005,0.0005,0.01,0.01,0.01,passive,-1
0.9206,excitation,multi_sine,17.28819911123345,-666.6409382585852,310.0784638151636,-177.3889248991951,0.13196345485018485,-149.96181172021932,-45.5847,0.0259,24.4748,72.9352,2.0242,-4.8232,78.92272193833153,27.013089774858834,82.42058933371365,-21.34677463107639,-88.92623053656683,-41.14039950900607,-3.918006066048499,-1.1971630436359066,-2.1584327622215347,3.62884521484375,0.13570149739583334,-4.0033213297526045,0.4975,-0.5591,7.3857,0.19105,-0.01506,-0.00428,0.001,0.001,0.001,0.0005,0.0005,0.0005,0.01,0.01,0.01,passive,-1
0.9412,excitation,multi_sine,16.242884328957505,-666.634888268933,310.65438080636886,-177.38911077586462,0.13212449708322496,-149.95938172091027,-42.1475,0.0541,23.3874,76.719,1.1081,-4.2563,78.83171081542969,26.983577614963643,82.36814593324567,-21.26163058810764,-88.92343309190538,-41.23286777072482,-3.9724210229250465,-1.251584798982828,-2.242570631574876,3.560477362738715,0.06785074869791667,-3.7319098578559027,0.3337,-0.4857,7.8953,0.18702,-0.00484,-0.00567,0.001,0.001,0.001,0.0005,0.0005,0.0005,0.01,0.01,0.01,passive,-1
0.961,excitation,multi_sine,15.547428541304638,-666.6333016944626,311.045776608222,-177.38902659708472,0.13204194140325085,-149.9595147231654,-41.0328,0.0598,23.4952,75.5456,0.5135,-1.2472,78.77122482450882,26.964032012637297,82.33184889991685,-21.204003228081596,-88.92164442274306,-41.29256354437934,-3.809169353825031,-1.1971630436359066,-2.2269409481841738,3.627285427517361,0.06785074869791667,-3.7319098578559027,0.1179,-0.4952,8.1516,0.16257,-0.00267,-0.00991,0.001,0.001,0.001,0.0005,0.0005,0.0005,0.01,0.01,0.01,passive,-1
0.9809,excitation,multi_sine,14.516122883965089,-666.6357738287609,311.6268182952805,-177.38956773175065,0.13248460109907798,-149.96008606943187,-40.1967,0.0437,23.819,72.3188,0.1606,2.3018,78.68163458191522,26.936029113165223,82.27608784590618,-21.11673143174913,-88.91903347439236,-41.3805898030599,-3.5915027278484684,-1.1427480867593596,-2.3183871731899752,3.705435858832465,0.13570149739583334,-3.528349134657118,0.3483,-0.4996,8.3266,0.17098,0.00058,-0.00934,0.001,0.001,0.001,0.0005,0.0005,0.0005,0.01,0.01,0.01,passive,-1
1.0006,excitation,multi_sine,13.85850468802288,-666.6355085723624,312.02617973183465,-177.38918981687138,0.1321360791683746,-149.96086661577144,-39.0662,0.0196,24.0285,60.5602,-0.0435,9.4081,78.62448663994817,26.91670106189086,82.23830874603574,-21.058358086480034,-88.91738891601562,-41.43629286024306,-3.482672814095374,-1.1971630436359066,-2.4200990884610922,3.55332268608941,0.13570149739583334,-3.4604983859592013,0.4364,-0.4538,8.3264,0.18441,-0.02115,-0.00923,0.001,0.001,0.001,0.0005,0.0005,0.0005,0.01,0.01,0.01,passive,-1
1.021,excitation,multi_sine,13.229008647634831,-666.6364627576546,312.42526347906386,-177.38871642497682,0.1317753301384428,-149.96132169696625,-37.9014,0.0188,24.2803,53.1979,-0.1321,11.2195,78.56979974425666,26.897733329546334,82.20007414865022,-21.000035603841145,-88.91576131184895,-41.489859686957466,-3.2105844327718907,-1.1971630436359066,-2.3579134799466273,3.6068047417534723,0.13570149739583334,-3.324796888563368,0.3661,-0.5005,7.7417,0.19652,-0.02268,-0.00705,0.001,0.001,0.001,0.0005,0.0005,0.0005,0.01,0.01,0.01,passive,-1
1.0408,excitation,multi_sine,12.32277338045069,-666.6366992056635,313.025539093064,-177.3874739772711,0.1307751873883427,-149.96138860668526,-37.0788,0.0506,24.6902,69.5998,-0.2757,-1.5553,78.49105986038057,26.86928173102955,82.14274264798306,-20.91335720486111,-88.91339619954427,-41.56754387749566,-3.1017545190187965,-1.1971630436359066,-2.3218339976697866,3.4739091661241317,0.06785074869791667,-3.2569376627604165,0.2345,-0.6316,8.1088,0.1664,-0.01078,-0.00831,0.001,0.001,0.001,0.0005,0.0005,0.0005,0.01,0.01,0.01,passive,-1
1.0606,excitation,multi_sine,11.748185869179792,-666.6339162921506,313.41873791909484,-177.38699890431474,0.13036679903253484,-149.96166803200265,-34.9319,0.069,24.1738,94.5137,-0.5847,-21.5634,78.44109790159924,26.850504355855506,82.10529667316096,-20.856187608506943,-88.91194661458333,-41.616575453016495,-2.992917806795328,-1.1427480867593596,-2.373094464292621,3.5206095377604165,0.06785074869791667,-3.121236165364583,0.3578,-0.5675,8.4286,0.17632,-0.01484,-0.01413,0.001,0.001,0.001,0.0005,0.0005,0.0005,0.01,0.01,0.01,passive,-1
1.0809,excitation,multi_sine,10.807028562170789,-666.6317821950674,314.0694220463397,-177.38743322265978,0.1306847663747351,-149.96198354774654,-33.3433,0.041,23.97,118.3052,-1.0737,-42.1864,78.35932589993618,26.820237565748762,82.04154061799002,-20.759048461914062,-88.90964931911893,-41.696929931640625,-2.938502849918781,-1.0339181730062654,-2.2472343822517016,3.346133761935764,0.06785074869791667,-2.714114718967014,0.3355,-0.4983,8.7217,0.17573,-0.00516,-0.01065,0.001,0.001,0.001,0.0005,0.0005,0.0005,0.01,0.01,0.01,passive,-1
1.1008,excitation,multi_sine,10.312901059813955,-666.629029629078,314.4278057240128,-177.38765480361863,0.13085266522283562,-149.96161257862107,-31.2969,0.0047,23.1184,136.3044,-1.5455,-58.9112,78.31636636564048,26.803533724038907,82.0065148986212,-20.705668131510418,-88.90842861599393,-41.739654541015625,-2.503169597965656,-0.979496417659344,-2.216743242622602,3.2252078586154513,0.06785074869791667,-2.5784132215711804,0.316,-0.611,8.417,0.16878,-0.01224,-0.01455,0.001,0.001,0.001,0.0005,0.0005,0.0005,0.01,0.01,0.01,passive,-1
1.121,excitation,multi_sine,9.641291971574885,-666.6288067349128,314.93755643349124,-177.38835152684626,0.13142985428221612,-149.96086982120076,-27.3587,-0.0392,21.0598,148.6716,-1.6447,-72.7946,78.25804228829865,26.780534498762375,81.95537000599474,-20.628746880425346,-88.90678405761719,-41.797849867078995,-2.2310880151125465,-0.9250814607827971,-2.0825890267249383,3.111784193250868,-0.0,-2.171291775173611,0.3052,-0.5679,8.3137,0.16712,-0.01201,-0.00905,0.001,0.001,0.001,0.0005,0.0005,0.0005,0.01,0.01,0.01,passive,-1
1.1409,excitation,multi_sine,9.23701964965626,-666.632128120916,315.2581315881255,-177.38863100578033,0.13173128050070942,-149.9602526625249,-24.2909,-0.084,19.5148,152.668,-1.1368,-81.46,78.22298937504834,26.766618029906017,81.92243141703086,-20.580351087782116,-88.90574137369792,-41.832970513237846,-2.067836346012531,-0.8162515470297029,-1.9740854395498144,3.0089569091796875,-0.0,-2.103441026475694,0.4836,-0.4239,8.8119,0.18188,-0.01338,-0.01118,0.001,0.001,0.001,0.0005,0.0005,0.0005,0.01,0.01,0.01,passive,-1
1.1608,excitation,multi_sine,8.69091032618942,-666.6373273352016,315.7170268195647,-177.38834919033303,0.1314978369630292,-149.9600394528891,-20.7363,-0.1118,17.5366,150.0431,-0.2174,-85.7983,78.17566522277228,26.746786891823948,81.875528769918,-20.512474907769096,-88.90440199110243,-41.87973870171441,-1.7413330078125,-0.7618297916827815,-1.8936527365505105,2.7508968777126737,0.06785074869791667,-1.832029554578993,0.6165,-0.4569,8.0455,0.17929,-0.01684,-0.00959,0.001,0.001,0.001,0.0005,0.0005,0.0005,0.01,0.01,0.01,passive,-1
1.181,excitation,multi_sine,8.359386585198667,-666.63856149629,316.0038154703491,-177.38792510992477,0.1310975177008272,-149.96097065040615,-18.1039,-0.1098,16.1232,145.7199,0.6652,-87.6433,78.14691449155902,26.734155333868348,81.84674404635288,-20.47075907389323,-88.90364752875433,-41.90708584255642,-1.686918050935953,-0.7618297916827815,-1.7104203630201886,2.474695841471354,0.06785074869791667,-1.6284688313802083,0.3747,-0.4479,8.0789,0.1745,-0.01024,-0.01033,0.001,0.001,0.001,0.0005,0.0005,0.0005,0.01,0.01,0.01,passive,-1
1.2006,excitation,multi_sine,8.06691151162754,-666.6391943906013,316.2688061705391,-177.3876711793847,0.13086587626217908,-149.96233722403164,-15.8336,-0.0657,14.6973,135.1563,1.2889,-84.9988,78.12154260012183,26.72250275564666,81.82007364707418,-20.432018703884548,-88.90299479166667,-41.93065219455295,-1.5236663818359375,-0.7074148348062346,-1.5650078801825495,2.3105621337890625,-0.0,-1.357057359483507,0.392,-0.5506,7.8128,0.17388,-0.00562,-0.01275,0.001,0.001,0.001,0.0005,0.0005,0.0005,0.01,0.01,0.01,passive,-1
1.2209,excitation,multi_sine,7.696098269738292,-666.6409255349027,316.6129348490466,-177.3878055373329,0.13104106045156352,-149.96432653748465,-13.1876,-0.0087,12.8445,130.6087,1.5644,-87.2611,78.08938583525101,26.707648097878636,81.78478958583113,-20.380706787109375,-88.90213860405815,-41.96023729112413,-1.0883331298828125,-0.544163165706219,-1.2867260923480044,1.9756062825520833,0.06785074869791667,-1.153496636284722,0.5113,-0.5263,8.5134,0.17789,-0.0121,-0.01121,0.001,0.001,0.001,0.0005,0.0005,0.0005,0.01,0.01,0.01,passive,-1
1.2408,excitation,multi_sine,7.50707423308985,-666.6392940078987,316.8111125831206,-177.38812399062397,0.13128597090328126,-149.964399028088,-10.7305,0.0237,11.1324,130.9667,1.2469,-92.5619,78.07294713388575,26.698850877214188,81.76476809057858,-20.350969102647568,-88.9017317030165,-41.97626749674479,-0.9250814607827971,-0.489748208829672,-1.2016772279644956,1.7306179470486112,-0.0,-0.8820851643880208,0.5177,-0.5376,8.0675,0.17451,-0.00772,-0.01357,0.001,0.001,0.001,0.0005,0.0005,0.0005,0.01,0.01,0.01,passive,-1
1.261,excitation,multi_sine,7.275798418450582,-666.6405389350111,317.06413373035053,-177.38757828792194,0.13087635555937585,-149.9654647299613,-7.8806,0.033,9.1656,128.871,0.5396,-95.3735,78.05288484781096,26.687925735322555,81.73917184961904,-20.314526028103298,-88.9011722140842,-41.994849310980904,-0.6529998779296875,-0.435333251953125,-0.8848413146368348,1.3255479600694444,0.06785074869791667,-0.6106736924913194,0.507,-0.5654,7.8669,0.17095,-0.01037,-0.01156,0.001,0.001,0.001,0.0005,0.0005,0.0005,0.01,0.01,0.01,passive,-1
1.2814,excitation,multi_sine,7.166118339407967,-666.6364752580583,317.1940215781587,-177.387737131714,0.13102938266054137,-149.96590280194587,-5.3348,0.0372,7.3501,128.7591,-0.0732,-97.8058,78.04328540764233,26.68180031351524,81.72664906718943,-20.295367770724827,-88.90092637803819,-42.003792656792534,-0.489748208829672,-0.3809114966062036,-0.7293127078821163,1.075685289171007,-0.0,-0.4749637179904514,0.3842,-0.6196,7.3588,0.15816,-0.00378,-0.01151,0.001,0.001,0.001,0.0005,0.0005,0.0005,0.01,0.01,0.01,passive,-1
1.3011,excitation,multi_sine,7.06444789422659,-666.6366742934076,317.34424082560344,-177.38734631302918,0.13067734599058697,-149.96582017947978,-2.2831,0.0348,5.0545,123.0635,-0.1739,-95.3805,78.03445419462601,26.675294177366954,81.71155646295831,-20.27401394314236,-88.9007059733073,-42.01246473524306,-0.2176666259765625,-0.2720815828531095,-0.5178598838277383,0.7115342881944444,-0.0,-0.20355224609375,0.4279,-0.5693,8.1103,0.15414,-0.01361,-0.01663,0.001,0.001,0.001,0.0005,0.0005,0.0005,0.01,0.01,0.01,passive,-1
1.3206,excitation,multi_sine,7.037810276355096,-666.6375287630582,317.4110176195764,-177.38726508873188,0.13063176786978964,-149.96518138836495,-0.0927,0.0027,3.182,108.139,0.1928,-86.3956,78.03214271469872,26.672547595335704,81.70458123235419,-20.264290703667534,-88.90062120225694,-42.01530456542969,-0.10882991375309406,-0.16324487062964108,-0.36169901932820236,0.5078209771050347,-0.0,-0.13570149739583334,0.5957,-0.4974,8.5116,0.16425,-0.02312,-0.01891,0.001,0.001,0.001,0.0005,0.0005,0.0005,0.01,0.01,0.01,passive,-1
1.3408,excitation,multi_sine,7.1014765861451,-666.6377311240761,317.465206425844,-177.3877919316178,0.13115638943684746,-149.9592146273444,1.747,-0.0135,1.5872,90.8348,0.6254,-75.4687,78.03760868487971,26.670480860341893,81.69840142278387,-20.25528801812066,-88.90059577094183,-42.01570298936632,0.2720815828531095,0.05441495687654703,-0.13318883310450186,0.17064412434895834,0.06785074869791667,-0.0,0.4981,-0.5352,7.6278,0.14955,-0.00804,-0.0178,0.001,0.001,0.001,0.0005,0.0005,0.0005,0.01,0.01,0.01,passive,-1
1.3608,excitation,multi_sine,7.155805372417626,-666.6356659695535,317.4556265012967,-177.38913191764908,0.13237830421181165,-149.95569544626875,3.4403,0.018,0.2623,79.0036,0.9529,-66.7225,78.04225204014541,26.670936357856977,81.69868016006923,-20.25424533420139,-88.90062120225694,-42.014567057291664,0.2720815828531095,0.05441495687654703,0.08844809957069925,0.0091552734375,-0.0,0.20355224609375,0.6556,-0.5275,8.4882,0.16805,-0.01489,-0.01824,0.001,0.001,0.001,0.0005,0.0005,0.0005,0.01,0.01,0.01,passive,-1
1.3807,excitation,multi_sine,7.25941473715755,-666.6367790541518,317.4382774943962,-177.38936501030793,0.13282039511103916,-149.95434864720855,4.8638,0.073,-0.9031,71.0774,1.1568,-59.151,78.05121242409885,26.67199691923538,81.69986989238474,-20.256271362304688,-88.90068901909721,-42.00697157118056,0.3809114966062036,0.05441495687654703,0.07904581504293007,-0.2037811279296875,-0.0,0.5428229437934028,0.6603,-0.4654,7.9414,0.18854,-0.01462,-0.01085,0.001,0.001,0.001,0.0005,0.0005,0.0005,0.01,0.01,0.01,passive,-1
1.4009,excitation,multi_sine,7.335729164616335,-666.6373513988648,317.425496885851,-177.38777505339465,0.13160548436745992,-149.95675366211546,6.1225,0.1206,-1.9504,72.3196,1.0819,-57.1939,78.05782733577313,26.672411625928216,81.70218137231204,-20.261281331380207,-88.9008076985677,-41.99800279405382,0.435333251953125,-0.0,0.18511554982402537,-0.4180145263671875,-0.06785074869791667,0.6106736924913194,0.5442,-0.4824,8.1371,0.17745,-0.00162,-0.01366,0.001,0.001,0.001,0.0005,0.0005,0.0005,0.01,0.01,0.01,passive,-1
1.4206,excitation,multi_sine,7.4297401030546,-666.6365710582454,317.4004510788528,-177.3855833341725,0.12989551383318118,-149.95949647746752,7.2145,0.1197,-2.8722,76.5642,0.3997,-57.2512,78.06595150787051,26.673077876024905,81.70646440864789,-20.269351535373264,-88.90094333224826,-41.987219916449654,0.5985781225827661,0.10882991375309406,0.3458925757077661,-0.6059434678819444,-0.06785074869791667,0.678524441189236,0.5583,-0.3668,7.5227,0.18533,0.00134,-0.01188,0.001,0.001,0.001,0.0005,0.0005,0.0005,0.01,0.01,0.01,passive,-1
1.4411,excitation,multi_sine,7.634505731570349,-666.6280390781321,317.31788704948826,-177.38418414437652,0.1289405934380961,-149.96112211031925,8.9516,0.1049,-4.1164,77.9569,-0.8519,-54.9907,78.08352555378829,26.675443743715192,81.71750512453589,-20.285051133897568,-88.90129089355469,-41.9681888156467,0.87066650390625,0.16324487062964108,0.5276156888149752,-0.7332611083984375,-0.06785074869791667,0.8820851643880208,0.6073,-0.4378,7.821,0.18148,-0.01746,-0.00816,0.001,0.001,0.001,0.0005,0.0005,0.0005,0.01,0.01,0.01,passive,-1
1.4607,excitation,multi_sine,7.803665609445882,-666.6232901289603,317.23729999000847,-177.3840858340881,0.1290275031012978,-149.96122718022036,10.7278,0.0955,-5.2852,78.2672,-1.6902,-50.159,78.09808787733022,26.678428272209544,81.72660827636719,-20.297622680664062,-88.90159606933594,-41.95365905761719,0.87066650390625,0.2176666259765625,0.6037449600672958,-0.8342742919921875,-0.0,0.9499359130859375,0.7469,-0.4312,7.934,0.18984,-0.02323,-0.01528,0.001,0.001,0.001,0.0005,0.0005,0.0005,0.01,0.01,0.01,passive,-1
1.4811,excitation,multi_sine,8.072919405270719,-666.6238478822528,317.0988202347788,-177.38365578338448,0.12878543355515834,-149.96225076376078,12.5609,0.0576,-6.5243,75.3712,-1.7422,-40.9523,78.1214406230662,26.684635275661353,81.74071510239403,-20.31919691297743,-88.90221489800346,-41.929524739583336,1.0339181730062654,0.32649653972965653,0.5985781225827661,-0.9184349907769097,-0.06785074869791667,1.0856458875868056,0.6093,-0.5182,7.5624,0.17405,-0.00707,-0.01272,0.001,0.001,0.001,0.0005,0.0005,0.0005,0.01,0.01,0.01,passive,-1
1.5007,excitation,multi_sine,8.273666553558625,-666.6266089999742,316.9958540617848,-177.38353042718722,0.12866005558606722,-149.962358853052,14.2047,-0.0049,-7.3878,67.3769,-1.2608,-28.6761,78.138905893458,26.68960495750503,81.75057968290726,-20.334769354926216,-88.90274895562065,-41.912129720052086,1.1427480867593596,0.3809114966062036,0.6424486519086479,-0.9852684868706597,-0.06785074869791667,1.153496636284722,0.5702,-0.5256,7.4714,0.15773,0.00177,-0.01348,0.001,0.001,0.001,0.0005,0.0005,0.0005,0.01,0.01,0.01,passive,-1
1.5206,excitation,multi_sine,8.658366500810649,-666.6281209641816,316.7834647335991,-177.3851190316728,0.1299475570206564,-149.96277977210627,14.9725,-0.0625,-7.568,49.4069,-0.7017,-11.8864,78.17232037534808,26.69963270130724,81.77040402251895,-20.363659328884548,-88.9038594563802,-41.87862820095486,1.305999755859375,0.3809114966062036,0.7615782482789295,-1.0616980658637152,-0.06785074869791667,1.2892066107855902,0.6014,-0.4892,7.5011,0.17131,-0.01864,-0.01375,0.001,0.001,0.001,0.0005,0.0005,0.0005,0.01,0.01,0.01,passive,-1
1.5407,excitation,multi_sine,8.902743727554256,-666.6268632352509,316.65530592841066,-177.38635608815272,0.13089659046973898,-149.96234558214556,15.783,-0.0608,-7.5641,28.6354,-0.2603,3.0994,78.19351120750503,26.70548618429958,81.78256648601872,-20.380783081054688,-88.90459696451823,-41.85807122124566,1.305999755859375,0.3809114966062036,0.7531753388961943,-1.0859849717881944,-0.06785074869791667,1.2892066107855902,0.7389,-0.4859,8.0174,0.17234,-0.02474,-0.0197,0.001,0.001,0.001,0.0005,0.0005,0.0005,0.01,0.01,0.01,passive,-1
1.5606,excitation,multi_sine,9.286580772746012,-666.6288661131289,316.4792037912408,-177.3869771893194,0.13116464474267212,-149.9610735770418,16.5006,-0.0084,-7.4448,13.8272,0.1528,10.5282,78.22687130163212,26.71392308603419,81.79922953690632,-20.406265258789062,-88.90577528211806,-41.82628207736545,1.305999755859375,0.32649653972965653,0.6969315934889387,-1.0623423258463542,-0.06785074869791667,1.357057359483507,0.6918,-0.4323,8.0303,0.17408,-0.01797,-0.01701,0.001,0.001,0.001,0.0005,0.0005,0.0005,0.01,0.01,0.01,passive,-1
1.581,excitation,multi_sine,9.541095283422594,-666.6305949184435,316.371498326766,-177.38686969043238,0.13093203575358484,-149.9613473364433,16.5175,0.022,-7.0317,5.2846,0.3395,10.0584,78.24900032270072,26.719110318929843,81.80963119657913,-20.422804090711804,-88.90655517578125,-41.80407206217448,1.360414712735922,0.2720815828531095,0.6600634886486696,-1.0287306043836806,-0.0,1.357057359483507,0.6174,-0.5321,7.5975,0.17067,-0.01493,-0.01742,0.001,0.001,0.001,0.0005,0.0005,0.0005,0.01,0.01,0.01,passive,-1
1.6008,excitation,multi_sine,9.945094667956837,-666.6290441079913,316.2153260858117,-177.38665840587478,0.13057202764611095,-149.96092328506808,16.3633,0.0091,-6.6911,1.8379,0.1818,3.6092,78.28403963901029,26.7261807281192,81.82546483408106,-20.44720967610677,-88.90773349338107,-41.76973978678385,1.4148296696124691,0.32649653972965653,0.6748977510055693,-1.0307142469618056,-0.0,1.4927588568793402,0.6528,-0.534,7.8782,0.18869,-0.00617,-0.01342,0.001,0.001,0.001,0.0005,0.0005,0.0005,0.01,0.01,0.01,passive,-1
1.6209,excitation,multi_sine,10.2118541069618,-666.6266060404052,316.10924214901064,-177.38651671918237,0.13035663725875887,-149.96132950665728,15.968,-0.0102,-6.5475,1.7618,-0.2217,-5.5985,78.30715443828318,26.730810486444152,81.83648515455793,-20.463858710394966,-88.90851338704427,-41.746410793728295,1.5236663818359375,0.2720815828531095,0.7097195162631498,-1.0866800944010417,-0.06785074869791667,1.4927588568793402,0.681,-0.3352,8.4506,0.17291,-0.01288,-0.01252,0.001,0.001,0.001,0.0005,0.0005,0.0005,0.01,0.01,0.01,passive,-1
1.6411,excitation,multi_sine,10.622709170349191,-666.6250580086639,315.9386739087154,-177.38688740986166,0.1305874208531035,-149.9617659091508,16.1889,-0.0181,-6.9998,5.2007,-0.5797,-15.4364,78.3427920199857,26.738683115137686,81.85322298861966,-20.489188300238716,-88.90968322753906,-41.71062893337673,1.4148296696124691,0.32649653972965653,0.7012010328840501,-1.0743628607855902,-0.0,1.4927588568793402,0.7115,-0.3569,8.547,0.17094,-0.01213,-0.01598,0.001,0.001,0.001,0.0005,0.0005,0.0005,0.01,0.01,0.01,passive,-1
1.6609,excitation,multi_sine,10.886468211799134,-666.6276062450122,315.8185557028017,-177.38690440521276,0.1306013228349162,-149.96310171263275,16.7311,-0.0416,-7.6616,11.0426,-0.418,-23.8734,78.36573685749923,26.744638575185643,81.86445406167815,-20.507125854492188,-88.91042073567708,-41.686553955078125,1.4692514249593904,0.3809114966062036,0.7161644661780631,-1.154539320203993,-0.06785074869791667,1.5606180826822915,0.6581,-0.4935,7.904,0.17433,-0.02342,-0.01109,0.001,0.001,0.001,0.0005,0.0005,0.0005,0.01,0.01,0.01,passive,-1
1.6808,excitation,multi_sine,11.162792614836443,-666.6311762374911,315.6907696478386,-177.3869027005883,0.13056971690064453,-149.96326615041176,16.8339,-0.0565,-8.1727,14.0693,0.124,-28.4799,78.38978984568378,26.751097122041305,81.87620861695544,-20.526131523980034,-88.91117519802518,-41.66255527072482,1.4692514249593904,0.435333251953125,0.7194005380762686,-1.231231689453125,-0.06785074869791667,1.6284688313802083,0.7244,-0.3658,8.142,0.18873,-0.00792,-0.01425,0.001,0.001,0.001,0.0005,0.0005,0.0005,0.01,0.01,0.01,passive,-1
1.7011,excitation,multi_sine,11.565427588885418,-666.6325480173966,315.478523871608,-177.38776096514658,0.13127709546851646,-149.96448725102994,16.9954,-0.0372,-8.6597,11.0038,0.4056,-28.4187,78.42478157270072,26.761308424543625,81.89609414280051,-20.55626763237847,-88.9123026529948,-41.626688639322914,1.5236663818359375,0.435333251953125,0.8168770063041461,-1.2892405192057292,-0.06785074869791667,1.4249081081814237,0.6805,-0.3883,8.2014,0.17151,-0.01855,-0.01591,0.001,0.001,0.001,0.0005,0.0005,0.0005,0.01,0.01,0.01,passive,-1
1.7212,excitation,multi_sine,11.8461769182759,-666.6311211592207,315.33052848875053,-177.3885566418272,0.13191415252410332,-149.96346532752784,17.4545,-0.019,-9.27,-1.4241,0.2873,-22.8971,78.44913369358176,26.768181678092127,81.9102417596496,-20.577011108398438,-88.91304863823784,-41.603597005208336,1.4692514249593904,0.435333251953125,0.8649693857325186,-1.2895456949869792,-0.06785074869791667,1.4249081081814237,0.7794,-0.3979,7.9307,0.19101,-0.01717,-0.01496,0.001,0.001,0.001,0.0005,0.0005,0.0005,0.01,0.01,0.01,passive,-1
1.7407,excitation,multi_sine,12.317870747570241,-666.6334245325288,315.07991586268037,-177.3880770116742,0.1314750850345526,-149.96265736119756,17.3674,-0.0004,-9.6324,-20.7866,0.1302,-13.4092,78.49013526840966,26.78015378442141,81.93452589582688,-20.615191989474827,-88.91425238715277,-41.56383938259548,1.4148296696124691,0.435333251953125,0.8688445138459159,-1.4031643337673612,-0.0,1.4249081081814237,0.6508,-0.5236,8.448,0.16739,-0.01448,-0.02367,0.001,0.001,0.001,0.0005,0.0005,0.0005,0.01,0.01,0.01,passive,-1
1.7609,excitation,multi_sine,12.588468849017033,-666.6323757768606,314.9371291512412,-177.38744306631602,0.13087903268783485,-149.96130415643395,16.779,0.0154,-9.8088,-39.9639,-0.0808,-3.7271,78.51361718508277,26.786632726688197,81.94906782395769,-20.63778347439236,-88.91493055555556,-41.541968451605904,1.4148296696124691,0.3809114966062036,0.9660762371403155,-1.4551459418402777,-0.06785074869791667,1.2892066107855902,0.8581,-0.3957,7.5013,0.18976,-0.02614,-0.01622,0.001,0.001,0.001,0.0005,0.0005,0.0005,0.01,0.01,0.01,passive,-1
1.781,excitation,multi_sine,12.955520847263685,-666.6277894619454,314.7117091892833,-177.38716738260024,0.13056621998602133,-149.96136404599213,15.8283,-0.0056,-9.9282,-56.9166,-0.3921,4.6755,78.54543402643488,26.796504105671797,81.97221661558245,-20.672225952148438,-88.91591389973958,-41.51048448350694,1.251584798982828,0.435333251953125,0.9315332091680848,-1.4248826768663194,-0.06785074869791667,1.2892066107855902,0.882,-0.3319,8.1151,0.19964,-0.02695,-0.01531,0.001,0.001,0.001,0.0005,0.0005,0.0005,0.01,0.01,0.01,passive,-1
1.8007,excitation,multi_sine,13.197580572162783,-666.6293833190355,314.5611388119681,-177.3868298231509,0.13026163083530534,-149.96021952933995,14.3985,-0.0456,-9.6618,-70.7696,-0.3666,13.2291,78.56648888918433,26.80370368579827,81.98677893912438,-20.695071750217014,-88.91649881998698,-41.49083455403646,1.305999755859375,0.489748208829672,0.8813536993347773,-1.4271460639105902,-0.06785074869791667,1.2213473849826388,0.7609,-0.2201,7.882,0.19264,-0.00672,-0.01301,0.001,0.001,0.001,0.0005,0.0005,0.0005,0.01,0.01,0.01,passive,-1
1.8206,excitation,multi_sine,13.516683652210963,-666.6339578977679,314.3301660768576,-177.38707513064995,0.1304455411721536,-149.95944890468678,12.4396,-0.0544,-9.0807,-78.5419,-0.0069,21.8445,78.59430143148592,26.81507072826423,82.00822131468517,-20.728429158528645,-88.91730414496527,-41.464174058702255,1.0339181730062654,0.435333251953125,0.8733043104115099,-1.4382765028211806,-0.06785074869791667,1.0856458875868056,0.8981,-0.2618,8.5501,0.18307,-0.00763,-0.01906,0.001,0.001,0.001,0.0005,0.0005,0.0005,0.01,0.01,0.01,passive,-1
1.8406,excitation,multi_sine,13.709925654089893,-666.6336191704713,314.1749948962862,-177.38785896491373,0.1311033914903491,-149.9590250126691,10.6821,-0.0402,-8.5088,-80.8687,0.299,30.4359,78.61109365331065,26.822338293094447,82.02289921222346,-20.749867757161457,-88.9177958170573,-41.448050604926216,1.0339181730062654,0.435333251953125,0.9145098393506342,-1.3158077663845487,-0.0,0.9499359130859375,0.7186,-0.3431,8.4258,0.1807,-0.02423,-0.02179,0.001,0.001,0.001,0.0005,0.0005,0.0005,0.01,0.01,0.01,passive,-1
1.8612,excitation,multi_sine,13.965354157862897,-666.6353688502393,313.9644242933436,-177.38846049893104,0.13159917402883498,-149.95858272892247,9.3303,-0.0328,-8.0141,-84.1452,0.5838,40.9003,78.63333144990524,26.83241362618928,82.04269635795366,-20.779647827148438,-88.91844007703993,-41.426595052083336,0.87066650390625,0.435333251953125,0.743378743086711,-1.1850399441189237,-0.06785074869791667,0.8142344156901041,0.762,-0.2541,8.4651,0.18947,-0.0089,-0.01427,0.001,0.001,0.001,0.0005,0.0005,0.0005,0.01,0.01,0.01,passive,-1
1.8809,excitation,multi_sine,14.101967528903046,-666.6371270189651,313.843559738265,-177.38822965327557,0.1314093539981502,-149.95882142060464,7.9964,-0.0024,-7.3365,-85.1686,0.7136,48.7483,78.64524237000116,26.838178729066755,82.05434893617536,-20.797746446397568,-88.91877068413628,-41.41465081108941,0.7074148348062346,0.32649653972965653,0.6830695123955755,-1.1161549886067708,-0.06785074869791667,0.678524441189236,0.8388,-0.2118,8.2695,0.21396,-0.0209,-0.01603,0.001,0.001,0.001,0.0005,0.0005,0.0005,0.01,0.01,0.01,passive,-1
1.901,excitation,multi_sine,14.217722968084407,-666.6359828651212,313.73360042393494,-177.38804340645325,0.13125830253004178,-149.9589892642575,6.3189,0.037,-6.2332,-83.3929,0.4445,54.3481,78.6552905092145,26.843053232325186,82.0655120245301,-20.814344618055554,-88.91904195149739,-41.404622395833336,0.544163165706219,0.32649653972965653,0.7037096684521967,-0.9306165907118056,-0.0,0.6106736924913194,0.6898,-0.3074,7.9865,0.20191,-0.00788,-0.01184,0.001,0.001,0.001,0.0005,0.0005,0.0005,0.01,0.01,0.01,passive,-1
1.9207,excitation,multi_sine,14.351425340718809,-666.631797864202,313.59061826189696,-177.38825855794892,0.1314196438635001,-149.9592501803172,4.518,0.028,-4.9213,-82.6106,0.0059,58.9563,78.66685470732132,26.84908347554726,82.08029189912399,-20.835257636176216,-88.91938103569878,-41.39303419325087,0.3809114966062036,0.2720815828531095,0.5256101400545328,-0.7727220323350694,-0.0,0.4071129692925347,0.6321,-0.2369,7.9564,0.19761,-0.01921,-0.01028,0.001,0.001,0.001,0.0005,0.0005,0.0005,0.01,0.01,0.01,passive,-1
1.9411,excitation,multi_sine,14.430875858465265,-666.6312439382455,313.5010578828033,-177.38829486477712,0.1314204293007078,-149.9591383431476,2.6361,0.0035,-3.5272,-82.3124,-0.25,61.7006,78.67376195322169,26.853108170008895,82.08920469378481,-20.848380194769966,-88.91958448621962,-41.38638814290365,0.2720815828531095,0.16324487062964108,0.393760605613784,-0.5767228868272569,-0.06785074869791667,0.2714114718967014,0.5663,-0.3916,8.0145,0.18303,-0.01277,-0.01209,0.001,0.001,0.001,0.0005,0.0005,0.0005,0.01,0.01,0.01,passive,-1
1.9607,excitation,multi_sine,14.49013702003718,-666.6329506138381,313.42672367692103,-177.38846866057614,0.13155430069623814,-149.9586646289709,0.9646,-0.0053,-2.3382,-76.7558,-0.3202,58.6748,78.67894918611734,26.85674535165919,82.09605755192219,-20.85879855685764,-88.91972011990018,-41.38179355197482,0.16324487062964108,0.10882991375309406,0.1854282794612469,-0.302734375,-0.0,0.13570149739583334,0.6387,-0.4605,8.1753,0.18235,-0.01484,-0.01474,0.001,0.001,0.001,0.0005,0.0005,0.0005,0.01,0.01,0.01,passive,-1
1.9811,excitation,multi_sine,14.495045335233641,-666.6336148135805,313.4022720547382,-177.3882218049398,0.13133237754567417,-149.9595244194933,-0.3154,-0.0169,-1.3433,-63.6687,-0.3082,49.6955,78.67939788516205,26.85786030080059,82.09857978443108,-20.862808227539062,-88.91975402832031,-41.380530463324654,-0.10882991375309406,-0.0,0.11959189235573948,-0.2003139919704861,-0.0,0.06785074869791667,0.4415,-0.3485,8.5432,0.17706,-0.00783,-0.01269,0.001,0.001,0.001,0.0005,0.0005,0.0005,0.01,0.01,0.01,passive,-1
2.001,excitation,multi_sine,14.435659866675932,-666.6346540464556,313.4051589966547,-177.38687937664628,0.1301106060540446,-149.96463979752906,-1.5949,-0.0249,-0.2985,-50.3867,-0.1261,41.1869,78.67429903238127,26.8574591910485,82.09936160852413,-20.865003797743054,-88.91977945963542,-41.38053894042969,-0.2720815828531095,-0.05441495687654703,-0.03762273505182549,-0.040308634440104164,-0.0,-0.06785074869791667,0.4721,-0.2847,8.017,0.18346,-0.00346,-0.01247,0.001,0.001,0.001,0.0005,0.0005,0.0005,0.01,0.01,0.01,passive,-1
2.0209,excitation,multi_sine,14.388492155880996,-666.6371075690064,313.42107820524126,-177.38573365896912,0.12909658328700396,-149.96793077255236,-2.5299,-0.0149,0.4736,-38.3929,-0.0307,34.3816,78.67026753944926,26.856752150129562,82.0983078456161,-20.864749484592014,-88.91976250542534,-41.38127644856771,-0.2720815828531095,-0.05441495687654703,-0.005567947236618193,0.050421820746527776,0.06785074869791667,-0.13570149739583334,0.5918,-0.3344,8.324,0.187,-0.01484,-0.01815,0.001,0.001,0.001,0.0005,0.0005,0.0005,0.01,0.01,0.01,passive,-1
2.0407,excitation,multi_sine,14.3149204842533,-666.6353134562713,313.434805802017,-177.3863175581667,0.12946699910191142,-149.97029894034716,-3.1002,0.0033,0.9512,-31.2487,-0.2687,30.9238,78.66387697729733,26.855820759688275,82.09715890412284,-20.861858791775173,-88.91974555121527,-41.38526916503906,-0.2176666259765625,-0.05441495687654703,-0.0705069362527073,0.23996988932291666,-0.06785074869791667,-0.20355224609375,0.3966,-0.349,8.3491,0.17175,-0.01677,-0.01241,0.001,0.001,0.001,0.0005,0.0005,0.0005,0.01,0.01,0.01,passive,-1
2.0607,excitation,multi_sine,14.272756321673123,-666.6338375221079,313.442969236951,-177.38806154643987,0.13085607780895964,-149.9684866551498,-3.4688,-0.0015,1.3584,-29.6981,-0.5662,29.7762,78.66019220635442,26.855474037699178,82.09547288346998,-20.857425265842014,-88.91968621148003,-41.390719943576386,-0.2176666259765625,-0.0,-0.15240810885287748,0.3098720974392361,-0.0,-0.4071129692925347,0.6362,-0.3666,8.316,0.19736,-0.02083,-0.01219,0.001,0.001,0.001,0.0005,0.0005,0.0005,0.01,0.01,0.01,passive,-1
2.081,excitation,multi_sine,14.226278910186085,-666.6329038469718,313.45970780100146,-177.3898735679112,0.1322812496054077,-149.96607675308505,-3.8892,-0.0232,1.8944,-31.4296,-0.6739,28.9459,78.6561403180113,26.854828183013613,82.09276709226098,-20.85156758626302,-88.91961839463976,-41.3971201578776,-0.2720815828531095,-0.10882991375309406,-0.18277007754486385,0.4070281982421875,-0.06785074869791667,-0.4071129692925347,0.5024,-0.3004,8.1394,0.1764,-0.00259,-0.01035,0.001,0.001,0.001,0.0005,0.0005,0.0005,0.01,0.01,0.01,passive,-1
2.1009,excitation,multi_sine,14.124628618437635,-666.6347924618092,313.5130294589412,-177.39119538260056,0.13322301603568387,-149.9635815850276,-4.5955,-0.0475,2.6109,-35.2769,-0.5817,28.234,78.64734989581721,26.852734254138305,82.08632894081644,-20.841064453125,-88.91944885253906,-41.40829298231337,-0.435333251953125,-0.10882991375309406,-0.31604729076423266,0.4759979248046875,-0.06785074869791667,-0.4749637179904514,0.5457,-0.4156,8.0491,0.17501,0.00192,-0.01343,0.001,0.001,0.001,0.0005,0.0005,0.0005,0.01,0.01,0.01,passive,-1
2.1206,excitation,multi_sine,14.039634527018512,-666.6363464994279,313.5616875361376,-177.39172181517634,0.13354901095745197,-149.96255018663805,-5.4389,-0.075,3.2932,-39.8709,-0.2987,26.8987,78.6400007493425,26.850701511496364,82.08097174616144,-20.832799275716145,-88.91930474175346,-41.41658359103732,-0.435333251953125,-0.16324487062964108,-0.35371081663830445,0.5329640706380209,-0.06785074869791667,-0.5428229437934028,0.5903,-0.4726,8.4308,0.18799,-0.01224,-0.01443,0.001,0.001,0.001,0.0005,0.0005,0.0005,0.01,0.01,0.01,passive,-1
2.141,excitation,multi_sine,13.901636433166205,-666.6384455917865,313.6460806982486,-177.39244638921835,0.1340493783747353,-149.96061389702388,-6.4945,-0.0845,3.9392,-42.3999,0.1774,23.4048,78.62804903842435,26.847098322197944,82.07187539280051,-20.81878662109375,-88.91899956597221,-41.43031650119357,-0.5985781225827661,-0.10882991375309406,-0.40675248249922646,0.6181589762369791,-0.0,-0.6106736924913194,0.4666,-0.512,8.6626,0.18118,-0.02144,-0.01354,0.001,0.001,0.001,0.0005,0.0005,0.0005,0.01,0.01,0.01,passive,-1
2.1607,excitation,multi_sine,13.775534570793761,-666.6409423280658,313.73174137258917,-177.39232451455382,0.13388409168361148,-149.95880161350135,-7.3875,-0.062,4.3151,-39.1028,0.6485,17.0375,78.6171306950031,26.843379558903155,82.06313935836943,-20.80613030327691,-88.91866895887587,-41.442905002170136,-0.5985781225827661,-0.2176666259765625,-0.4432398729985303,0.6216854519314235,0.06785074869791667,-0.678524441189236,0.6125,-0.3869,8.4459,0.19471,-0.00871,-0.01344,0.001,0.001,0.001,0.0005,0.0005,0.0005,0.01,0.01,0.01,passive,-1
2.1811,excitation,multi_sine,13.5973860416467,-666.6421138021749,313.8426166700976,-177.39175794571415,0.13336769452428357,-149.9580551597534,-8.0581,-0.0227,4.4627,-31.2846,1.005,9.4918,78.60167097337175,26.8381923260075,82.05260172928914,-20.790659586588543,-88.91820271809895,-41.458935207790795,-0.7074148348062346,-0.2176666259765625,-0.41684821100518255,0.620574951171875,0.06785074869791667,-0.678524441189236,0.4599,-0.3564,7.8131,0.19379,-0.00995,-0.00083,0.001,0.001,0.001,0.0005,0.0005,0.0005,0.01,0.01,0.01,passive,-1
2.2006,excitation,multi_sine,13.45891655031766,-666.6419693610592,313.9136613215867,-177.39144948049304,0.13309420398591468,-149.9586931001656,-8.6317,0.005,4.5689,-22.844,1.1507,4.6207,78.58964447927947,26.834704710705445,82.04606839925935,-20.780690511067707,-88.91786363389757,-41.47020975748698,-0.7618297916827815,-0.2720815828531095,-0.3988050706315749,0.64208984375,-0.0,-0.7463751898871528,0.4208,-0.4194,7.8253,0.18814,-0.01205,-0.00855,0.001,0.001,0.001,0.0005,0.0005,0.0005,0.01,0.01,0.01,passive,-1
2.2207,excitation,multi_sine,13.244741210750444,-666.6406173403138,314.01283355670904,-177.39139061196153,0.13309868689378002,-149.95956172166683,-9.0927,0.0183,4.6647,-15.0861,1.0573,2.5047,78.57101667045366,26.82971463345065,82.0369312550762,-20.766042073567707,-88.9172871907552,-41.48779975043403,-0.8162515470297029,-0.2176666259765625,-0.36243325412863553,0.6106736924913194,-0.0,-0.678524441189236,0.5277,-0.3538,8.1975,0.1886,-0.01212,-0.00911,0.001,0.001,0.001,0.0005,0.0005,0.0005,0.01,0.01,0.01,passive,-1
2.2406,excitation,multi_sine,13.104557315051883,-666.6389717154254,314.0797397123586,-177.39149111035442,0.1333350762699393,-149.95940657542053,-9.0307,0.0275,4.5547,-9.284,0.7715,2.0007,78.55879302072053,26.82630180132271,82.0307446470355,-20.755818684895832,-88.91680399576823,-41.50005764431423,-0.7618297916827815,-0.2176666259765625,-0.4113618454130569,0.6848822699652778,-0.0,-0.7463751898871528,0.5128,-0.3637,7.7604,0.18839,-0.02184,-0.01127,0.001,0.001,0.001,0.0005,0.0005,0.0005,0.01,0.01,0.01,passive,-1
2.2608,excitation,multi_sine,12.88445855304335,-666.6383966595777,314.18809756379886,-177.39139008433722,0.13344934911550507,-149.95932836311323,-9.0891,0.0365,4.5814,-5.3129,0.3992,2.2262,78.53964172967589,26.82102618831219,82.02047215829981,-20.739661322699654,-88.91607496473524,-41.51909722222222,-0.8162515470297029,-0.2176666259765625,-0.47548501798422027,0.6796010335286459,0.06785074869791667,-0.7463751898871528,0.5043,-0.5091,8.535,0.18831,-0.01629,-0.0125,0.001,0.001,0.001,0.0005,0.0005,0.0005,0.01,0.01,0.01,passive,-1
2.2806,excitation,multi_sine,12.73079459225569,-666.6385834668862,314.26836671875515,-177.3909071602119,0.13312465241258353,-149.95963970721897,-9.2191,0.045,4.7276,-2.839,0.0935,2.1161,78.5262895338606,26.817151060198793,82.01302783323986,-20.728505452473957,-88.91560872395833,-41.5320078531901,-0.87066650390625,-0.2720815828531095,-0.4444024114325495,0.6886461046006944,-0.0,-0.7463751898871528,0.4902,-0.4026,8.4608,0.18738,-0.00971,-0.01339,0.001,0.001,0.001,0.0005,0.0005,0.0005,0.01,0.01,0.01,passive,-1
2.3012,excitation,multi_sine,12.504039038482,-666.6393825368951,314.3960984887273,-177.38953248293163,0.13201490086219939,-149.95985035081412,-9.3923,0.0499,4.9123,-1.0099,-0.1992,1.7566,78.5066011636564,26.810991646039604,82.00148403054416,-20.711949666341145,-88.91494750976562,-41.551293267144096,-0.8162515470297029,-0.2176666259765625,-0.4688021216062036,0.6442769368489584,0.06785074869791667,-0.8142344156901041,0.591,-0.4452,9.3925,0.1934,-0.02625,-0.01969,0.001,0.001,0.001,0.0005,0.0005,0.0005,0.01,0.01,0.01,passive,-1
2.3206,excitation,multi_sine,12.353430555443007,-666.6383871342007,314.4783533008329,-177.38885996554072,0.13152680335938194,-149.96006231836017,-9.5005,0.0487,4.9502,-1.0792,-0.5192,2.3608,78.4934937127746,26.806864974522355,81.99418927183245,-20.700946384006077,-88.91448126898871,-41.564059787326386,-0.8162515470297029,-0.2720815828531095,-0.4361694638091739,0.6789059109157985,0.06785074869791667,-0.8142344156901041,0.5196,-0.2802,9.4077,0.19265,-0.00519,-0.01615,0.001,0.001,0.001,0.0005,0.0005,0.0005,0.01,0.01,0.01,passive,-1
2.3409,excitation,multi_sine,12.20050611266416,-666.6363302606975,314.55602247363134,-177.38872839617633,0.13150547943127114,-149.96048055645844,-9.265,0.0342,4.8035,2.6425,-0.8191,1.4827,78.48016871084081,26.802894667823715,81.9871732504061,-20.68966335720486,-88.91402350531683,-41.576834784613716,-0.8162515470297029,-0.2720815828531095,-0.43525167030863243,0.7022179497612847,-0.0,-0.7463751898871528,0.5428,-0.4988,8.6976,0.1839,-0.00424,-0.0164,0.001,0.001,0.001,0.0005,0.0005,0.0005,0.01,0.01,0.01,passive,-1
2.361,excitation,multi_sine,11.936544406946535,-666.63375007897,314.6867053458048,-177.38900074441526,0.13181153443277535,-149.9609706018173,-9.2854,0.0088,4.8449,10.8902,-0.9612,-0.5543,78.45719667944577,26.79641572555693,81.97483402667659,-20.669725206163193,-88.91330295138889,-41.59908718532986,-0.7618297916827815,-0.2176666259765625,-0.4460748351446473,0.6970977783203125,0.06785074869791667,-0.8142344156901041,0.4348,-0.466,8.033,0.19491,0.00249,0.00159,0.001,0.001,0.001,0.0005,0.0005,0.0005,0.01,0.01,0.01,passive,-1
2.3807,excitation,multi_sine,11.794440514874891,-666.6335851812806,314.7596694687483,-177.38913487177618,0.1319582612199726,-149.96092197147817,-8.9937,-0.0149,4.7778,18.0753,-0.8893,-1.5356,78.4448506572459,26.792982498017867,81.967668438902,-20.65853542751736,-88.9129130045573,-41.6113535563151,-0.7074148348062346,-0.2176666259765625,-0.4338919762337562,0.7049899631076388,0.06785074869791667,-0.7463751898871528,0.5734,-0.5076,8.3653,0.19525,-0.02569,-0.01362,0.001,0.001,0.001,0.0005,0.0005,0.0005,0.01,0.01,0.01,passive,-1
2.4011,excitation,multi_sine,11.591037272019836,-666.6349971598352,314.86682022005584,-177.38937440177585,0.13227060572901514,-149.9610345196541,-8.7119,-0.0367,4.8522,25.0067,-0.5989,-2.4481,78.42720182815401,26.78818957640393,81.95672970006962,-20.641860961914062,-88.91231960720486,-41.62869771321615,-0.7618297916827815,-0.2176666259765625,-0.4818415877842667,0.7046339246961806,0.06785074869791667,-0.7463751898871528,0.4499,-0.3459,8.8467,0.18817,-0.01094,-0.0143,0.001,0.001,0.001,0.0005,0.0005,0.0005,0.01,0.01,0.01,passive,-1
2.4208,excitation,multi_sine,11.459316893103038,-666.6373504578404,314.94151102900645,-177.38945161347388,0.13234141487436699,-149.9614566920522,-8.1421,-0.048,4.8054,31.5195,-0.0904,-4.9484,78.41580759180654,26.785035086150216,81.94888426525758,-20.630408393012154,-88.91199747721355,-41.63953993055556,-0.7074148348062346,-0.2176666259765625,-0.5084168084777227,0.7157728407118056,-0.0,-0.6106736924913194,0.624,-0.3342,9.2377,0.20303,-0.0254,-0.01272,0.001,0.001,0.001,0.0005,0.0005,0.0005,0.01,0.01,0.01,passive,-1
2.441,excitation,multi_sine,11.27169601397837,-666.6401971568365,315.0625051267819,-177.38890289605084,0.1318820678054944,-149.96204891031326,-7.0092,-0.0395,4.5349,40.7381,0.4969,-11.2555,78.39956604608214,26.779739077728575,81.9368033834023,-20.613250732421875,-88.91152275933159,-41.65499369303385,-0.5985781225827661,-0.2176666259765625,-0.44915454222424195,0.7261742485894097,-0.0,-0.5428229437934028,0.6385,-0.3943,8.6689,0.21697,-0.00824,-0.01108,0.001,0.001,0.001,0.0005,0.0005,0.0005,0.01,0.01,0.01,passive,-1
2.4606,excitation,multi_sine,11.160554797973253,-666.6401071408158,315.1374025818433,-177.38888851502145,0.13187006446452812,-149.96205672574243,-6.3275,-0.0229,4.4367,49.9852,0.7738,-18.9381,78.38991221815053,26.776292253248762,81.92944063998685,-20.602154201931423,-88.91124301486545,-41.664513481987846,-0.5985781225827661,-0.2176666259765625,-0.46426074339611695,0.6778208414713541,-0.0,-0.6106736924913194,0.5558,-0.3567,8.4855,0.19914,-0.01762,-0.01107,0.001,0.001,0.001,0.0005,0.0005,0.0005,0.01,0.01,0.01,passive,-1
2.4807,excitation,multi_sine,11.020656286130672,-666.6386047991115,315.2380885093264,-177.3892908079793,0.1322433323318837,-149.96165944699095,-5.4451,-0.0048,4.0456,56.5567,0.6644,-26.2401,78.37772935923964,26.771580913279315,81.91946728394763,-20.586522420247395,-88.91087002224393,-41.67691548665365,-0.489748208829672,-0.2176666259765625,-0.4159984022083849,0.572628445095486,0.06785074869791667,-0.4749637179904514,0.6328,-0.5559,8.7742,0.19393,-0.00833,-0.01826,0.001,0.001,0.001,0.0005,0.0005,0.0005,0.01,0.01,0.01,passive,-1
2.5009,excitation,multi_sine,10.944928591845827,-666.637567607017,315.29843820332945,-177.38942416714113,0.1323839070756667,-149.96138296739673,-4.3075,0.0221,3.4074,61.2362,0.3346,-32.3841,78.37112804450611,26.768739152662825,81.91357301013305,-20.57737562391493,-88.91065809461806,-41.683688693576386,-0.32649653972965653,-0.2176666259765625,-0.36216811378403463,0.5395762125651041,-0.06785074869791667,-0.4071129692925347,0.6688,-0.4502,8.3591,0.20585,-0.01995,-0.0145,0.001,0.001,0.001,0.0005,0.0005,0.0005,0.01,0.01,0.01,passive,-1
2.5206,excitation,multi_sine,10.883004021517285,-666.6367940244581,315.35408022122715,-177.38926125002791,0.13227174323712507,-149.9612989444942,-2.9275,0.0414,2.5612,62.5005,0.047,-35.9888,78.36573005902885,26.76610814462794,81.90829739712252,-20.56949191623264,-88.91048007541232,-41.68908013237847,-0.32649653972965653,-0.16324487062964108,-0.31268204792891396,0.494291517469618,0.06785074869791667,-0.339262220594618,0.6549,-0.5585,8.7512,0.1922,-0.01566,-0.01766,0.001,0.001,0.001,0.0005,0.0005,0.0005,0.01,0.01,0.01,passive,-1
2.5407,excitation,multi_sine,10.801717225296109,-666.6371252897579,315.43005477237386,-177.38855546969975,0.13163720127152198,-149.9619979299663,-1.4462,0.0274,1.7016,63.4861,0.0346,-38.0784,78.35868004525062,26.762613730855506,81.9011929955813,-20.559641520182293,-88.91031053331163,-41.69531928168403,-0.16324487062964108,-0.16324487062964108,-0.19835897011331993,0.2712927924262153,-0.06785074869791667,-0.13570149739583334,0.5185,-0.3713,8.7494,0.19342,-0.01291,-0.01176,0.001,0.001,0.001,0.0005,0.0005,0.0005,0.01,0.01,0.01,passive,-1
2.5606,excitation,multi_sine,10.778015525324776,-666.6386559207531,315.44774196019665,-177.38878932772224,0.1318625286188577,-149.96228220478173,-0.2035,-0.0013,0.9923,60.5397,0.266,-36.0774,78.35664730260868,26.762056256284808,81.89894270188738,-20.556454128689236,-88.91025119357639,-41.69703165690104,-0.0,-0.0,-0.09919648123259592,0.09873284233940972,-0.0,-0.06785074869791667,0.657,-0.3692,8.9053,0.20356,-0.01707,-0.01426,0.001,0.001,0.001,0.0005,0.0005,0.0005,0.01,0.01,0.01,passive,-1
2.5809,excitation,multi_sine,10.80460443731845,-666.637043494252,315.44394340156083,-177.38998889208335,0.1329884825627611,-149.95944318464612,0.861,-0.0132,0.3625,50.9101,0.5086,-30.2753,78.3588975963026,26.762287404277536,81.89863677072053,-20.554716322157116,-88.91019185384114,-41.69759962293837,0.2176666259765625,-0.0,0.050906946163366336,0.023685031467013888,-0.0,0.06785074869791667,0.7467,-0.4175,9.0805,0.19788,-0.01264,-0.01357,0.001,0.001,0.001,0.0005,0.0005,0.0005,0.01,0.01,0.01,passive,-1
2.6006,excitation,multi_sine,10.848089921848427,-666.6349088176646,315.4343395047796,-177.3906667600278,0.13360071908917767,-149.9560046051361,1.7347,0.0099,-0.1638,39.7937,0.7425,-24.6622,78.36260956112702,26.76263412626663,81.89939819940246,-20.554919772677952,-88.91019185384114,-41.697328355577255,0.2176666259765625,-0.0,0.03061351209583849,-0.0035773383246527775,-0.06785074869791667,-0.0,0.6394,-0.3764,9.3556,0.20805,-0.02477,-0.01287,0.001,0.001,0.001,0.0005,0.0005,0.0005,0.01,0.01,0.01,passive,-1
2.6206,excitation,multi_sine,10.909540304167765,-666.6363089962758,315.4260407367933,-177.39012834916358,0.1331805707434949,-149.95244317412087,2.6909,0.058,-0.7478,30.5355,1.0392,-20.4046,78.36793956190053,26.763205197778078,81.90016642655476,-20.556996663411457,-88.91020033094618,-41.6955820719401,0.2176666259765625,-0.05441495687654703,0.04572651173808787,-0.16928778754340276,-0.0,0.13570149739583334,0.6818,-0.4822,8.8569,0.21436,-0.01619,-0.01443,0.001,0.001,0.001,0.0005,0.0005,0.0005,0.01,0.01,0.01,passive,-1
2.641,excitation,multi_sine,10.949470840847525,-666.6373542467635,315.4218010000858,-177.38864025409978,0.1319554351906874,-149.95227683837143,3.1803,0.1011,-1.0272,27.7481,1.1698,-19.1322,78.37141358026183,26.763334368715192,81.90139694969253,-20.560387505425346,-88.91022576226128,-41.6923099093967,0.2176666259765625,0.05441495687654703,0.06612872133160581,-0.24816724989149305,-0.06785074869791667,0.339262220594618,0.821,-0.4953,8.6313,0.21814,-0.02692,-0.0116,0.001,0.001,0.001,0.0005,0.0005,0.0005,0.01,0.01,0.01,passive,-1
2.6608,excitation,multi_sine,11.011043349338346,-666.6356281325557,315.40103741544567,-177.38639776055462,0.1301978133955472,-149.9556749195456,3.4124,0.1123,-1.2298,30.2315,0.8668,-19.6714,78.37672318562423,26.763708284585782,81.90542164415416,-20.567906697591145,-88.91031053331163,-41.68368021647135,0.2720815828531095,0.05441495687654703,0.21879517205870977,-0.3363969590928819,0.06785074869791667,0.4071129692925347,0.6957,-0.5844,8.26,0.20344,-0.01533,-0.01306,0.001,0.001,0.001,0.0005,0.0005,0.0005,0.01,0.01,0.01,passive,-1
2.6806,excitation,multi_sine,11.070685155011395,-666.63131338256,315.3748667710718,-177.38543032662128,0.12950930683583037,-149.9574613327191,3.757,0.103,-1.5957,34.4751,0.166,-20.5554,78.38181523993464,26.764204572923113,81.90956191261216,-20.573942396375866,-88.91038682725694,-41.67686462402344,0.32649653972965653,0.05441495687654703,0.30211042649675124,-0.3735605875651042,0.06785074869791667,0.4749637179904514,0.5825,-0.4345,9.1835,0.19347,-0.00784,-0.01354,0.001,0.001,0.001,0.0005,0.0005,0.0005,0.01,0.01,0.01,passive,-1
2.7009,excitation,multi_sine,11.183998823080005,-666.6256150352009,315.3248697388793,-177.38411444624379,0.1285780505162065,-149.959674990096,4.6371,0.103,-2.1503,40.2058,-0.6386,-22.261,78.39153705257,26.76558466240911,81.91655074015702,-20.584292941623264,-88.91056484646268,-41.6650390625,0.435333251953125,0.10882991375309406,0.3017908983891553,-0.4322560628255208,-0.0,0.5428229437934028,0.709,-0.5502,9.03,0.20997,-0.01579,-0.01925,0.001,0.001,0.001,0.0005,0.0005,0.0005,0.01,0.01,0.01,passive,-1
2.7208,excitation,multi_sine,11.270646752624305,-666.6239092138753,315.2835895263631,-177.383562913857,0.12822060560581935,-149.96111947419575,5.735,0.0948,-2.6801,46.8386,-1.1385,-24.5651,78.39902216845219,26.767202698358215,81.92132326635983,-20.591617160373264,-88.91073438856337,-41.65618896484375,0.544163165706219,0.16324487062964108,0.31820920434328587,-0.4389190673828125,-0.0,0.5428229437934028,0.6057,-0.4422,8.3354,0.20688,-0.01698,-0.01198,0.001,0.001,0.001,0.0005,0.0005,0.0005,0.01,0.01,0.01,passive,-1
2.7411,excitation,multi_sine,11.365351969249822,-666.6244942586972,315.23339541694673,-177.38353013795543,0.12831334034860073,-149.9626142652157,6.9468,0.0656,-3.2155,54.7256,-1.2993,-27.1005,78.4072483176052,26.76961615534112,81.92612298644416,-20.599102444118923,-88.9109378390842,-41.64655049641927,0.544163165706219,0.16324487062964108,0.3239267179281405,-0.4985809326171875,-0.0,0.6106736924913194,0.6991,-0.3826,8.6642,0.20773,-0.01938,-0.01309,0.001,0.001,0.001,0.0005,0.0005,0.0005,0.01,0.01,0.01,passive,-1
2.7609,excitation,multi_sine,11.532121768174004,-666.6256446524349,315.1534805329508,-177.38367955045732,0.12853343587360025,-149.96392487207234,8.0251,0.031,-3.7135,56.6097,-1.2719,-26.9051,78.42174265644339,26.773559268158262,81.9335401176226,-20.610707600911457,-88.9113532172309,-41.63087632921007,0.6529998779296875,0.16324487062964108,0.3474358284827506,-0.495817396375868,-0.06785074869791667,0.678524441189236,0.7033,-0.5174,8.3237,0.20753,-0.01098,-0.01223,0.001,0.001,0.001,0.0005,0.0005,0.0005,0.01,0.01,0.01,passive,-1
2.781,excitation,multi_sine,11.702617694460786,-666.6253920316707,315.07919240124085,-177.3840326247648,0.12884892083027216,-149.96367987910457,9.0187,-0.0058,-4.211,48.5546,-1.1938,-23.2525,78.43653612797803,26.777128465104813,81.94050175128596,-20.621227688259548,-88.9117940266927,-41.61644829644097,0.8162515470297029,0.2176666259765625,0.36071324112391706,-0.6037648518880209,-0.0,0.7463751898871528,0.5778,-0.4033,8.5512,0.18968,-0.01141,-0.01383,0.001,0.001,0.001,0.0005,0.0005,0.0005,0.01,0.01,0.01,passive,-1
2.8007,excitation,multi_sine,11.937779667089854,-666.6241185072711,314.9802026575767,-177.3842511803341,0.1290164430302419,-149.9625065065034,9.9235,-0.0261,-4.671,39.3895,-1.1159,-19.4546,78.4569247406308,26.781744626489015,81.95012158686572,-20.635799831814236,-88.91239590115018,-41.59740024142795,0.87066650390625,0.2176666259765625,0.4236942706721844,-0.6217024061414931,-0.0,0.8142344156901041,0.5924,-0.3847,8.1011,0.19916,-0.01707,-0.01212,0.001,0.001,0.001,0.0005,0.0005,0.0005,0.01,0.01,0.01,passive,-1
2.8208,excitation,multi_sine,12.100454938905907,-666.6233953786995,314.9021019769179,-177.38458946559828,0.12923951926662078,-149.96249469307622,10.8409,-0.0347,-5.093,34.3901,-1.0443,-16.1367,78.47104516359839,26.785409002020806,81.95759990427753,-20.646989610460068,-88.91287909613715,-41.58342149522569,0.8162515470297029,0.2720815828531095,0.5309673347095452,-0.7157982720269097,-0.06785074869791667,0.8820851643880208,0.6454,-0.5716,7.8946,0.19867,-0.02529,-0.01257,0.001,0.001,0.001,0.0005,0.0005,0.0005,0.01,0.01,0.01,passive,-1
2.8406,excitation,multi_sine,12.356808944645044,-666.623577263232,314.7743811705156,-177.38497479227718,0.12940949276757177,-149.96269508900747,11.6556,-0.0467,-5.4816,32.6595,-0.8829,-13.0196,78.4933305494856,26.7915412222985,81.96969438307356,-20.665529039171005,-88.91368442111545,-41.56115214029948,0.979496417659344,0.2720815828531095,0.5113197553275836,-0.7814619276258681,-0.06785074869791667,0.9499359130859375,0.6267,-0.3841,8.2945,0.20948,-0.01702,-0.01427,0.001,0.001,0.001,0.0005,0.0005,0.0005,0.01,0.01,0.01,passive,-1
2.8607,excitation,multi_sine,12.538640106115613,-666.6259642084908,314.6847059311878,-177.3850500499112,0.12935996070000746,-149.96278678477276,11.6367,-0.0563,-5.501,32.1984,-0.483,-10.5312,78.5091777839283,26.79612339133083,81.97784574905245,-20.67874484592014,-88.91425238715277,-41.54536777072482,1.0339181730062654,0.2720815828531095,0.5358622333790997,-0.8151668972439235,-0.0,1.0856458875868056,0.5933,-0.3784,9.0152,0.19731,-0.01497,-0.01343,0.001,0.001,0.001,0.0005,0.0005,0.0005,0.01,0.01,0.01,passive,-1
2.881,excitation,multi_sine,12.827545410556631,-666.6294034953618,314.5476855001166,-177.38518840251663,0.1293493227098081,-149.96314072461078,12.0343,-0.0727,-5.618,32.3451,-0.0688,-9.4097,78.53434572125425,26.803146211227567,81.99025975595606,-20.698894924587673,-88.91512552897136,-41.52008056640625,1.0339181730062654,0.32649653972965653,0.5615944437461324,-0.8587985568576388,-0.06785074869791667,1.0856458875868056,0.8509,-0.4934,8.997,0.20273,-0.02064,-0.01756,0.001,0.001,0.001,0.0005,0.0005,0.0005,0.01,0.01,0.01,passive,-1
2.9013,excitation,multi_sine,13.042013983358487,-666.6307360798189,314.4525294609868,-177.38566045070408,0.12967599626825982,-149.96258740996325,13.2037,-0.0981,-5.92,33.1205,0.1709,-9.905,78.55300072396156,26.808000319074875,81.99874424698329,-20.712237887912327,-88.91574435763889,-41.502134535047745,1.1971630436359066,0.32649653972965653,0.5345229347153465,-0.8244747585720485,-0.06785074869791667,1.153496636284722,0.7591,-0.3509,8.4863,0.21087,-0.02063,-0.01362,0.001,0.001,0.001,0.0005,0.0005,0.0005,0.01,0.01,0.01,passive,-1
2.9209,excitation,multi_sine,13.378925385448268,-666.6314613901287,314.3038569650882,-177.38675445336224,0.1305019618148388,-149.96157655445978,14.1132,-0.0963,-6.1199,34.6607,0.3855,-12.1571,78.58228173586402,26.81549903189782,82.01196727186147,-20.73248969184028,-88.91671074761284,-41.474100748697914,1.251584798982828,0.32649653972965653,0.6115360071163366,-0.8583662245008681,-0.06785074869791667,1.2213473849826388,0.7429,-0.5173,8.3797,0.19033,-0.01321,-0.0156,0.001,0.001,0.001,0.0005,0.0005,0.0005,0.01,0.01,0.01,passive,-1
2.9409,excitation,multi_sine,13.607928480031907,-666.631511104427,314.2018090585486,-177.38741718108568,0.1310483827403573,-149.9613354671451,14.8285,-0.0524,-6.3943,38.9534,0.617,-17.134,78.60217406017945,26.820584287737855,82.02117240074837,-20.746544731987846,-88.91733805338542,-41.45461188422309,1.251584798982828,0.2720815828531095,0.5960015023108756,-0.8901214599609375,-0.06785074869791667,1.2213473849826388,0.6913,-0.4974,9.0056,0.18176,-0.02042,-0.02199,0.001,0.001,0.001,0.0005,0.0005,0.0005,0.01,0.01,0.01,passive,-1
2.9606,excitation,multi_sine,13.856676030251913,-666.6325527344268,314.0988836687966,-177.38776360581414,0.13133163183725388,-149.96029019632522,15.4719,-0.0165,-6.7702,41.6659,0.7275,-22.5513,78.62379319596998,26.825846303807626,82.03040472351678,-20.761244032118054,-88.91798231336806,-41.43420749240451,1.360414712735922,0.32649653972965653,0.5454004873143564,-0.9728749593098958,0.06785074869791667,1.2892066107855902,0.7188,-0.4518,8.5938,0.20025,-0.01027,-0.01617,0.001,0.001,0.001,0.0005,0.0005,0.0005,0.01,0.01,0.01,passive,-1
2.9807,excitation,multi_sine,14.288666619840566,-666.6363473397787,313.9152884370225,-177.38735720153673,0.13090915349774346,-149.9605910205276,16.0362,-0.0205,-7.1752,37.7775,0.7279,-24.9087,78.6613955356107,26.83530297609839,82.04726493004524,-20.78934563530816,-88.91918606228299,-41.39662848578559,1.360414712735922,0.3809114966062036,0.64341403470181,-1.0920291476779513,-0.06785074869791667,1.357057359483507,0.6647,-0.3859,8.371,0.20708,-0.01005,-0.01404,0.001,0.001,0.001,0.0005,0.0005,0.0005,0.01,0.01,0.01,passive,-1
3.0007,excitation,multi_sine,14.548232491904074,-666.6369023382756,313.8031767664102,-177.3866400994657,0.13027915170744686,-149.96096121580703,16.7072,-0.026,-7.6779,32.499,0.5137,-23.9429,78.68395965878327,26.840775744749767,82.05824445969988,-20.80747816297743,-88.91988118489583,-41.3739013671875,1.4692514249593904,0.32649653972965653,0.7267224906694771,-1.154539320203993,-0.06785074869791667,1.4249081081814237,0.7982,-0.4125,8.435,0.19859,-0.01906,-0.01846,0.001,0.001,0.001,0.0005,0.0005,0.0005,0.01,0.01,0.01,passive,-1
3.0209,excitation,multi_sine,14.943907666040799,-666.6331779213848,313.6071886571423,-177.3867937680281,0.13037947437053043,-149.9628138879176,17.5844,-0.0126,-8.3107,30.1662,0.0812,-21.4328,78.71829193417389,26.84985850116994,82.0775045262705,-20.836783515082466,-88.92100016276042,-41.33805168999566,1.5780813387124846,0.435333251953125,0.840882405196086,-1.2442440456814237,-0.06785074869791667,1.4927588568793402,0.8646,-0.3243,8.5625,0.20711,-0.01409,-0.01467,0.001,0.001,0.001,0.0005,0.0005,0.0005,0.01,0.01,0.01,passive,-1
3.0408,excitation,multi_sine,15.229831881290083,-666.6321239187882,313.46679460187715,-177.38715406758183,0.13064335401550425,-149.9627798721967,18.5249,-0.0103,-8.9378,29.6888,-0.0749,-18.9617,78.7431267464515,26.85665697154432,82.0907207526783,-20.857137044270832,-88.92178853352864,-41.313485039605034,1.5780813387124846,0.489748208829672,0.8093578980700804,-1.2891642252604167,-0.13570149739583334,1.5606180826822915,0.8413,-0.3982,8.489,0.19245,-0.02103,-0.02224,0.001,0.001,0.001,0.0005,0.0005,0.0005,0.01,0.01,0.01,passive,-1
3.0608,excitation,multi_sine,15.669607291456222,-666.6358978420553,313.2528748577572,-177.387289680981,0.13074856002919227,-149.96303169680263,19.061,-0.0114,-9.3078,29.0201,0.1343,-17.1723,78.78141573160002,26.867704485902692,82.10996722230817,-20.888476901584202,-88.92296685112846,-41.27530415852865,1.686918050935953,0.435333251953125,0.7925724747157333,-1.3309054904513888,-0.0,1.5606180826822915,0.8573,-0.3298,9.4097,0.1862,-0.02388,-0.02381,0.001,0.001,0.001,0.0005,0.0005,0.0005,0.01,0.01,0.01,passive,-1
3.0808,excitation,multi_sine,15.98453250602539,-666.6371426893011,313.10298443736207,-177.38763626909468,0.13101363605864755,-149.96185417415455,19.0338,-0.0036,-9.2441,25.9152,0.2358,-15.5792,78.80880676873839,26.875359563544244,82.12346898447169,-20.910025702582466,-88.92378913031683,-41.24933878580729,1.686918050935953,0.489748208829672,0.9167669315149288,-1.3570912679036458,0.06785074869791667,1.6284688313802083,0.7547,-0.5141,8.206,0.1849,-0.0254,-0.01576,0.001,0.001,0.001,0.0005,0.0005,0.0005,0.01,0.01,0.01,passive,-1
3.101,excitation,multi_sine,16.458090733303845,-666.6349691033599,312.8658002987409,-177.3887091169789,0.13189944969425105,-149.96149201555517,19.4438,-0.0118,-9.3639,22.1398,0.1306,-15.0637,78.84993751450341,26.886998544825186,82.14532606672532,-20.943417019314236,-88.92506069607205,-41.208953857421875,1.795747964689047,0.489748208829672,0.9250882592531714,-1.4240943060980902,-0.06785074869791667,1.7641703287760415,0.8556,-0.5108,8.4194,0.20096,-0.01804,-0.01882,0.001,0.001,0.001,0.0005,0.0005,0.0005,0.01,0.01,0.01,passive,-1
3.1211,excitation,multi_sine,16.792260073236015,-666.6357423456951,312.7068780656045,-177.3889163600801,0.1320918429947415,-149.960454062397,20.2765,-0.0107,-9.8528,22.3261,0.0855,-18.012,78.87899417688351,26.895088724570698,82.15975242085976,-20.966534084743923,-88.92589992947049,-41.18119981553819,1.795747964689047,0.489748208829672,0.8980847349261293,-1.466157701280382,-0.13570149739583334,1.7641703287760415,0.9425,-0.4653,8.7517,0.21076,-0.01477,-0.02394,0.001,0.001,0.001,0.0005,0.0005,0.0005,0.01,0.01,0.01,passive,-1
3.141,excitation,multi_sine,17.289127495898736,-666.6379153763393,312.4706802690736,-177.38844291534804,0.1316286333308502,-149.9604644093032,20.8908,0.0135,-10.394,23.9708,0.0589,-22.4621,78.92223924693495,26.907156009485227,82.1815279214689,-21.002400716145832,-88.927247789171,-41.13835652669271,1.9589996337890625,0.544163165706219,0.9539409675220452,-1.4903767903645833,-0.06785074869791667,1.8998803032769096,0.9716,-0.3747,8.7489,0.21405,-0.01891,-0.01817,0.001,0.001,0.001,0.0005,0.0005,0.0005,0.01,0.01,0.01,passive,-1
3.161,excitation,multi_sine,17.628294438047767,-666.6347284205334,312.3041935955199,-177.38835009098884,0.1315258684112773,-149.96079953357105,21.2746,0.0087,-10.8991,26.5393,-0.0998,-26.8345,78.9516834221264,26.915089824412128,82.19765389319694,-21.027535332573784,-88.92816331651476,-41.10886467827691,1.795747964689047,0.489748208829672,1.0549390434038521,-1.6172451443142362,-0.06785074869791667,1.832029554578993,0.8934,-0.3775,8.6339,0.19633,-0.02337,-0.02062,0.001,0.001,0.001,0.0005,0.0005,0.0005,0.01,0.01,0.01,passive,-1
3.181,excitation,multi_sine,17.97453657873463,-666.6329628580573,312.1265782252346,-177.38835496285378,0.13153113155153948,-149.9608574710708,21.5317,-0.0046,-11.3592,28.8335,-0.1148,-29.2483,78.98176665353303,26.92377147108021,82.21444611502166,-21.05394999186198,-88.92907036675346,-41.07902526855469,1.8501697200359684,0.5985781225827661,1.0351283007329053,-1.7167494032118056,-0.06785074869791667,1.832029554578993,0.9436,-0.3007,8.4365,0.21111,-0.0074,-0.01374,0.001,0.001,0.001,0.0005,0.0005,0.0005,0.01,0.01,0.01,passive,-1
3.2012,excitation,multi_sine,18.587857062543897,-666.6365537647445,311.79485228129056,-177.38843685431155,0.1316572969839188,-149.96172301026309,22.263,-0.0055,-12.036,27.7594,-0.0168,-27.1462,79.03517543679416,26.940876422542157,82.2443457877282,-21.102515326605904,-88.9306640625,-41.025305853949654,1.9045846769125154,0.6529998779296875,1.117002279451578,-1.8173895941840277,-0.06785074869791667,1.8998803032769096,1.0275,-0.4199,8.4456,0.20963,-0.01872,-0.0214,0.001,0.001,0.001,0.0005,0.0005,0.0005,0.01,0.01,0.01,passive,-1
3.2207,excitation,multi_sine,18.94244959528136,-666.6359598507463,311.5924747017693,-177.3889272604603,0.13205747634333131,-149.96217747183778,22.8682,-0.0051,-12.6199,25.4307,-0.0638,-22.2699,79.06602009688274,26.951006143399983,82.26285802255762,-21.131507025824654,-88.93162197536893,-40.99433898925781,1.795747964689047,0.6529998779296875,1.18641466197401,-1.8155076768663194,-0.06785074869791667,1.9677310519748263,0.8733,-0.4696,8.5778,0.19327,-0.02205,-0.02547,0.001,0.001,0.001,0.0005,0.0005,0.0005,0.01,0.01,0.01,passive,-1
3.2408,excitation,multi_sine,19.476193050873153,-666.636353197937,311.29522194932457,-177.38874664615014,0.13188952273139112,-149.9641860982153,23.1107,-0.0151,-12.896,23.5336,0.0139,-18.0553,79.11248084342125,26.96600356904587,82.29031024592938,-21.175723605685764,-88.93308851453993,-40.94637552897135,1.9589996337890625,0.5985781225827661,1.1490706642075341,-1.8119896782769096,-0.06785074869791667,1.9677310519748263,0.9131,-0.4045,9.402,0.18812,-0.0107,-0.02149,0.001,0.001,0.001,0.0005,0.0005,0.0005,0.01,0.01,0.01,passive,-1
3.2611,excitation,multi_sine,19.833010200503967,-666.6370266249013,311.09201913951955,-177.38828663714006,0.13153441200967297,-149.96607904396808,24.0493,-0.0122,-13.4267,21.0297,0.1854,-15.9101,79.14354985303218,26.976269259311184,82.30920319509978,-21.206495496961804,-88.93404642740886,-40.91376410590278,1.9589996337890625,0.6529998779296875,1.2251591446376082,-1.9563462999131944,-0.0,2.0355902777777777,1.1092,-0.4007,9.0475,0.19868,-0.01223,-0.02327,0.001,0.001,0.001,0.0005,0.0005,0.0005,0.01,0.01,0.01,passive,-1
3.2809,excitation,multi_sine,20.405532428442985,-666.6345921877147,310.7778353901265,-177.38793698104055,0.13118994626316413,-149.9660697006055,24.4519,0.0183,-13.6803,14.5052,0.2294,-13.9261,79.19334185005414,26.99190574117226,82.33863377335048,-21.253611246744793,-88.93557230631511,-40.86452060275607,2.122251302889078,0.6529998779296875,1.1838516386428681,-1.9527011447482638,-0.0,2.0355902777777777,0.9476,-0.3895,8.8104,0.20281,-0.0132,-0.01953,0.001,0.001,0.001,0.0005,0.0005,0.0005,0.01,0.01,0.01,passive,-1
3.301,excitation,multi_sine,20.802445407184717,-666.6375249787552,310.56121201312436,-177.38732403803283,0.1306670618390158,-149.96496518776797,24.3068,0.0116,-13.6105,8.3667,0.2903,-14.2646,79.227932467319,27.00329317904935,82.3581317863842,-21.28634982638889,-88.9365726047092,-40.83140903049045,2.176666259765625,0.7074148348062346,1.3001598698077816,-2.12387932671441,-0.0,2.103441026475694,1.0035,-0.4008,8.9904,0.18229,-0.00734,-0.0273,0.001,0.001,0.001,0.0005,0.0005,0.0005,0.01,0.01,0.01,passive,-1
3.3207,excitation,multi_sine,21.407611498120477,-666.6346643448026,310.2117943312804,-177.38812896781624,0.1313214681427526,-149.96293328974363,24.4233,0.005,-13.9071,6.1892,0.4262,-17.3513,79.28055942648709,27.02093520967087,82.38986704609182,-21.336271497938366,-88.93811543782552,-40.78138563368056,2.2855029719890934,0.7074148348062346,1.3581032328086324,-2.1306949191623263,-0.13570149739583334,2.103441026475694,1.0328,-0.3855,8.6454,0.19829,-0.01634,-0.02216,0.001,0.001,0.001,0.0005,0.0005,0.0005,0.01,0.01,0.01,passive,-1
3.3409,excitation,multi_sine,21.814094700271987,-666.6356464341044,309.98570784658574,-177.387533096689,0.1308880183608671,-149.96205715558514,24.6523,0.021,-14.4672,3.3907,0.5416,-19.7857,79.31595226325611,27.032648974125927,82.41045281438544,-21.37038336859809,-88.93909030490451,-40.74725680881076,2.2310880151125465,0.7618297916827815,1.283333655631188,-2.1782769097222223,-0.06785074869791667,2.171291775173611,1.0973,-0.3494,9.2179,0.19786,-0.03131,-0.02873,0.001,0.001,0.001,0.0005,0.0005,0.0005,0.01,0.01,0.01,passive,-1
3.3607,excitation,multi_sine,22.422475065721898,-666.6336995221296,309.6278708962294,-177.38758064582368,0.13090103244796722,-149.96037608268668,24.6008,0.0252,-14.897,2.4331,0.5809,-21.0196,79.36889195206142,27.050848479318148,82.44311266606397,-21.42279730902778,-88.94064161512587,-40.69659762912326,2.176666259765625,0.7618297916827815,1.3983705728360922,-2.291683620876736,-0.06785074869791667,2.103441026475694,1.0272,-0.3212,8.8358,0.20107,-0.01672,-0.01824,0.001,0.001,0.001,0.0005,0.0005,0.0005,0.01,0.01,0.01,passive,-1
3.3811,excitation,multi_sine,22.819360184615167,-666.6351754582345,309.38327278796254,-177.38738790699102,0.13068046125342583,-149.96018556305367,24.5303,0.0411,-15.3429,7.2781,0.7319,-23.0181,79.40348936779664,27.06359561127011,82.46506492690284,-21.458858913845486,-88.94170973036024,-40.66260443793403,2.176666259765625,0.8162515470297029,1.3613121108253403,-2.30666266547309,-0.06785074869791667,2.171291775173611,0.9313,-0.4561,8.2217,0.20129,0.00283,-0.02052,0.001,0.001,0.001,0.0005,0.0005,0.0005,0.01,0.01,0.01,passive,-1
3.401,excitation,multi_sine,23.20771451535259,-666.6356091476448,309.12957424110346,-177.38747265540445,0.1307888278657779,-149.9608814872426,24.9317,0.0584,-15.9446,11.3034,0.6357,-23.0734,79.43732535484993,27.07667586827042,82.48789419042002,-21.495708889431423,-88.94271002875433,-40.62849256727431,2.0134145906656093,0.87066650390625,1.4867302922919245,-2.3086971706814237,-0.06785074869791667,2.171291775173611,1.0874,-0.2711,8.2434,0.20988,-0.00597,-0.0248,0.001,0.001,0.001,0.0005,0.0005,0.0005,0.01,0.01,0.01,passive,-1
3.4208,excitation,multi_sine,23.88680076550271,-666.6307756450583,308.6825062763849,-177.38720635546332,0.13069719719507408,-149.96243391126214,25.0493,0.0738,-16.254,7.2341,-0.0392,-17.7167,79.49640406240331,27.09902244039101,82.52941924746673,-21.56172858344184,-88.94440544976128,-40.56861029730903,2.122251302889078,0.8162515470297029,1.4237492627436572,-2.4977959526909723,-0.06785074869791667,2.171291775173611,1.0432,-0.3549,8.5916,0.19687,-0.01446,-0.02237,0.001,0.001,0.001,0.0005,0.0005,0.0005,0.01,0.01,0.01,passive,-1
3.4408,excitation,multi_sine,24.284826223946705,-666.6310087680546,308.42421356603234,-177.38591147905487,0.13042781554329344,-149.96223496316523,25.0817,0.0758,-16.4717,-2.7018,-0.8333,-10.3267,79.53098788119779,27.112265860680306,82.55324788612894,-21.601028442382812,-88.94478691948784,-40.53465101453993,2.176666259765625,0.8162515470297029,1.5892308301264697,-2.4843682183159723,-0.0,2.103441026475694,1.1077,-0.2544,8.521,0.20303,-0.01045,-0.02735,0.001,0.001,0.001,0.0005,0.0005,0.0005,0.01,0.01,0.01,passive,-1
3.4608,excitation,multi_sine,24.88015412193223,-666.6292870201819,308.03250034874986,-177.38406334430363,0.13048929302676762,-149.96111264285707,25.0954,0.0618,-16.622,-15.8375,-1.495,-3.0298,79.58263586063197,27.13217858040687,82.58951092710589,-21.66013929578993,-88.94503275553386,-40.48475477430556,2.2310880151125465,0.8162515470297029,1.4166788535543007,-2.382676866319444,-0.0,2.0355902777777777,1.0119,-0.3507,8.2859,0.20136,-0.00284,-0.02086,0.001,0.001,0.001,0.0005,0.0005,0.0005,0.01,0.01,0.01,passive,-1
3.481,excitation,multi_sine,25.27794653091309,-666.6280766998196,307.7692003268427,-177.38392612519831,0.1308127656430381,-149.960142571718,25.3273,0.027,-16.9786,-29.5255,-1.9908,2.0353,79.6172264778968,27.145768722685258,82.61319679789024,-21.698354085286457,-88.94569396972656,-40.451558430989586,2.176666259765625,0.87066650390625,1.5054328842918472,-2.392637464735243,-0.06785074869791667,2.103441026475694,1.1707,-0.2695,8.7111,0.21607,-0.01827,-0.02678,0.001,0.001,0.001,0.0005,0.0005,0.0005,0.01,0.01,0.01,passive,-1
3.5006,excitation,multi_sine,25.870312266847723,-666.6262131712194,307.380288869008,-177.38401252605135,0.1306626108242238,-149.95824802684584,24.2934,-0.0532,-16.7493,-38.2527,-2.129,3.3602,79.66884726344949,27.16596017969717,82.64806615244044,-21.754989624023438,-88.9473385281033,-40.40248446994357,2.067836346012531,0.87066650390625,1.3612033352993502,-2.3465389675564237,-0.06785074869791667,2.103441026475694,0.9781,-0.3161,8.9333,0.18673,-0.01036,-0.02515,0.001,0.001,0.001,0.0005,0.0005,0.0005,0.01,0.01,0.01,passive,-1
3.5208,excitation,multi_sine,26.250935910409968,-666.6287334659912,307.1152557378782,-177.38443750581786,0.13081079908262136,-149.95757656339288,22.6715,-0.108,-16.2182,-45.6078,-1.8139,5.76,79.70209178358022,27.18022337054262,82.67086822207611,-21.792644924587673,-88.94846598307292,-40.37034776475694,2.067836346012531,0.87066650390625,1.4969687886757426,-2.353329128689236,-0.06785074869791667,2.0355902777777777,1.213,-0.3165,8.9951,0.21775,-0.01819,-0.02529,0.001,0.001,0.001,0.0005,0.0005,0.0005,0.01,0.01,0.01,passive,-1
3.5407,excitation,multi_sine,26.79388327622505,-666.6316614179857,306.716106089056,-177.38508990018107,0.13115910146957088,-149.9574659228202,21.5827,-0.1253,-16.0587,-50.3475,-1.0223,8.9274,79.74950431597115,27.201536575166305,82.70543164545947,-21.849263509114582,-88.95001729329427,-40.32369825575087,2.0134145906656093,0.87066650390625,1.4284741996538521,-2.394095526801215,-0.13570149739583334,1.8998803032769096,0.9826,-0.2936,8.9489,0.18625,-0.00444,-0.02748,0.001,0.001,0.001,0.0005,0.0005,0.0005,0.01,0.01,0.01,passive,-1
3.5611,excitation,multi_sine,27.141698942157642,-666.6346346507884,306.4513548530384,-177.38516905457269,0.13117020159470094,-149.95792018420616,20.7266,-0.1292,-16.0157,-50.6534,0.1387,11.9026,79.77989347854464,27.215745378248762,82.72839007991375,-21.887317233615452,-88.95096672905815,-40.29329087999132,1.8501697200359684,0.87066650390625,1.445966663927135,-2.3380618625217013,-0.0,1.8998803032769096,1.0983,-0.3383,8.7611,0.19224,0.00268,-0.02471,0.001,0.001,0.001,0.0005,0.0005,0.0005,0.01,0.01,0.01,passive,-1
3.5811,excitation,multi_sine,27.63195934271007,-666.6394996635113,306.0593472055594,-177.38546837058703,0.13122863942450297,-149.9594360660733,20.2862,-0.1153,-16.1924,-47.7517,1.3466,15.5567,79.82276463272548,27.236820636409345,82.76226005931892,-21.943367852105034,-88.95241631401909,-40.249549018012154,1.8501697200359684,0.9250814607827971,1.3896209414642635,-2.3786332872178817,-0.0,1.832029554578993,1.1111,-0.2648,8.9988,0.20568,-0.00919,-0.02384,0.001,0.001,0.001,0.0005,0.0005,0.0005,0.01,0.01,0.01,passive,-1
3.6006,excitation,multi_sine,27.938751307056815,-666.6430794835688,305.79894664636873,-177.3860552739034,0.13158336197633047,-149.96134003153188,19.2118,-0.0891,-15.6796,-42.8917,1.9581,19.3843,79.84961179223392,27.250879873143564,82.78448425897277,-21.979861789279514,-88.95336574978299,-40.22121853298611,1.686918050935953,0.87066650390625,1.4011103563969678,-2.270719740125868,-0.06785074869791667,1.696319580078125,1.0361,-0.3362,8.8643,0.18593,-0.01015,-0.02925,0.001,0.001,0.001,0.0005,0.0005,0.0005,0.01,0.01,0.01,passive,-1
3.6211,excitation,multi_sine,28.249583568829777,-666.6394933212028,305.5429632405291,-177.38708187328106,0.13240735275686696,-149.96147548445816,18.0625,-0.0313,-14.9278,-48.2651,1.9372,29.5718,79.87667650279433,27.263946533203125,82.80728632860844,-22.01525370279948,-88.95418802897136,-40.19442240397135,1.686918050935953,0.8162515470297029,1.349088461092203,-2.266854180230035,-0.06785074869791667,1.696319580078125,1.2029,-0.1442,8.9841,0.21001,-0.0187,-0.02795,0.001,0.001,0.001,0.0005,0.0005,0.0005,0.01,0.01,0.01,passive,-1
3.641,excitation,multi_sine,28.752557448013345,-666.6403634878106,305.1385096776185,-177.38695734367954,0.13216811619714944,-149.95982240733744,17.2704,0.0257,-14.4202,-63.7289,1.8088,44.9509,79.92058102447207,27.285293730178683,82.84303268583695,-22.073898315429688,-88.95551045735677,-40.15284220377604,1.5236663818359375,0.7074148348062346,1.189324407294245,-2.037345038519965,-0.0,1.357057359483507,1.0477,-0.3012,8.39,0.19776,-0.01424,-0.02368,0.001,0.001,0.001,0.0005,0.0005,0.0005,0.01,0.01,0.01,passive,-1
3.6609,excitation,multi_sine,29.022789199308342,-666.6384877875134,304.9179691589509,-177.3872820269349,0.13232383162842112,-149.9572400586356,15.9258,0.065,-13.3792,-78.8139,1.5278,59.008,79.94413092584894,27.296715160407643,82.8626802652189,-22.10526360405816,-88.95619710286458,-40.13223436143663,1.360414712735922,0.7074148348062346,1.178766382802831,-1.9231330023871527,-0.06785074869791667,1.2892066107855902,1.0162,-0.1386,9.0431,0.19862,-0.01519,-0.02154,0.001,0.001,0.001,0.0005,0.0005,0.0005,0.01,0.01,0.01,passive,-1
3.6808,excitation,multi_sine,29.3692505924627,-666.640751885375,304.618810360025,-177.38741332108373,0.1323208316084843,-149.95645038132056,14.3227,0.0762,-12.1275,-90.8562,0.952,69.6681,79.97441131289642,27.312711961198563,82.88868441440091,-22.148072984483505,-88.9571295844184,-40.103234185112846,1.251584798982828,0.6529998779296875,1.0604594013478497,-1.631707085503472,-0.0,1.153496636284722,0.9424,-0.1918,8.5557,0.19235,-0.00893,-0.01965,0.001,0.001,0.001,0.0005,0.0005,0.0005,0.01,0.01,0.01,passive,-1
3.7008,excitation,multi_sine,29.584663717639827,-666.6382016944332,304.43443632048877,-177.3878999473129,0.13264702904443837,-149.95537810102834,12.5053,0.0595,-10.7828,-103.1399,0.1005,79.3047,79.99317509112971,27.32216183501895,82.90517070505878,-22.173970540364582,-88.95769755045573,-40.085839165581596,1.0883331298828125,0.544163165706219,0.9904079626102259,-1.5496826171875,-0.0,0.9499359130859375,0.9307,-0.1899,8.7476,0.17889,-0.00974,-0.02195,0.001,0.001,0.001,0.0005,0.0005,0.0005,0.01,0.01,0.01,passive,-1
3.7206,excitation,multi_sine,29.843320788966253,-666.6336020978281,304.20392356360014,-177.38810602809963,0.13271019216733046,-149.9547394326932,9.7173,0.0662,-8.7478,-113.4848,-0.6278,86.5361,80.01569162500967,27.3336920407739,82.92642272344911,-22.207226223415798,-88.95840115017361,-40.06434122721354,0.8162515470297029,0.435333251953125,0.7699199714282952,-1.2560950385199652,-0.06785074869791667,0.7463751898871528,0.8599,-0.1849,9.1313,0.18618,-0.00964,-0.02357,0.001,0.001,0.001,0.0005,0.0005,0.0005,0.01,0.01,0.01,passive,-1
3.7409,excitation,multi_sine,29.978451446555596,-666.6340073794354,304.08242662905315,-177.38756811092188,0.13221342518307572,-149.95460276155893,7.4158,0.074,-6.9767,-118.0325,-0.9964,88.5281,80.02750056804997,27.340035013633198,82.93750423015935,-22.22574022081163,-88.95876566569011,-40.052880181206596,0.7074148348062346,0.3809114966062036,0.6608589096824722,-1.0418870713975694,-0.0,0.6106736924913194,0.9202,-0.1497,8.6624,0.18103,-0.0122,-0.02093,0.001,0.001,0.001,0.0005,0.0005,0.0005,0.01,0.01,0.01,passive,-1
3.7609,excitation,multi_sine,30.133147846549008,-666.6339231807943,303.93515051119624,-177.38733745303094,0.1319291929538955,-149.95433161220015,5.3026,0.0466,-5.2929,-118.0655,-1.1513,87.2536,80.04101592715423,27.347676494334003,82.95081563515238,-22.24745856391059,-88.9592064751519,-40.03988477918837,0.489748208829672,0.2720815828531095,0.48963263483330755,-0.7813093397352431,-0.0,0.4071129692925347,1.0285,-0.0699,9.1582,0.18368,-0.02283,-0.02813,0.001,0.001,0.001,0.0005,0.0005,0.0005,0.01,0.01,0.01,passive,-1
3.7807,excitation,multi_sine,30.203136057194655,-666.633082810845,303.860661366264,-177.38767956375818,0.13215855732067378,-149.95427781941848,2.8694,0.0024,-3.4527,-111.5845,-1.1777,82.3696,80.04712095355043,27.35147004080291,82.9574441437674,-22.25765652126736,-88.95941840277777,-40.03395080566406,0.2720815828531095,0.2176666259765625,0.36509825451539296,-0.5177646213107638,-0.06785074869791667,0.339262220594618,0.9576,-0.0624,8.7174,0.18218,-0.02232,-0.02771,0.001,0.001,0.001,0.0005,0.0005,0.0005,0.01,0.01,0.01,passive,-1
3.8007,excitation,multi_sine,30.25796094716305,-666.6320881185856,303.7837103527964,-177.3885499208629,0.13279476932884487,-149.95443530112357,0.6378,-0.0326,-1.8879,-99.474,-1.0886,73.9805,80.051907076694,27.355358765857055,82.96409304779355,-22.267269558376736,-88.95962185329861,-40.02911885579427,0.05441495687654703,0.05441495687654703,0.17739248747872835,-0.2530924479166667,-0.0,0.13570149739583334,1.0305,0.1347,8.7643,0.19955,-0.00583,-0.02379,0.001,0.001,0.001,0.0005,0.0005,0.0005,0.01,0.01,0.01,passive,-1
3.8206,excitation,multi_sine,30.24258370023802,-666.6311214725863,303.77063594234676,-177.38810123988594,0.13237612595671855,-149.95662329506,-1.1967,-0.037,-0.6282,-86.9519,-0.7045,64.9983,80.05057457650062,27.355671495494274,82.96605780573175,-22.27018568250868,-88.95967271592882,-40.028296576605904,-0.2176666259765625,-0.05441495687654703,0.026643205397199877,-0.12262980143229166,-0.0,-0.0,0.9324,-0.0253,8.6038,0.19035,-0.01676,-0.02179,0.001,0.001,0.001,0.0005,0.0005,0.0005,0.01,0.01,0.01,passive,-1
3.8411,excitation,multi_sine,30.19333233788997,-666.6355320000275,303.7933693268972,-177.38601691314082,0.13059635733319128,-149.96053514666784,-2.9061,-0.0462,0.622,-79.2003,-0.1106,59.7227,80.04637992027962,27.354556546352878,82.96491566270885,-22.270660400390625,-88.95968967013889,-40.028584798177086,-0.2720815828531095,-0.10882991375309406,-0.17334059913559716,0.034586588541666664,-0.0,-0.0,0.8787,-0.0914,8.154,0.18797,-0.00388,-0.02151,0.001,0.001,0.001,0.0005,0.0005,0.0005,0.01,0.01,0.01,passive,-1
3.8607,excitation,multi_sine,30.084000311502436,-666.637586814736,303.83258199921596,-177.38502876699366,0.12964282352407663,-149.96625009675793,-4.3237,-0.0537,1.7832,-71.6625,0.1963,55.6329,80.03693004645923,27.35220427560334,82.96239343019995,-22.267040676540798,-88.95967271592882,-40.03228081597222,-0.435333251953125,-0.05441495687654703,-0.10919703115331064,0.3258090549045139,0.06785074869791667,-0.2714114718967014,0.8901,0.1216,7.7514,0.18604,-0.0066,-0.01412,0.001,0.001,0.001,0.0005,0.0005,0.0005,0.01,0.01,0.01,passive,-1
3.8809,excitation,multi_sine,30.00921010958971,-666.6367229004052,303.8522868625575,-177.3869023777399,0.13099239783700195,-149.9659181494392,-5.527,-0.0404,2.8178,-64.1772,0.2307,51.8912,80.03041711184058,27.35105533411007,82.95995277933555,-22.260937160915798,-88.95963033040364,-40.0390625,-0.435333251953125,-0.05441495687654703,-0.18192026874806622,0.4542117648654514,-0.0,-0.5428229437934028,0.8841,-0.0842,8.043,0.16612,-0.01914,-0.02319,0.001,0.001,0.001,0.0005,0.0005,0.0005,0.01,0.01,0.01,passive,-1
3.9011,excitation,multi_sine,29.882247913482296,-666.6361179585824,303.90835744596757,-177.39001287241686,0.1332274900856476,-149.96287318501183,-6.7372,-0.0119,3.7943,-64.1182,0.1726,52.3041,80.01935600054146,27.34816598420096,82.9534398447169,-22.24728054470486,-88.95948621961806,-40.05302429199219,-0.544163165706219,-0.16324487062964108,-0.42879992192334465,0.6681993272569444,-0.0,-0.678524441189236,0.874,-0.0682,8.0641,0.16777,-0.01662,-0.02553,0.001,0.001,0.001,0.0005,0.0005,0.0005,0.01,0.01,0.01,passive,-1
3.921,excitation,multi_sine,29.770714983031343,-666.6383601291279,303.981635587449,-177.39044908842934,0.13333611099292378,-149.961201229993,-7.9961,0.0014,4.7722,-67.5323,0.1894,53.1956,80.00968177719872,27.344501608669166,82.94646461411278,-22.235887315538193,-88.95934210883246,-40.06424797905816,-0.6529998779296875,-0.2720815828531095,-0.4946974952622215,0.8028327094184028,-0.0,-0.7463751898871528,0.7856,-0.0245,8.1436,0.17668,-0.00868,-0.01947,0.001,0.001,0.001,0.0005,0.0005,0.0005,0.01,0.01,0.01,passive,-1
3.9409,excitation,multi_sine,29.56235190478613,-666.63786977315,304.1248873038632,-177.3905844775528,0.13309958183495035,-149.9594173443702,-9.6071,-0.028,6.0326,-71.8478,0.2296,53.4169,79.99152986129911,27.336656173857133,82.93423416590926,-22.215245564778645,-88.95901150173611,-40.083957248263886,-0.8162515470297029,-0.32649653972965653,-0.5494795695389851,0.9837765163845485,0.06785074869791667,-0.8820851643880208,0.7996,0.0461,8.1576,0.17844,-0.0001,-0.01739,0.001,0.001,0.001,0.0005,0.0005,0.0005,0.01,0.01,0.01,passive,-1
3.9606,excitation,multi_sine,29.399835994461355,-666.6363783299481,304.22853153941526,-177.39110482756783,0.13339673918540215,-149.9584845086188,-10.8054,-0.0432,6.9611,-72.9722,0.1293,51.5458,79.97734145362779,27.33085028015741,82.9253621620707,-22.199512057834202,-88.95866394042969,-40.0989023844401,-0.9250814607827971,-0.3809114966062036,-0.612542180731745,1.0103522406684027,0.06785074869791667,-1.0177951388888888,0.6559,-0.0529,8.0077,0.17781,0.0016,-0.01328,0.001,0.001,0.001,0.0005,0.0005,0.0005,0.01,0.01,0.01,passive,-1
3.9809,excitation,multi_sine,29.112121314337763,-666.6364831377716,304.4077280749916,-177.39136656575903,0.133463097282251,-149.95767548183497,-12.4354,-0.0222,8.061,-73.1243,0.2228,49.3418,79.95226189641669,27.321040087407177,82.90994323126161,-22.173241509331596,-88.95800272623698,-40.12449476453993,-1.1427480867593596,-0.435333251953125,-0.7074624240988552,1.1839633517795138,-0.0,-1.0856458875868056,0.8804,0.1276,8.4035,0.20306,-0.01364,-0.02149,0.001,0.001,0.001,0.0005,0.0005,0.0005,0.01,0.01,0.01,passive,-1
4.0009,excitation,multi_sine,28.898929475244564,-666.6384288217578,304.5455351389447,-177.3911873209036,0.1332612225769442,-149.95736233263943,-14.0696,-0.0033,9.0977,-73.4264,0.7774,47.4887,79.93370207229464,27.31373853022509,82.89787594634707,-22.15355767144097,-88.95747714572482,-40.14314439561632,-1.251584798982828,-0.435333251953125,-0.8161495699740873,1.3195461697048612,-0.0,-1.2213473849826388,0.7954,0.1286,8.9529,0.17938,-0.00797,-0.02035,0.001,0.001,0.001,0.0005,0.0005,0.0005,0.01,0.01,0.01,passive,-1
4.0209,excitation,multi_sine,28.533464694307426,-666.64338683439,304.777805120145,-177.3902836833751,0.1325989777450394,-149.95796266018516,-15.5605,0.0165,9.9872,-69.2088,1.4414,42.5306,79.90189882788327,27.3015556713142,82.87758931074993,-22.12124294704861,-88.95646837022569,-40.1739756266276,-1.4692514249593904,-0.544163165706219,-0.8679131234046256,1.413964165581597,0.06785074869791667,-1.357057359483507,0.7738,-0.0863,8.2889,0.16856,-0.00709,-0.0211,0.001,0.001,0.001,0.0005,0.0005,0.0005,0.01,0.01,0.01,passive,-1
4.0407,excitation,multi_sine,28.272065079954054,-666.6409920306603,304.940542468267,-177.39004238699872,0.13253393924539417,-149.95788502873123,-16.7101,0.0268,10.6815,-64.2745,1.5726,37.0927,79.87904916895498,27.292323348545793,82.86427110728651,-22.09821065266927,-88.95567152235243,-40.196634928385414,-1.360414712735922,-0.5985781225827661,-0.8476876740408416,1.4895799424913194,-0.0,-1.4249081081814237,1.0426,-0.1936,8.4801,0.17599,-0.01974,-0.02908,0.001,0.001,0.001,0.0005,0.0005,0.0005,0.01,0.01,0.01,passive,-1
4.0611,excitation,multi_sine,27.93465981523781,-666.6344424468984,305.16131971861216,-177.3896717510647,0.13240587370643314,-149.95695804355452,-17.8539,0.0546,11.3343,-62.8329,1.1965,33.248,79.84949621823755,27.27948783647896,82.84672425525024,-22.067252265082466,-88.95461188422308,-40.226754082573784,-1.5780813387124846,-0.6529998779296875,-0.9197446615389078,1.6160668267144096,-0.0,-1.5606180826822915,0.9777,-0.07,8.2646,0.18732,0.00106,-0.02168,0.001,0.001,0.001,0.0005,0.0005,0.0005,0.01,0.01,0.01,passive,-1
4.0811,excitation,multi_sine,27.486636358899432,-666.6351862885483,305.453424949149,-177.3879877470593,0.13119013591050022,-149.95673654540647,-19.3983,0.1152,12.1976,-63.5735,0.8083,30.2151,79.8104186105256,27.263572617332535,82.8223993282507,-22.027867635091145,-88.95327250162761,-40.26559617784288,-1.7413330078125,-0.544163165706219,-1.0478142464515006,1.7068905300564237,0.06785074869791667,-1.6284688313802083,1.1578,-0.2988,7.9391,0.20175,-0.02458,-0.0252,0.001,0.001,0.001,0.0005,0.0005,0.0005,0.01,0.01,0.01,passive,-1
4.1006,excitation,multi_sine,27.170177643345216,-666.6343779083548,305.650953839166,-177.38730540029414,0.13072888528819696,-149.95689968063738,-20.339,0.1413,12.6163,-60.3602,0.3111,25.7117,79.78280322386486,27.252681467792776,82.80594023147432,-22.00048658582899,-88.95235697428386,-40.29273139105903,-1.795747964689047,-0.7074148348062346,-1.008655057095065,1.6986762152777777,0.06785074869791667,-1.696319580078125,1.2229,-0.1665,9.1188,0.20677,-0.01731,-0.03025,0.001,0.001,0.001,0.0005,0.0005,0.0005,0.01,0.01,0.01,passive,-1
4.1209,excitation,multi_sine,26.674586207730236,-666.6309319245472,305.9461036548049,-177.38754935239584,0.13103802497737999,-149.95670472959708,-21.3072,0.1173,12.9279,-54.799,-0.3794,20.1889,79.73953095993193,27.23626996030902,82.78096944978921,-21.957372029622395,-88.95096672905815,-40.335701836480034,-1.9045846769125154,-0.7074148348062346,-1.1151530955097462,1.8260955810546875,-0.0,-1.7641703287760415,1.1132,-0.3084,8.1817,0.20072,-0.00833,-0.01848,0.001,0.001,0.001,0.0005,0.0005,0.0005,0.01,0.01,0.01,passive,-1
4.1409,excitation,multi_sine,26.3225610821907,-666.631448778201,306.15495500085854,-177.38732861089477,0.1308985588424233,-149.95682090869587,-22.8829,0.077,13.5208,-52.7523,-1.1405,16.7018,79.70884946313235,27.225011693369044,82.76293310788598,-21.927388509114582,-88.95000881618924,-40.36592271592882,-1.9589996337890625,-0.7074148348062346,-1.137622040097076,1.9147152370876737,0.13570149739583334,-1.8998803032769096,1.0931,-0.3919,8.7511,0.20453,-0.01756,-0.02697,0.001,0.001,0.001,0.0005,0.0005,0.0005,0.01,0.01,0.01,passive,-1
4.1607,excitation,multi_sine,25.77405504390783,-666.6253902229048,306.4811267119164,-177.38726426286314,0.13086924391370947,-149.95631256948693,-24.255,0.0586,13.9511,-50.6075,-1.9163,14.1084,79.66094064240409,27.20666262182859,82.73585480038483,-21.88052707248264,-88.94852532280815,-40.41380140516493,-2.067836346012531,-0.8162515470297029,-1.1436794772006498,1.994561089409722,0.06785074869791667,-2.103441026475694,1.2579,-0.2543,8.7251,0.2097,-0.00895,-0.03264,0.001,0.001,0.001,0.0005,0.0005,0.0005,0.01,0.01,0.01,passive,-1
4.1808,excitation,multi_sine,25.385128958586638,-666.6242046398584,306.70842889434374,-177.38693343182075,0.13058266407720656,-149.9564275692506,-24.8056,0.0287,14.0384,-50.3051,-2.2742,14.0271,79.62702987217666,27.194241816454593,82.71654714452158,-21.848186916775173,-88.947508070204,-40.44722663031684,-2.122251302889078,-0.7618297916827815,-1.2689344953782487,2.0880550808376737,0.06785074869791667,-2.171291775173611,1.2764,-0.2199,8.7781,0.21514,-0.01602,-0.02648,0.001,0.001,0.001,0.0005,0.0005,0.0005,0.01,0.01,0.01,passive,-1
4.2006,excitation,multi_sine,24.763006812411938,-666.6270924062898,307.05214043854966,-177.3869910453267,0.1306449737108377,-149.95758560323046,-25.3048,-0.0259,14.0984,-52.0555,-2.0493,16.6297,79.57287325717435,27.176089900554995,82.6860764003036,-21.797832912868923,-88.94589742024739,-40.49964904785156,-2.2855029719890934,-0.7618297916827815,-1.2736254399365718,2.2235785590277777,-0.0,-2.2391425238715277,1.1261,-0.3072,8.5001,0.19748,-0.01299,-0.02842,0.001,0.001,0.001,0.0005,0.0005,0.0005,0.01,0.01,0.01,passive,-1
4.2211,excitation,multi_sine,24.32909133144601,-666.6262257556315,307.28477966703093,-177.38745552554425,0.1310562840361121,-149.958761393869,-26.454,-0.0628,14.4633,-51.1249,-1.6397,17.9039,79.53506016495204,27.163512730362392,82.66570818306195,-21.76312764485677,-88.94477844238281,-40.535888671875,-2.503169597965656,-0.7074148348062346,-1.338476048837794,2.2115241156684027,0.13570149739583334,-2.307001749674479,1.0709,-0.2324,8.7806,0.19054,-0.02297,-0.02744,0.001,0.001,0.001,0.0005,0.0005,0.0005,0.01,0.01,0.01,passive,-1
4.2411,excitation,multi_sine,23.655168355686122,-666.6301500692786,307.6582299432967,-177.38662473748,0.13036316380786603,-149.95975492144856,-27.9582,-0.1023,15.0555,-51.2415,-1.136,19.0294,79.476423357973,27.143960329565672,82.63276279562771,-21.709916856553818,-88.94302368164062,-40.59292263454861,-2.557584554842203,-0.8162515470297029,-1.345804799901377,2.1662224663628473,0.06785074869791667,-2.4427032470703125,1.2077,-0.2628,8.525,0.20081,-0.01537,-0.02574,0.001,0.001,0.001,0.0005,0.0005,0.0005,0.01,0.01,0.01,passive,-1
4.261,excitation,multi_sine,23.19221083835466,-666.6311868361155,307.90180921847826,-177.38706758903217,0.13073693223140598,-149.96041548394163,-28.9077,-0.1308,15.4237,-56.4686,-0.296,22.9863,79.43612202559368,27.131145212909964,82.6108989149037,-21.67342291937934,-88.94182840983073,-40.63214619954427,-2.503169597965656,-0.7618297916827815,-1.4040336986579518,2.2821807861328125,-0.0,-2.510553995768229,1.0636,-0.246,8.6046,0.20296,-0.01286,-0.02036,0.001,0.001,0.001,0.0005,0.0005,0.0005,0.01,0.01,0.01,passive,-1
4.2811,excitation,multi_sine,22.72783119386869,-666.6349934971718,308.15081797626243,-177.38719360254916,0.13090490087287182,-149.9599703249965,-30.1482,-0.1155,16.0231,-58.9006,0.7116,25.6921,79.39573231309947,27.118452468720992,82.58804245750503,-21.636394924587673,-88.94054836697049,-40.67255655924479,-2.61199951171875,-0.7618297916827815,-1.4931412498549659,2.3575592041015625,0.06785074869791667,-2.5784132215711804,0.8971,-0.3471,8.1932,0.19676,-0.00765,-0.01611,0.001,0.001,0.001,0.0005,0.0005,0.0005,0.01,0.01,0.01,passive,-1
4.3007,excitation,multi_sine,21.88953916461942,-666.635021157074,308.5889530181173,-177.38849853684346,0.13206964284857325,-149.9595000538994,-31.3115,-0.0948,16.5444,-50.2856,1.3905,22.5712,79.32273033821937,27.095494034266707,82.54831219663714,-21.56966315375434,-88.93829345703125,-40.7452646891276,-2.6664212670656715,-0.87066650390625,-1.402096134601253,2.3922136094835067,0.06785074869791667,-2.714114718967014,0.9481,-0.136,8.9634,0.20839,-0.01642,-0.02363,0.001,0.001,0.001,0.0005,0.0005,0.0005,0.01,0.01,0.01,passive,-1
4.3207,excitation,multi_sine,21.396430747689227,-666.6375251392519,308.855505306262,-177.38837422047135,0.13196667221600267,-149.9589490691952,-31.8579,-0.0568,16.6849,-40.2209,1.7617,18.0592,79.2798387886274,27.081856302695698,82.52407564975248,-21.530592176649304,-88.93697950575087,-40.788260565863716,-2.7752511808187657,-0.87066650390625,-1.5616358388768565,2.4416944715711804,0.06785074869791667,-2.781973944769965,0.9173,-0.0481,9.0643,0.20336,-0.01803,-0.02099,0.001,0.001,0.001,0.0005,0.0005,0.0005,0.01,0.01,0.01,passive,-1
4.341,excitation,multi_sine,20.62878564895315,-666.6392667109703,309.25615553966605,-177.38866561036915,0.1322076532069392,-149.95894390895364,-32.874,-0.0004,17.1577,-34.3256,1.8714,14.7559,79.21305061566947,27.06120254969833,82.48766304242729,-21.471057467990452,-88.93497043185764,-40.85437350802951,-2.8296661376953125,-0.87066650390625,-1.531844941696318,2.54439459906684,0.06785074869791667,-2.9176754421657987,0.9377,-0.0317,8.9922,0.20111,-0.02464,-0.01746,0.001,0.001,0.001,0.0005,0.0005,0.0005,0.01,0.01,0.01,passive,-1
4.361,excitation,multi_sine,20.095823779375994,-666.6408254525842,309.53769931846125,-177.3880682423667,0.1316959711102756,-149.95961697748203,-33.9269,0.0394,17.7158,-27.4345,1.4353,10.4259,79.16669864465695,27.046715009330523,82.46242712039759,-21.430689493815105,-88.93358866373698,-40.89959038628472,-2.884087893042234,-0.9250814607827971,-1.5980076553797957,2.532365587022569,0.13570149739583334,-2.781973944769965,0.7424,-0.2927,8.2301,0.18503,-0.01847,-0.01202,0.001,0.001,0.001,0.0005,0.0005,0.0005,0.01,0.01,0.01,passive,-1
4.3811,excitation,multi_sine,19.276836647790006,-666.6362670351147,309.9566602104872,-177.3879908331877,0.13155332767879258,-149.96042342876427,-33.8302,0.0519,17.5843,-22.9309,0.6859,7.2475,79.0953758919593,27.024450018854424,82.42560660484993,-21.369544135199654,-88.93151177300346,-40.96940782335069,-2.992917806795328,-0.9250814607827971,-1.5293499030689202,2.536595662434896,0.06785074869791667,-2.9176754421657987,0.9599,-0.1865,8.8242,0.19496,-0.01335,-0.02225,0.001,0.001,0.001,0.0005,0.0005,0.0005,0.01,0.01,0.01,passive,-1
4.4011,excitation,multi_sine,18.725396625730102,-666.6361112657344,310.23985907759374,-177.3878128034395,0.1313413616835788,-149.96013577177038,-34.1547,0.0532,17.6437,-26.331,-0.0646,7.9131,79.04740588499767,27.00987409837175,82.40003075930152,-21.328150431315105,-88.93009609646268,-41.01719326443142,-2.938502849918781,-0.87066650390625,-1.6048333196356745,2.610143025716146,0.06785074869791667,-2.985526190863715,0.9245,-0.2192,8.5076,0.19503,-0.0051,-0.01919,0.001,0.001,0.001,0.0005,0.0005,0.0005,0.01,0.01,0.01,passive,-1
4.4207,excitation,multi_sine,17.905623971512437,-666.632235413527,310.6640465349589,-177.38844516658617,0.1319110852273325,-149.95870169656004,-35.0517,0.0589,17.9659,-32.5655,-0.7299,9.6567,78.97602194606668,26.987908240592127,82.36149023074915,-21.26450432671441,-88.92788357204861,-41.0892825656467,-2.884087893042234,-0.9250814607827971,-1.667107308265006,2.7029249403211804,0.06785074869791667,-2.985526190863715,0.9006,-0.1577,8.7439,0.20609,-0.01526,-0.0185,0.001,0.001,0.001,0.0005,0.0005,0.0005,0.01,0.01,0.01,passive,-1
4.4408,excitation,multi_sine,17.353956588536626,-666.6321311754548,310.9567485393305,-177.38840852020382,0.13194790672082968,-149.95717045027294,-35.2004,0.032,17.8858,-32.4013,-0.9838,8.75,78.92802474522354,26.97316235835009,82.33447310948135,-21.22118631998698,-88.9263407389323,-41.138314141167534,-2.992917806795328,-0.87066650390625,-1.7072590742961016,2.692269219292535,0.06785074869791667,-3.0533854166666665,0.8866,-0.3323,8.3896,0.19385,-0.02516,-0.02058,0.001,0.001,0.001,0.0005,0.0005,0.0005,0.01,0.01,0.01,passive,-1
4.4611,excitation,multi_sine,16.49265227256842,-666.633782786508,311.3908299788025,-177.3888230757229,0.1322883370452206,-149.95631907423976,-36.0382,-0.0091,18.1501,-35.4784,-0.6831,11.0462,78.85315998946086,26.95163160267443,82.29366869029433,-21.155929565429688,-88.92407735188802,-41.21328565809462,-3.1561694758953434,-0.9250814607827971,-1.7429510437616027,2.7641805013020835,0.06785074869791667,-3.1890869140625,0.7778,-0.3535,8.192,0.19113,-0.00539,-0.0245,0.001,0.001,0.001,0.0005,0.0005,0.0005,0.01,0.01,0.01,passive,-1
4.4811,excitation,multi_sine,15.89290293328247,-666.6354241286934,311.6856050429941,-177.3885732570253,0.13208649442301415,-149.95730956378486,-37.1848,-0.0216,18.5719,-44.2262,-0.1677,16.9687,78.80105651251161,26.937055682191755,82.26614168374846,-21.112535264756943,-88.92252604166667,-41.26390245225694,-3.319421144995359,-0.979496417659344,-1.6629738382773824,2.6834784613715277,0.06785074869791667,-3.2569376627604165,0.789,-0.412,8.2504,0.18563,-0.00015,-0.02384,0.001,0.001,0.001,0.0005,0.0005,0.0005,0.01,0.01,0.01,passive,-1
4.501,excitation,multi_sine,15.133189947266473,-666.6339326768657,312.06476535587245,-177.3877109036363,0.13127556443565536,-149.9584032660956,-38.329,-0.0239,19.0239,-37.1396,0.2935,14.9385,78.73501617129486,26.917911189617495,82.23164624506884,-21.05802747938368,-88.92061021592882,-41.328226725260414,-3.2105844327718907,-0.9250814607827971,-1.6732667224241955,2.7203877766927085,0.13570149739583334,-3.324796888563368,0.7462,-0.3346,8.4593,0.18343,-0.01356,-0.01412,0.001,0.001,0.001,0.0005,0.0005,0.0005,0.01,0.01,0.01,passive,-1
4.5206,excitation,multi_sine,14.216206515034292,-666.6340449380742,312.51402715875156,-177.3873855176864,0.13095579987552958,-149.9587099938912,-38.7186,-0.0116,19.1695,-17.5071,0.7181,6.5106,78.6553448969775,26.895761773137764,82.18958410886255,-20.991761949327255,-88.91824510362413,-41.4068349202474,-3.373836101871906,-0.87066650390625,-1.7171440502204518,2.7331966824001737,0.13570149739583334,-3.324796888563368,0.8195,-0.2321,8.1426,0.22105,-0.00316,-0.01227,0.001,0.001,0.001,0.0005,0.0005,0.0005,0.01,0.01,0.01,passive,-1
4.5407,excitation,multi_sine,13.604896274381083,-666.6361691580129,312.817805333687,-177.38729015037543,0.13087470127248804,-149.95927255812762,-38.1773,0.0318,18.9285,-1.0304,0.892,-1.0695,78.60227603723507,26.881226643477337,82.1604050740157,-20.94651116265191,-88.91666836208768,-41.458825005425346,-3.2650061881188117,-0.87066650390625,-1.8399040297706528,2.8923967149522567,0.13570149739583334,-3.1890869140625,0.8315,-0.2924,7.9553,0.20248,-0.00952,-0.01383,0.001,0.001,0.001,0.0005,0.0005,0.0005,0.01,0.01,0.01,passive,-1
