t,trajectory_type,trajectory_variant,x,y,z,rx,ry,rz,vx,vy,vz,ax,ay,az,j1,j2,j3,j4,j5,j6,dj1,dj2,dj3,dj4,dj5,dj6,fx,fy,fz,tx,ty,tz,Mx,My,Mz,Bx,By,Bz,Kx,Ky,Kz,mode,comfort
0.0009,excitation,multi_sine,41.42595433989535,-666.6345590932491,296.003349698651,-177.38833590755482,0.13142701112324123,-149.96167807360467,-0.0605,-0.0307,0.2843,0.9917,0.8521,-2.9457,81.02759635094368,27.800876126431003,83.59955967062771,-23.379262288411457,-88.99001227484808,-39.05893113878038,0.05441495687654703,0.05441495687654703,-0.021761903668394183,0.0021616617838541665,-0.0,-0.06785074869791667,1.5352,0.0365,10.4899,0.21701,0.00135,-0.03685,0.001,0.001,0.001,0.0005,0.0005,0.0005,0.01,0.01,0.01,passive,-1
0.0211,excitation,multi_sine,41.425961565032054,-666.6346139038276,296.00311809069325,-177.38834641311487,0.13144642473482518,-149.96167779152304,-0.0153,-0.0222,0.1738,0.4806,0.6846,-4.3148,81.02759635094368,27.800896521842127,83.59955967062771,-23.379262288411457,-88.99000379774306,-39.05893113878038,-0.0,0.05441495687654703,-0.03416231363126547,-0.0,-0.0,-0.0,1.5811,0.0603,9.9401,0.23374,-0.00812,-0.03064,0.001,0.001,0.001,0.0005,0.0005,0.0005,0.01,0.01,0.01,passive,-1
0.0412,excitation,multi_sine,41.42618082258674,-666.6346141886684,296.0030403179036,-177.38835701858946,0.1314437424717148,-149.9616492401046,0.0252,-0.0084,-0.0008,-1.116,0.3614,-5.8076,81.02761674635481,27.8009033203125,83.59955967062771,-23.379262288411457,-88.99001227484808,-39.058939615885414,0.05441495687654703,-0.0,0.018926941522277228,0.023651123046875,-0.06785074869791667,-0.0,1.5185,0.016,10.109,0.22386,-0.00703,-0.03551,0.001,0.001,0.001,0.0005,0.0005,0.0005,0.01,0.01,0.01,passive,-1
0.0615,excitation,multi_sine,41.426323193034975,-666.6347080598623,296.0029340361685,-177.38837012105623,0.13145409046633003,-149.96162701642794,-0.0348,-0.0008,-0.0873,-4.0062,0.0574,-4.9578,81.02763034329556,27.800923715723624,83.59953927521659,-23.37924533420139,-88.99001227484808,-39.05894809299045,-0.0,-0.0,0.02260491399481745,-0.0017886691623263888,-0.0,-0.06785074869791667,1.5283,-0.0193,10.2506,0.22271,-0.01203,-0.03943,0.001,0.001,0.001,0.0005,0.0005,0.0005,0.01,0.01,0.01,passive,-1
0.0812,excitation,multi_sine,41.42595361429009,-666.6347658624022,296.00332808608533,-177.38832770493894,0.13144160928304527,-149.9616603839412,-0.1923,0.0003,-0.0811,-8.016,-0.2154,-1.7398,81.02759635094368,27.8009033203125,83.59951887980546,-23.37924533420139,-88.98999532063802,-39.05894809299045,-0.0,-0.05441495687654703,0.011292259291847153,-0.031746758355034724,0.06785074869791667,-0.0,1.7471,-0.0242,9.9097,0.24298,-0.00587,-0.03915,0.001,0.001,0.001,0.0005,0.0005,0.0005,0.01,0.01,0.01,passive,-1
0.1011,excitation,multi_sine,41.42131239960411,-666.6354183770565,296.00559880685154,-177.38825504584912,0.13137844851288005,-149.96192522328224,-0.4568,-0.0065,-0.0139,-12.8813,-0.4753,3.9367,81.02720203966197,27.800828537138383,83.59928093334236,-23.379024929470486,-88.98999532063802,-39.05907524956597,-0.0,-0.0,-0.018491839418316832,0.03366258409288194,-0.0,0.06785074869791667,1.6243,-0.084,9.6222,0.23493,0.00021,-0.03511,0.001,0.001,0.001,0.0005,0.0005,0.0005,0.01,0.01,0.01,passive,-1
0.1209,excitation,multi_sine,41.405198414718484,-666.6368532520821,296.0100347198889,-177.38818991709752,0.13131575603601942,-149.963011243146,-0.7072,-0.0255,0.038,-18.7135,-0.7988,12.2209,81.02582195017597,27.80065857537902,83.5988186373569,-23.37847391764323,-88.98999532063802,-39.059363471137154,-0.05441495687654703,-0.05441495687654703,-0.05268134693107983,0.034891764322916664,-0.0,-0.06785074869791667,1.6735,-0.0245,9.7797,0.23991,0.0005,-0.03297,0.001,0.001,0.001,0.0005,0.0005,0.0005,0.01,0.01,0.01,passive,-1
0.1413,excitation,multi_sine,41.37901448232148,-666.6362287861065,296.0152378581987,-177.38918897250002,0.1321138478620026,-149.96410539765967,-1.1723,-0.0467,0.35,-27.1396,-1.0944,24.3711,81.02353086565981,27.80027106256768,83.59807080561572,-23.376024034288193,-88.98996988932292,-39.06053331163194,-0.10882991375309406,-0.05441495687654703,-0.033380489538211634,0.1459164089626736,-0.0,-0.06785074869791667,1.4972,-0.0381,10.1854,0.23131,-0.00667,-0.03551,0.001,0.001,0.001,0.0005,0.0005,0.0005,0.01,0.01,0.01,passive,-1
0.1612,excitation,multi_sine,41.35531630520483,-666.6357144628814,296.01964629549303,-177.39078002552327,0.13334528381229613,-149.96433690879724,-1.7176,-0.0567,0.8541,-36.7338,-1.1646,38.2165,81.02145733219562,27.80004671304533,83.59692866259282,-23.37259080674913,-88.98996141221788,-39.06233893500434,-0.16324487062964108,-0.05441495687654703,-0.09749686363900062,0.2670542399088542,-0.0,-0.20355224609375,1.3668,-0.0122,9.6382,0.21831,0.00141,-0.03014,0.001,0.001,0.001,0.0005,0.0005,0.0005,0.01,0.01,0.01,passive,-1
0.1813,excitation,multi_sine,41.32605536010891,-666.6363805093595,296.0308846780179,-177.39271203929667,0.13482099866727768,-149.96312730809743,-2.5947,-0.075,1.7905,-50.8716,-0.9194,55.6955,81.01959455131303,27.799767975759977,83.59538540981784,-23.368920220269096,-88.9899190266927,-39.06498379177517,-0.16324487062964108,-0.0,-0.13694158875116028,0.3500281439887153,-0.0,-0.2714114718967014,1.5368,-0.1493,9.5918,0.23332,-0.017,-0.03328,0.001,0.001,0.001,0.0005,0.0005,0.0005,0.01,0.01,0.01,passive,-1
0.2009,excitation,multi_sine,41.25105613742329,-666.6415287447358,296.08618789148096,-177.3954490851348,0.1368410960472233,-149.96051183048968,-3.6476,-0.1093,3.0022,-66.7834,-0.3132,72.5458,81.01242216506807,27.797456495832687,83.58739040865757,-23.35424635145399,-88.98980882432726,-39.075003729926216,-0.32649653972965653,-0.16324487062964108,-0.34334314931737314,0.6004418267144097,-0.0,-0.4071129692925347,1.4983,-0.0308,10.3806,0.23633,-0.01143,-0.03399,0.001,0.001,0.001,0.0005,0.0005,0.0005,0.01,0.01,0.01,passive,-1
0.2211,excitation,multi_sine,41.184184586032806,-666.6435141774128,296.1452839349154,-177.3965672424689,0.1375904433259644,-149.9591580098602,-5.1168,-0.1234,4.6777,-79.2399,0.4179,83.5348,81.00660947289798,27.794485564279086,83.58141455319848,-23.34374321831597,-88.9897240532769,-39.0820566813151,-0.3809114966062036,-0.2176666259765625,-0.40021915246944617,0.7462649875217013,0.06785074869791667,-0.5428229437934028,1.3138,0.043,9.4903,0.22895,0.0029,-0.02758,0.001,0.001,0.001,0.0005,0.0005,0.0005,0.01,0.01,0.01,passive,-1
0.2409,excitation,multi_sine,41.04737731394529,-666.644037316305,296.27536761548015,-177.39776752487734,0.1383492379336343,-149.9575927520671,-6.8443,-0.1041,6.5289,-87.7448,1.0502,87.509,80.99466456045019,27.787347170385985,83.56979596732866,-23.323169284396702,-88.989503648546,-39.09534030490451,-0.5985781225827661,-0.32649653972965653,-0.5522941362739789,0.9932539198133681,0.06785074869791667,-0.6106736924913194,1.4311,-0.0804,9.9003,0.21502,-0.00681,-0.03638,0.001,0.001,0.001,0.0005,0.0005,0.0005,0.01,0.01,0.01,passive,-1
0.261,excitation,multi_sine,40.926752144606134,-666.6459318493917,296.39453507669145,-177.39778848531114,0.13821321401201078,-149.95680994213706,-8.7478,-0.0702,8.3717,-93.7396,1.7635,85.547,80.9841541252514,27.7808682281192,83.55955747094485,-23.306181165907116,-88.98930019802518,-39.1064453125,-0.7618297916827815,-0.435333251953125,-0.7065786229501856,1.1499532063802083,-0.0,-0.7463751898871528,1.471,0.0217,10.1382,0.24045,-0.01316,-0.03152,0.001,0.001,0.001,0.0005,0.0005,0.0005,0.01,0.01,0.01,passive,-1
0.2813,excitation,multi_sine,40.683694432815116,-666.6497722885504,296.62346625646785,-177.39680709202491,0.13725252846751196,-149.9574663433266,-11.2275,-0.0064,10.4664,-100.0856,2.4481,81.5205,80.9629768900352,27.76822307322285,83.54066452177445,-23.275392320421005,-88.9888424343533,-39.126620822482636,-1.0339181730062654,-0.5985781225827661,-0.824545680886448,1.401519775390625,-0.0,-0.9499359130859375,1.5418,-0.1359,10.8692,0.21493,-0.0144,-0.0438,0.001,0.001,0.001,0.0005,0.0005,0.0005,0.01,0.01,0.01,passive,-1
0.3012,excitation,multi_sine,40.49036597020881,-666.6498297050266,296.80736686694434,-177.39559247397654,0.13615319919366656,-149.95778423159393,-12.9457,0.0481,11.7786,-103.5627,2.6142,74.569,80.94608948962524,27.757644653320312,83.52635374163637,-23.251639472113716,-88.9884524875217,-39.14292229546441,-1.1427480867593596,-0.7074148348062346,-0.8781380228476949,1.5508948432074652,0.06785074869791667,-1.153496636284722,1.7189,0.0079,10.417,0.25201,-0.01743,-0.03216,0.001,0.001,0.001,0.0005,0.0005,0.0005,0.01,0.01,0.01,passive,-1
0.3208,excitation,multi_sine,40.15064422288604,-666.6443319538052,297.1155568317184,-177.3939130758455,0.13470112237385237,-149.95847215979353,-14.6444,0.0804,12.8164,-106.9321,2.1899,67.7141,80.9163257863262,27.73917320931312,83.50336131483022,-23.211517333984375,-88.9876725938585,-39.17154100206163,-1.305999755859375,-0.8162515470297029,-1.0102119068107982,1.8081410725911458,0.06785074869791667,-1.357057359483507,1.3855,-0.1144,9.9968,0.22275,-0.00841,-0.03508,0.001,0.001,0.001,0.0005,0.0005,0.0005,0.01,0.01,0.01,passive,-1
0.3411,excitation,multi_sine,39.885544749182486,-666.6440892500501,297.3389787163742,-177.39285149979665,0.13390910979002013,-149.95924696049443,-16.8479,0.1262,14.0907,-113.669,1.5284,64.3857,80.89314300234955,27.726181332427675,83.48594363373105,-23.181754218207466,-88.98696051703558,-39.19360690646701,-1.5780813387124846,-0.8162515470297029,-1.1590984080097462,1.8997361924913194,0.06785074869791667,-1.4249081081814237,1.6642,-0.0059,10.8044,0.23427,-0.00606,-0.03657,0.001,0.001,0.001,0.0005,0.0005,0.0005,0.01,0.01,0.01,passive,-1
0.3611,excitation,multi_sine,39.44768637502696,-666.641488379091,297.69639220972533,-177.3916554800463,0.1331629582093813,-149.9586441238231,-19.3006,0.1696,15.441,-117.8338,0.7401,61.2978,80.85479962943803,27.705153663559717,83.45818547919245,-23.133188883463543,-88.98562961154514,-39.23199123806423,-1.795747964689047,-0.979496417659344,-1.1429248469890934,2.1056365966796875,0.06785074869791667,-1.7641703287760415,1.4171,-0.0548,10.2839,0.22438,0.00509,-0.03513,0.001,0.001,0.001,0.0005,0.0005,0.0005,0.01,0.01,0.01,passive,-1
0.381,excitation,multi_sine,39.11134498572577,-666.6359557711199,297.9502201852512,-177.39145303478884,0.1331552501059158,-149.95924320607804,-21.5605,0.1669,16.5885,-119.1546,-0.1078,58.8004,80.82530786495397,27.689700740398745,83.43899339732558,-23.097830878363716,-88.98464626736111,-39.260474310980904,-1.795747964689047,-0.979496417659344,-1.2568060242303527,2.2808329264322915,0.06785074869791667,-1.832029554578993,1.5208,-0.0673,10.4852,0.2309,-0.00091,-0.03291,0.001,0.001,0.001,0.0005,0.0005,0.0005,0.01,0.01,0.01,passive,-1
0.4011,excitation,multi_sine,38.757732885410334,-666.6354685303014,298.2253721532443,-177.3904726396679,0.13254574351231005,-149.95849410285967,-23.8808,0.14,17.69,-114.6578,-0.8197,53.6362,80.8024242136738,27.677687843247217,83.42294220877166,-23.06989034016927,-88.98383246527777,-39.28358289930556,-1.9589996337890625,-1.0339181730062654,-1.37735650090888,2.4291144476996527,0.06785074869791667,-1.9677310519748263,1.4951,-0.0448,9.4447,0.24187,0.00084,-0.02787,0.001,0.001,0.001,0.0005,0.0005,0.0005,0.01,0.01,0.01,passive,-1
0.4211,excitation,multi_sine,38.06733857409557,-666.6312882187004,298.72607212375664,-177.39017400318554,0.13241673646672067,-149.95749264495217,-27.1063,0.1237,19.3099,-103.1473,-1.4381,43.1711,80.74299198566096,27.648658374748607,83.38391898882271,-23.000318739149304,-88.98189968532986,-39.34322781032986,-2.2855029719890934,-1.1427480867593596,-1.4027283923460705,2.551261054144965,0.06785074869791667,-2.171291775173611,1.4317,-0.0321,9.6617,0.23384,-0.00615,-0.03021,0.001,0.001,0.001,0.0005,0.0005,0.0005,0.01,0.01,0.01,passive,-1
0.4409,excitation,multi_sine,37.63226626686244,-666.6289706082556,299.0394926386218,-177.38900658351528,0.13149465645462283,-149.95730880899723,-28.5971,0.0933,19.8082,-86.219,-1.799,29.7704,80.695905779848,27.62549598618309,83.35403291305693,-22.94762505425347,-88.98044162326389,-39.39008076985677,-2.503169597965656,-1.1427480867593596,-1.4985120414507271,2.555669148763021,0.13570149739583334,-2.4427032470703125,1.4867,-0.124,9.8205,0.23862,-0.01079,-0.03229,0.001,0.001,0.001,0.0005,0.0005,0.0005,0.01,0.01,0.01,passive,-1
0.461,excitation,multi_sine,36.92775429923855,-666.6268056321097,299.5169486633393,-177.38819353839202,0.13086397954008067,-149.95756729395282,-30.0344,0.0463,20.2176,-69.276,-1.713,16.7148,80.63432523519685,27.597350318833154,83.31668211682008,-22.88129170735677,-88.97855970594618,-39.45064120822482,-2.6664212670656715,-1.1971630436359066,-1.609476674901377,2.8498246934678817,0.06785074869791667,-2.6462639702690973,1.4867,0.0478,9.9711,0.24835,-0.00173,-0.03302,0.001,0.001,0.001,0.0005,0.0005,0.0005,0.01,0.01,0.01,passive,-1
0.481,excitation,multi_sine,36.4238831254707,-666.628331688419,299.8555428192626,-177.3869182623357,0.1298561288795866,-149.95780637768493,-31.222,0.0087,20.4548,-61.1144,-1.4188,9.2382,80.59033233340423,27.577743530273438,83.28995732977839,-22.835252549913193,-88.97720336914062,-39.493865966796875,-2.938502849918781,-1.1971630436359066,-1.661648136554378,2.9120635986328125,0.06785074869791667,-2.8498246934678817,1.5018,-0.1238,9.9289,0.24903,0.00082,-0.03188,0.001,0.001,0.001,0.0005,0.0005,0.0005,0.01,0.01,0.01,passive,-1
0.5014,excitation,multi_sine,35.624851503752524,-666.6256946822905,300.35658376851194,-177.38693710580827,0.12994432315067642,-149.95866567332186,-32.1194,-0.0146,20.2983,-64.4194,-1.2315,8.5516,80.52050524418897,27.548190579556003,83.25034944137724,-22.763917711046005,-88.97505018446181,-39.562013414171005,-2.7752511808187657,-1.251584798982828,-1.7182861932433477,3.0609809027777777,0.06785074869791667,-2.8498246934678817,1.3979,-0.0871,9.7081,0.23879,-0.00307,-0.03322,0.001,0.001,0.001,0.0005,0.0005,0.0005,0.01,0.01,0.01,passive,-1
0.521,excitation,multi_sine,35.066754106094585,-666.6297888453885,300.7014064970926,-177.38641995654964,0.12956848100249407,-149.95927877001333,-33.4458,-0.0322,20.5049,-79.7009,-1.029,16.1195,80.4718281963084,27.52859058946666,83.22216298320505,-22.715301513671875,-88.97354973687065,-39.60951911078559,-2.992917806795328,-1.251584798982828,-1.7405375867786974,3.0977715386284723,0.13570149739583334,-2.8498246934678817,1.4426,-0.1573,9.5341,0.23971,-0.00926,-0.02809,0.001,0.001,0.001,0.0005,0.0005,0.0005,0.01,0.01,0.01,passive,-1
0.5409,excitation,multi_sine,34.508168390354555,-666.6283446783332,301.0471059238389,-177.38664405632747,0.12978874081940864,-149.9580911811079,-34.5348,-0.0404,20.5575,-97.2507,-0.6318,26.7184,80.42302197749072,27.50844672174737,83.19433684396272,-22.665490044487846,-88.97199842664931,-39.65894063313802,-3.2650061881188117,-1.305999755859375,-1.754338481638691,3.222037421332465,0.06785074869791667,-3.1890869140625,1.1833,-0.2891,9.1029,0.22412,-0.01579,-0.02805,0.001,0.001,0.001,0.0005,0.0005,0.0005,0.01,0.01,0.01,passive,-1
0.5613,excitation,multi_sine,33.629822496579834,-666.631093689466,301.5660953600851,-177.38771346751489,0.13072839748308757,-149.95607745190964,-36.9616,-0.0453,21.3449,-109.1944,-0.2293,34.4122,80.34636242554919,27.47888697255956,83.1511121693224,-22.58887396918403,-88.96955702039931,-39.736735026041664,-3.319421144995359,-1.251584798982828,-1.8069790377475248,3.2032012939453125,0.13570149739583334,-3.324796888563368,1.2114,-0.252,9.5926,0.22062,-0.01834,-0.03013,0.001,0.001,0.001,0.0005,0.0005,0.0005,0.01,0.01,0.01,passive,-1
0.5813,excitation,multi_sine,33.01334272096911,-666.63075333504,301.92088258192575,-177.38820732807886,0.13112769019125198,-149.9555134753489,-39.9457,-0.0571,22.5354,-110.9971,0.0621,37.8518,80.2925457340656,27.458382785910427,83.12215748399791,-22.537112765842014,-88.96790398491753,-39.79052225748698,-3.319421144995359,-1.360414712735922,-1.8247774331876547,3.267940945095486,0.06785074869791667,-3.324796888563368,1.257,-0.2912,9.4481,0.22131,-0.02169,-0.02958,0.001,0.001,0.001,0.0005,0.0005,0.0005,0.01,0.01,0.01,passive,-1
0.6011,excitation,multi_sine,32.04880403213142,-666.6299400785178,302.4519659328754,-177.38959982520907,0.1323573758328246,-149.95499304977295,-42.487,-0.0635,23.5208,-100.9595,0.4327,35.822,80.20834667847888,27.427714886051593,83.07842972254988,-22.45825873480903,-88.9652591281467,-39.87433539496528,-3.5370877709719215,-1.251584798982828,-1.8311611968691985,3.297136094835069,0.13570149739583334,-3.528349134657118,1.2224,-0.2001,9.6761,0.23708,-0.01237,-0.02264,0.001,0.001,0.001,0.0005,0.0005,0.0005,0.01,0.01,0.01,passive,-1
0.621,excitation,multi_sine,31.375504865582897,-666.6327188689556,302.8196068983438,-177.38983395211716,0.13258659266379164,-149.95566807313313,-44.3107,-0.0481,24.1319,-77.9851,0.9618,27.2379,80.1496418867961,27.40691836517636,83.0478298073948,-22.40475124782986,-88.96346198187933,-39.93175082736545,-3.754754396948484,-1.360414712735922,-1.931540611946937,3.3111572265625,0.06785074869791667,-3.664059109157986,1.1552,-0.3307,9.7384,0.21887,-0.02768,-0.02648,0.001,0.001,0.001,0.0005,0.0005,0.0005,0.01,0.01,0.01,passive,-1
0.6413,excitation,multi_sine,30.1718361835548,-666.6338899076751,303.47229410654666,-177.3898372989679,0.1326359589851636,-149.9566481058981,-45.6961,-0.0149,24.5098,-43.8685,1.516,12.3218,80.0446599072749,27.369710336817374,82.99416268225944,-22.310638427734375,-88.96024915907118,-40.03467135959201,-3.7003394400719367,-1.305999755859375,-1.964431611618193,3.3318667941623263,0.13570149739583334,-3.799769083658854,1.1433,-0.1208,9.7939,0.23827,-0.01629,-0.02081,0.001,0.001,0.001,0.0005,0.0005,0.0005,0.01,0.01,0.01,passive,-1
0.6613,excitation,multi_sine,29.469579677655904,-666.635244192111,303.84395837501376,-177.38983682157016,0.1327009400841155,-149.95661743750148,-45.7413,0.0126,24.3623,-12.8533,1.895,-2.5115,79.98342608461286,27.348703063360535,82.96329762675974,-22.25683424207899,-88.9583248562283,-40.095316569010414,-3.8635911091719524,-1.4148296696124691,-1.9176989262646968,3.375735812717014,0.13570149739583334,-3.7319098578559027,1.1004,-0.4231,9.2859,0.21828,-0.02016,-0.02854,0.001,0.001,0.001,0.0005,0.0005,0.0005,0.01,0.01,0.01,passive,-1
0.6814,excitation,multi_sine,28.389861272631205,-666.6348478072377,304.4229906825202,-177.38828468918015,0.13143636119092234,-149.95737966819146,-45.5339,0.0446,24.1578,9.4897,1.8649,-14.1659,79.88927406839805,27.31573728051516,82.91636098729502,-22.17604743109809,-88.95543416341145,-40.18777635362413,-4.135672692025062,-1.360414712735922,-1.9322612498066212,3.412899441189236,0.13570149739583334,-4.071180555555555,1.0235,-0.3853,9.3453,0.21166,-0.0117,-0.02412,0.001,0.001,0.001,0.0005,0.0005,0.0005,0.01,0.01,0.01,passive,-1
0.7012,excitation,multi_sine,27.66142143372017,-666.633680260455,304.80320994735763,-177.38805417664102,0.13123551078350396,-149.95686039757808,-45.5749,0.0973,24.0784,16.929,1.1615,-19.592,79.82574916121983,27.294179330958,82.88502003886911,-22.121471828884548,-88.95347595214844,-40.251193576388886,-4.081257735148514,-1.360414712735922,-2.0025370380665994,3.4319559733072915,0.13570149739583334,-4.139031304253472,1.0687,-0.4564,9.2523,0.22316,-0.01256,-0.01892,0.001,0.001,0.001,0.0005,0.0005,0.0005,0.01,0.01,0.01,passive,-1
0.7208,excitation,multi_sine,26.548168227758534,-666.6272387826233,305.38780749906266,-177.3875414638451,0.13079654042311872,-149.9577153384897,-44.51,0.1294,23.3207,5.1631,-0.1217,-15.8872,79.72861941498105,27.260717259775294,82.8374443431892,-22.03812493218316,-88.95053439670139,-40.34651014539931,-3.9724210229250465,-1.360414712735922,-2.0206549616143255,3.537317911783854,0.13570149739583334,-4.139031304253472,0.9572,-0.5061,8.8572,0.21,0.00085,-0.02182,0.001,0.001,0.001,0.0005,0.0005,0.0005,0.01,0.01,0.01,passive,-1
0.7411,excitation,multi_sine,25.802368224139038,-666.6274205488796,305.7771521546176,-177.3873959210288,0.13065737846386694,-149.95813053074633,-44.7207,0.1226,23.1061,-19.9738,-1.5532,-5.8834,79.66363283667233,27.239213697981125,82.80443776952158,-21.9818115234375,-88.94857618543837,-40.41043599446615,-4.135672692025062,-1.360414712735922,-2.0715211169554455,3.517142401801215,0.13570149739583334,-4.0033213297526045,0.9544,-0.3213,9.1364,0.21994,-0.00343,-0.01717,0.001,0.001,0.001,0.0005,0.0005,0.0005,0.01,0.01,0.01,passive,-1
0.7609,excitation,multi_sine,25.050941590267282,-666.6254291642744,306.1696745776038,-177.38707597884041,0.13043808345000368,-149.95830245261774,-45.1327,0.0817,22.9622,-43.5497,-2.6123,5.3878,79.5981227761448,27.21738380960899,82.7714719866762,-21.925370958116318,-88.94654168023003,-40.47512478298611,-4.026835979801594,-1.5780813387124846,-2.044721546739635,3.477800157335069,0.13570149739583334,-4.071180555555555,1.0023,-0.4563,9.175,0.21625,-0.00246,-0.02247,0.001,0.001,0.001,0.0005,0.0005,0.0005,0.01,0.01,0.01,passive,-1
0.7813,excitation,multi_sine,23.911442331545704,-666.6226720143181,306.7515854945331,-177.38710182360796,0.1305075180352615,-149.95876398149636,-45.7642,0.001,22.857,-57.458,-3.1658,15.3467,79.49881072091584,27.185301827912284,82.72192473458772,-21.840599907769096,-88.94348992241753,-40.57300143771701,-4.135672692025062,-1.305999755859375,-2.1049627927270267,3.573294745551215,0.13570149739583334,-4.206882052951388,0.9434,-0.5524,8.8938,0.20497,-0.0177,-0.02549,0.001,0.001,0.001,0.0005,0.0005,0.0005,0.01,0.01,0.01,passive,-1
0.8013,excitation,multi_sine,23.132893836927206,-666.6229934727235,307.1396882281191,-177.38671196514335,0.13009785070442545,-149.9601739289058,-48.0157,-0.104,23.6943,-54.7198,-2.9126,19.8684,79.43102997128327,27.1642265697517,82.68859183434212,-21.784684922960068,-88.94152323404948,-40.63873291015625,-4.298924361125077,-1.305999755859375,-2.040975589563351,3.495084974500868,0.13570149739583334,-4.206882052951388,0.9677,-0.4403,9.3402,0.21035,-0.01749,-0.02114,0.001,0.001,0.001,0.0005,0.0005,0.0005,0.01,0.01,0.01,passive,-1
0.8212,excitation,multi_sine,21.96385001935552,-666.6252192531401,307.70441625376884,-177.38727135847435,0.13056587089281796,-149.96227045283223,-49.8717,-0.1759,24.5029,-34.8964,-1.7683,18.3035,79.32929086213065,27.134129741404315,82.63862307709043,-21.70077853732639,-88.93849690755208,-40.73741488986545,-4.190087648901609,-1.1971630436359066,-2.05290690507039,3.580830891927083,0.06785074869791667,-4.342592027452257,0.7946,-0.6106,8.714,0.20947,-0.0118,-0.01744,0.001,0.001,0.001,0.0005,0.0005,0.0005,0.01,0.01,0.01,passive,-1
0.8409,excitation,multi_sine,21.195660795924677,-666.630545427014,308.0732866577117,-177.38794047146337,0.13115284734866292,-149.9629110550871,-50.4307,-0.1874,24.9096,-8.0065,-0.198,13.3838,79.2625094876431,27.115209598352415,82.60467151604077,-21.644948323567707,-88.93647935655382,-40.80291748046875,-4.135672692025062,-1.1971630436359066,-2.1296480386564047,3.4725104437934027,0.06785074869791667,-4.0033213297526045,0.7927,-0.6304,8.7035,0.22439,-0.00551,-0.02045,0.001,0.001,0.001,0.0005,0.0005,0.0005,0.01,0.01,0.01,passive,-1
0.8612,excitation,multi_sine,20.04872251236379,-666.6353444066103,308.6395353773047,-177.3886876109018,0.13184704587830956,-149.96390319760053,-49.992,-0.1571,25.0956,28.383,1.3821,3.5079,79.16276912878055,27.086105346679688,82.55281958249536,-21.55988057454427,-88.93345303005643,-40.90069240993923,-4.135672692025062,-1.1971630436359066,-2.1565019966352104,3.5207960340711804,0.13570149739583334,-3.799769083658854,0.8231,-0.6279,9.1153,0.22521,-0.0122,-0.02312,0.001,0.001,0.001,0.0005,0.0005,0.0005,0.01,0.01,0.01,passive,-1
0.8808,excitation,multi_sine,19.09890554067259,-666.641609865502,309.11455981392817,-177.38919778912256,0.1322292665087233,-149.964550639154,-48.2779,-0.0977,24.6858,69.2857,2.3757,-11.166,79.08024249690594,27.06227670801748,82.50850035412476,-21.488528781467014,-88.9310285780165,-40.981758965386284,-4.081257735148514,-1.1971630436359066,-2.199991811620127,3.4663814968532987,0.13570149739583334,-4.139031304253472,0.9242,-0.4926,9.2714,0.22782,-0.01495,-0.02083,0.001,0.001,0.001,0.0005,0.0005,0.0005,0.01,0.01,0.01,passive,-1
0.9011,excitation,multi_sine,17.997895689665352,-666.6432771324575,309.69864179197947,-177.38867996546801,0.13169951485616244,-149.96336912590945,-45.8136,-0.0281,24.0129,95.6712,2.4526,-20.6167,78.98449963862353,27.032553795540686,82.45527512956373,-21.403274536132812,-88.9281717936198,-41.07771131727431,-3.9724210229250465,-1.251584798982828,-2.1540817411819306,3.5301038953993054,0.06785074869791667,-4.0033213297526045,0.8205,-0.7184,8.9575,0.20478,-0.02662,-0.02118,0.001,0.001,0.001,0.0005,0.0005,0.0005,0.01,0.01,0.01,passive,-1
0.9212,excitation,multi_sine,17.293088426519745,-666.6401695213651,310.0784297519636,-177.3889654212789,0.1320078878907348,-149.96136067563074,-44.8866,0.0311,24.123,94.7623,1.7469,-15.9173,78.92312984655399,27.013014991684717,82.42069131076926,-21.34674072265625,-88.92622205946181,-41.14044189453125,-3.754754396948484,-1.251584798982828,-2.20154866133586,3.56827629937066,0.13570149739583334,-3.7319098578559027,0.6915,-0.7114,9.0334,0.2141,-0.01391,-0.02162,0.001,0.001,0.001,0.0005,0.0005,0.0005,0.01,0.01,0.01,passive,-1
0.9408,excitation,multi_sine,16.246163131669995,-666.6344763737967,310.6540549987939,-177.38915049304129,0.13219656932757518,-149.95919315352364,-42.85,0.0549,23.6825,79.0917,0.8771,-5.2949,78.83198275424466,26.983557219552523,82.36820711947904,-21.2615966796875,-88.92340766059027,-41.23278299967448,-3.754754396948484,-1.251584798982828,-2.211800754660427,3.4971364339192705,0.13570149739583334,-4.0033213297526045,0.7371,-0.7337,9.056,0.20561,-0.00763,-0.01819,0.001,0.001,0.001,0.0005,0.0005,0.0005,0.01,0.01,0.01,passive,-1
0.9611,excitation,multi_sine,15.550667683859523,-666.6331707519926,311.04583686923775,-177.38904753845293,0.13205133124455326,-149.959286703917,-40.3236,0.0514,23.0654,60.8107,0.2945,6.0034,78.77150356179416,26.964025214166924,82.33184210144647,-21.203969319661457,-88.92165289984808,-41.29251268174913,-3.8635911091719524,-1.1971630436359066,-2.322663411055461,3.607499864366319,0.20355224609375,-3.596208360460069,0.7151,-0.8116,8.6127,0.20495,-0.02859,-0.01681,0.001,0.001,0.001,0.0005,0.0005,0.0005,0.01,0.01,0.01,passive,-1
0.9809,excitation,multi_sine,14.85976033887861,-666.6353255068881,311.432024466443,-177.38944574929627,0.1324049253550359,-149.9596156509191,-39.2583,0.0291,23.2325,45.8027,0.0379,16.2187,78.71148666532913,26.945438196163366,82.29470885626161,-21.145833333333332,-88.91988118489583,-41.351538764105904,-3.809169353825031,-1.1427480867593596,-2.410390872766476,3.736996120876736,0.13570149739583334,-3.799769083658854,0.8084,-0.786,8.8778,0.21109,-0.02612,-0.01951,0.001,0.001,0.001,0.0005,0.0005,0.0005,0.01,0.01,0.01,passive,-1
1.0013,excitation,multi_sine,13.860417149857447,-666.6358752118463,312.0258029536021,-177.38921472032902,0.13217222513411697,-149.96075535982936,-39.5072,-0.0012,24.2625,44.3659,-0.0354,18.7977,78.62465660170753,26.916775845064976,82.238240761332,-21.058324178059895,-88.91738043891058,-41.43623352050781,-3.319421144995359,-1.1971630436359066,-2.4294673806369893,3.529476589626736,0.13570149739583334,-3.596208360460069,0.6938,-0.8551,8.6753,0.2004,-0.01563,-0.01763,0.001,0.001,0.001,0.0005,0.0005,0.0005,0.01,0.01,0.01,passive,-1
1.021,excitation,multi_sine,13.229586472336026,-666.6372733177532,312.42407669241925,-177.3887676109889,0.13184760807089532,-149.96135319302525,-39.4181,0.0054,25.1402,53.2476,0.0174,12.9332,78.56986093049002,26.897903291305692,82.19997897006498,-21.00002712673611,-88.91574435763889,-41.489766438802086,-3.373836101871906,-1.1427480867593596,-2.3628151770865564,3.6820560031467013,0.13570149739583334,-3.1890869140625,0.79,-0.7974,8.5412,0.21105,-0.01483,-0.01545,0.001,0.001,0.001,0.0005,0.0005,0.0005,0.01,0.01,0.01,passive,-1
1.0408,excitation,multi_sine,12.322520337161256,-666.6379552329134,313.02284046152295,-177.38764709387294,0.13093720538563247,-149.9615748958329,-37.665,0.0449,24.9246,66.2788,-0.004,0.44,78.49105986038057,26.869594460666768,82.14262707398669,-20.91332329644097,-88.91339619954427,-41.5673573811849,-3.1017545190187965,-1.251584798982828,-2.3659220780476486,3.5492960611979165,-0.0,-3.0533854166666665,0.723,-0.7753,8.9289,0.19435,-0.01214,-0.02031,0.001,0.001,0.001,0.0005,0.0005,0.0005,0.01,0.01,0.01,passive,-1
1.0613,excitation,multi_sine,11.748876187650842,-666.6351665097194,313.4165303915771,-177.38709394236193,0.1304478342907868,-149.9615025773071,-36.1987,0.0686,24.878,96.4567,-0.2819,-22.8427,78.44117948324373,26.85078309314086,82.10518789763498,-20.856229994032116,-88.91194661458333,-41.61666022406684,-3.047339562142249,-1.1971630436359066,-2.3580766432356124,3.599446614583333,0.06785074869791667,-3.0533854166666665,0.8822,-0.7529,8.7704,0.23023,-0.01684,-0.0116,0.001,0.001,0.001,0.0005,0.0005,0.0005,0.01,0.01,0.01,passive,-1
1.0812,excitation,multi_sine,10.806685473169518,-666.6326789728004,314.0685501056094,-177.3874421786565,0.13069602776983597,-149.96206557246492,-33.9303,0.0488,24.3727,132.2049,-0.8145,-49.3919,78.35931230299543,26.820393930567374,82.0414386409344,-20.759090847439236,-88.90964931911893,-41.696862114800346,-2.884087893042234,-1.0339181730062654,-2.2613208128674196,3.3253902859157987,0.06785074869791667,-2.6462639702690973,0.6392,-0.6876,8.7655,0.21262,-0.00066,-0.01414,0.001,0.001,0.001,0.0005,0.0005,0.0005,0.01,0.01,0.01,passive,-1
1.101,excitation,multi_sine,10.31369259101924,-666.6296354641671,314.4260126888354,-177.3877992510598,0.1309619435485828,-149.96159905825994,-30.586,0.0162,22.729,150.9137,-1.3948,-67.1312,78.31644794728496,26.803717282739015,82.00646730932858,-20.70562574598524,-88.908445570204,-41.739586724175346,-2.503169597965656,-0.979496417659344,-2.2006376663056932,3.2906426323784723,-0.0,-2.5784132215711804,0.7254,-0.7041,8.707,0.21944,-0.00528,-0.01484,0.001,0.001,0.001,0.0005,0.0005,0.0005,0.01,0.01,0.01,passive,-1
1.1213,excitation,multi_sine,9.642406976397387,-666.628689912149,314.93473503518146,-177.38858296856577,0.1316244231472762,-149.96076637906938,-27.2905,-0.0279,21.0254,154.5696,-1.6389,-75.8956,78.2581374668839,26.780684065110613,81.95550597540223,-20.62872992621528,-88.90679253472221,-41.79785834418403,-2.3399179288656407,-0.9250814607827971,-2.076232456924892,3.083377414279514,-0.0,-2.2391425238715277,0.8504,-0.6506,9.3241,0.21423,-0.0034,-0.01927,0.001,0.001,0.001,0.0005,0.0005,0.0005,0.01,0.01,0.01,passive,-1
1.1412,excitation,multi_sine,9.236916524249308,-666.6323956388682,315.25771346771984,-177.38863236746596,0.13175529255500049,-149.96025913216414,-24.1564,-0.0722,19.4167,153.1392,-1.2307,-81.4759,78.22298257657798,26.766672417669014,81.92241102161974,-20.580368041992188,-88.90572441948784,-41.832970513237846,-2.122251302889078,-0.8162515470297029,-2.0209812881922957,3.0204603407118054,0.06785074869791667,-2.0355902777777777,0.8409,-0.7282,9.1215,0.21227,-0.00446,-0.02027,0.001,0.001,0.001,0.0005,0.0005,0.0005,0.01,0.01,0.01,passive,-1
1.1614,excitation,multi_sine,8.69110470052943,-666.6374568692128,315.71763630241236,-177.3883254657337,0.1314647694602364,-149.9600019449818,-20.7949,-0.105,17.5913,149.2594,-0.3826,-85.2288,78.1756856181834,26.746773294883198,81.87546078521426,-20.512432522243923,-88.90441046820746,-41.87975565592448,-1.9589996337890625,-0.8162515470297029,-1.879749864634901,2.7654351128472223,-0.0,-1.832029554578993,0.8955,-0.7225,9.8075,0.2088,0.0,-0.01964,0.001,0.001,0.001,0.0005,0.0005,0.0005,0.01,0.01,0.01,passive,-1
1.181,excitation,multi_sine,8.358165511501266,-666.6386669992594,316.00367457796693,-177.38794211291267,0.1311014490907419,-149.9610728500323,-18.3025,-0.107,16.2445,139.5956,0.3927,-82.8065,78.14681251450341,26.73417572927947,81.84673044941214,-20.470750596788193,-88.90365600585938,-41.90708584255642,-1.7413330078125,-0.7618297916827815,-1.6988901572652382,2.371088663736979,0.06785074869791667,-1.5606180826822915,0.7434,-0.8745,8.9867,0.20553,0.00415,-0.015,0.001,0.001,0.001,0.0005,0.0005,0.0005,0.01,0.01,0.01,passive,-1
1.2009,excitation,multi_sine,8.064649389375814,-666.6391390927987,316.2683811462026,-177.38766560337368,0.13086825679739178,-149.96245015645374,-15.9283,-0.0681,14.7655,131.892,1.0352,-81.7158,78.12134544448097,26.722509554117032,81.82013483330755,-20.432086520724827,-88.90298631456163,-41.930736965603295,-1.5236663818359375,-0.6529998779296875,-1.6242497510249072,2.3039076063368054,-0.0,-1.357057359483507,1.0328,-0.7706,9.3344,0.22337,-0.01306,-0.01792,0.001,0.001,0.001,0.0005,0.0005,0.0005,0.01,0.01,0.01,passive,-1
1.2209,excitation,multi_sine,7.6921903042510005,-666.6406688997045,316.6150921052985,-177.3876732505069,0.1309110175657818,-149.9646663248339,-13.4088,-0.0168,13.0851,132.7717,1.3884,-88.0109,78.08904591173228,26.707491733060024,81.78473519806815,-20.38068135579427,-88.90214708116319,-41.96023729112413,-1.0883331298828125,-0.5985781225827661,-1.2745840242593596,1.977750990125868,0.06785074869791667,-1.153496636284722,0.9916,-0.5986,9.6908,0.22111,-0.01014,-0.01581,0.001,0.001,0.001,0.0005,0.0005,0.0005,0.01,0.01,0.01,passive,-1
1.2409,excitation,multi_sine,7.503644281904779,-666.6389450912187,316.8124503008484,-177.3880348801318,0.1312400517024099,-149.9647036684272,-10.7508,0.0149,11.2365,132.13,1.2102,-93.6503,78.0726412027189,26.698728504747447,81.76476809057858,-20.350943671332466,-88.90170627170139,-41.97626749674479,-0.9250814607827971,-0.489748208829672,-1.152762233620823,1.7499287923177083,-0.0,-0.8820851643880208,0.8812,-0.8275,8.7848,0.20976,-0.01674,-0.01781,0.001,0.001,0.001,0.0005,0.0005,0.0005,0.01,0.01,0.01,passive,-1
1.2612,excitation,multi_sine,7.271422642620769,-666.6407927108069,317.0612298361194,-177.38779265493966,0.13108180343122022,-149.9658721961956,-7.9512,0.0191,9.3386,132.2277,0.6803,-99.1328,78.05251093194036,26.68811609249304,81.73926022973392,-20.31450907389323,-88.90116373697917,-41.99481540256076,-0.6529998779296875,-0.3809114966062036,-0.8707004962581218,1.2970479329427083,-0.0,-0.678524441189236,0.9771,-0.7128,9.3554,0.21577,-0.00834,-0.02562,0.001,0.001,0.001,0.0005,0.0005,0.0005,0.01,0.01,0.01,passive,-1
1.2811,excitation,multi_sine,7.141668146971345,-666.6372264452484,317.2191822087709,-177.3879242118755,0.13119344079479528,-149.96620083032224,-5.4086,0.0261,7.4622,130.1472,0.2376,-101.3039,78.04117788182627,26.68084172919245,81.72379370963219,-20.291247897677952,-88.90088399251302,-42.005555894639755,-0.489748208829672,-0.2720815828531095,-0.7264097610322555,1.0178714328342013,-0.0,-0.4749637179904514,0.8896,-0.7039,9.5055,0.2151,-0.00705,-0.0236,0.001,0.001,0.001,0.0005,0.0005,0.0005,0.01,0.01,0.01,passive,-1
1.3011,excitation,multi_sine,7.05330356719845,-666.6380344846514,317.36034912523166,-177.38754487945096,0.13086116131745523,-149.96580914078234,-2.2109,0.0354,4.9255,121.9642,0.2253,-97.4845,78.03350920724397,26.67481828444075,81.70947613102375,-20.27115715874566,-88.90068054199219,-42.01338873969184,-0.16324487062964108,-0.16324487062964108,-0.4713991372892172,0.680999755859375,-0.0,-0.20355224609375,1.1204,-0.7687,9.2159,0.22211,-0.01517,-0.02422,0.001,0.001,0.001,0.0005,0.0005,0.0005,0.01,0.01,0.01,passive,-1
1.3208,excitation,multi_sine,7.038661778934321,-666.6381843492101,317.422637536446,-177.3873416639485,0.13069296082593662,-149.9647312930208,-0.0339,0.0161,3.0285,109.2298,0.5755,-88.9724,78.0322242963432,26.672160082524364,81.70318754592745,-20.262400309244793,-88.90062120225694,-42.01565212673611,0.10882991375309406,-0.10882991375309406,-0.29674643337136447,0.440122816297743,-0.0,-0.13570149739583334,1.0432,-0.8219,8.7509,0.21523,-0.01881,-0.01833,0.001,0.001,0.001,0.0005,0.0005,0.0005,0.01,0.01,0.01,passive,-1
1.3409,excitation,multi_sine,7.100241759160839,-666.6384168704476,317.46318705245056,-177.38787716486786,0.131240781041615,-149.95922579666157,1.7298,0.0093,1.4635,95.1712,0.9123,-78.1669,78.03751350629447,26.670671217512375,81.69840142278387,-20.255355834960938,-88.90058729383681,-42.015787760416664,0.2176666259765625,0.05441495687654703,-0.09017491104579207,0.16969468858506945,-0.0,-0.0,1.1497,-0.7754,9.0934,0.22017,-0.02099,-0.02649,0.001,0.001,0.001,0.0005,0.0005,0.0005,0.01,0.01,0.01,passive,-1
1.3608,excitation,multi_sine,7.151848541467936,-666.6358684785134,317.453218565222,-177.38926951099012,0.13251682294028938,-149.95585764673012,3.413,0.0441,0.103,84.5033,1.0237,-68.0468,78.0419121166267,26.67108592420521,81.69878213712485,-20.254296196831596,-88.90060424804688,-42.0147450764974,0.2720815828531095,0.10882991375309406,0.10870074281598081,0.00010172526041666666,-0.0,0.13570149739583334,1.1092,-0.7618,9.1655,0.21718,-0.02136,-0.02598,0.001,0.001,0.001,0.0005,0.0005,0.0005,0.01,0.01,0.01,passive,-1
1.381,excitation,multi_sine,7.253618562789501,-666.63509946429,317.43320391950965,-177.38981500607898,0.13321018896215117,-149.95457394528984,4.9841,0.0994,-1.0702,76.5085,1.0129,-58.7886,78.05068214340966,26.672064903939123,81.70040697154433,-20.256271362304688,-88.90068901909721,-42.00727674696181,0.3809114966062036,0.05441495687654703,0.039553500638149754,-0.20276387532552081,-0.0,0.5428229437934028,1.0499,-0.709,8.9964,0.20303,-0.01158,-0.03203,0.001,0.001,0.001,0.0005,0.0005,0.0005,0.01,0.01,0.01,passive,-1
1.401,excitation,multi_sine,7.3298852495552635,-666.6356031269133,317.4205618883661,-177.3882296720322,0.132014813359647,-149.9570782132837,6.4623,0.1372,-2.0972,74.7769,0.8358,-55.1065,78.05729025661356,26.672466013691214,81.70271165300123,-20.261247422960068,-88.90079922146268,-41.99821472167969,0.3809114966062036,0.05441495687654703,0.18873913453357055,-0.42795817057291663,-0.0,0.678524441189236,1.1093,-0.6832,8.7218,0.22413,-0.02374,-0.01955,0.001,0.001,0.001,0.0005,0.0005,0.0005,0.01,0.01,0.01,passive,-1
1.4208,excitation,multi_sine,7.423212324433597,-666.6349107740564,317.3981112141004,-177.3858458975888,0.13011291113544957,-149.9599522112178,7.7851,0.1292,-3.0593,73.5129,0.0899,-53.4909,78.06536004094794,26.672996294380415,81.70686551839998,-20.26932610405816,-88.9009518093533,-41.98735555013021,0.5985781225827661,0.05441495687654703,0.3352325741607364,-0.6017812093098959,-0.0,0.7463751898871528,1.0197,-0.6785,8.4847,0.21223,-0.02549,-0.01684,0.001,0.001,0.001,0.0005,0.0005,0.0005,0.01,0.01,0.01,passive,-1
1.4409,excitation,multi_sine,7.628943565951134,-666.6269315131883,317.3225159634148,-177.38387813560604,0.12863932612179374,-149.961542647209,9.4454,0.1047,-4.2089,68.1624,-1.0954,-49.1023,78.08302926545096,26.67503583549273,81.71751192300627,-20.285076565212673,-88.90130784776476,-41.96826510959201,0.87066650390625,0.16324487062964108,0.5220749354598546,-0.742950439453125,-0.0,0.9499359130859375,0.9812,-0.6112,8.6464,0.21402,-0.00574,-0.02067,0.001,0.001,0.001,0.0005,0.0005,0.0005,0.01,0.01,0.01,passive,-1
1.4613,excitation,multi_sine,7.840718567216931,-666.6216929334098,317.222938497891,-177.3835318226383,0.12853305833068568,-149.96182358030788,10.9125,0.0881,-5.2648,63.8905,-1.9338,-43.2786,78.1012763599358,26.678768195728264,81.7288041822981,-20.301021999782986,-88.90170627170139,-41.94991217719184,0.9250814607827971,0.16324487062964108,0.6039217202970297,-0.8591461181640625,-0.0,0.9499359130859375,1.086,-0.3663,9.5024,0.22396,-0.01547,-0.0262,0.001,0.001,0.001,0.0005,0.0005,0.0005,0.01,0.01,0.01,passive,-1
1.481,excitation,multi_sine,8.118996561699541,-666.6225854284174,317.0806099201907,-177.38322433942258,0.1283846900782168,-149.96248665045286,12.3163,0.0586,-6.2837,59.7898,-1.9121,-35.1582,78.12541772823522,26.685219944113552,81.74312855937693,-20.322918362087673,-88.90235053168402,-41.92535400390625,1.0883331298828125,0.32649653972965653,0.5873062587020421,-0.9926689995659722,-0.06785074869791667,1.0856458875868056,0.8591,-0.5018,8.9932,0.20661,-0.01574,-0.02116,0.001,0.001,0.001,0.0005,0.0005,0.0005,0.01,0.01,0.01,passive,-1
1.5011,excitation,multi_sine,8.32415684716264,-666.6254882019733,316.97326848269114,-177.38331512117037,0.12843589941837727,-149.96261742738494,13.1995,-0.0083,-6.8727,53.5979,-1.3429,-23.825,78.14327051143835,26.690441169361076,81.75324468329401,-20.33872816297743,-88.90291002061632,-41.907552083333336,1.1971630436359066,0.32649653972965653,0.6547878756381498,-1.0191684299045138,-0.06785074869791667,1.153496636284722,0.8958,-0.4447,8.7219,0.20582,-0.01542,-0.01647,0.001,0.001,0.001,0.0005,0.0005,0.0005,0.01,0.01,0.01,passive,-1
1.5212,excitation,multi_sine,8.656017245001532,-666.6265850891716,316.7903152010756,-177.38469345933876,0.12952048137466912,-149.96299606152934,13.9914,-0.0722,-7.1546,46.3874,-0.7869,-11.9288,78.17209602582572,26.699054831325416,81.7703632316967,-20.36364237467448,-88.90389336480034,-41.8786366780599,1.251584798982828,0.32649653972965653,0.7347242903001238,-1.0410817464192708,-0.06785074869791667,1.2213473849826388,0.6876,-0.3686,8.9426,0.20125,-0.00019,-0.01472,0.001,0.001,0.001,0.0005,0.0005,0.0005,0.01,0.01,0.01,passive,-1
1.541,excitation,multi_sine,8.900301085219958,-666.6259129895589,316.66359748124387,-177.38576570332134,0.13034622535275733,-149.9625787405804,14.9295,-0.0707,-7.2012,40.6876,-0.3347,-3.6771,78.19328685798267,26.704894717377012,81.78237612884824,-20.380808512369793,-88.9046139187283,-41.858062744140625,1.4148296696124691,0.3809114966062036,0.7188158696240717,-1.153038872612847,-0.0,1.2892066107855902,0.7978,-0.4313,8.9792,0.19554,-0.00707,-0.02458,0.001,0.001,0.001,0.0005,0.0005,0.0005,0.01,0.01,0.01,passive,-1
1.561,excitation,multi_sine,9.159707952185695,-666.6270514451838,316.54299346327036,-177.3863662814293,0.13070141125799611,-149.96123136273206,15.8328,-0.0191,-7.1353,37.5398,0.1081,-1.2185,78.21582378727375,26.71066661872486,81.79370238049195,-20.397898356119793,-88.90538533528645,-41.837073432074654,1.360414712735922,0.3809114966062036,0.672484294022664,-1.0288153754340277,-0.06785074869791667,1.2892066107855902,0.8492,-0.291,8.5561,0.20571,-0.01273,-0.01308,0.001,0.001,0.001,0.0005,0.0005,0.0005,0.01,0.01,0.01,passive,-1
1.5808,excitation,multi_sine,9.540768380330384,-666.6300330089116,316.3755073042117,-177.38662285566414,0.1306788377087262,-149.96140696338762,16.5451,0.0082,-7.0588,32.491,0.4061,-2.7473,78.24896633034885,26.718817984703744,81.80953601799389,-20.422770182291668,-88.90658060709636,-41.804046630859375,1.4692514249593904,0.32649653972965653,0.6773927896329672,-0.9963141547309028,-0.13570149739583334,1.357057359483507,0.8692,-0.4159,8.5217,0.19042,-0.01437,-0.01862,0.001,0.001,0.001,0.0005,0.0005,0.0005,0.01,0.01,0.01,passive,-1
1.6011,excitation,multi_sine,9.812423205635207,-666.6298875691369,316.2694490296676,-177.38651793961654,0.1305081575696566,-149.9608122597951,17.0268,-0.0049,-7.0347,23.7277,0.3324,-6.7591,78.27253662713683,26.723740077254796,81.8200668486038,-20.43914794921875,-88.90733506944444,-41.78126017252604,1.5780813387124846,0.32649653972965653,0.675625187335628,-1.018125745985243,-0.06785074869791667,1.357057359483507,0.7405,-0.3765,9.04,0.19441,-0.00557,-0.01748,0.001,0.001,0.001,0.0005,0.0005,0.0005,0.01,0.01,0.01,passive,-1
1.621,excitation,multi_sine,10.2836421793742,-666.625965793852,316.08337287546914,-177.38645280756262,0.13031705773594468,-149.96111277514098,17.4555,-0.0172,-7.2919,12.0299,-0.1073,-10.5885,78.31336824020536,26.731945830996672,81.83917055035582,-20.467944675021702,-88.90868292914496,-41.74045986599392,1.4692514249593904,0.32649653972965653,0.7020780355623453,-1.0493214925130208,-0.06785074869791667,1.4927588568793402,0.7633,-0.4368,8.7858,0.18357,-0.01439,-0.01885,0.001,0.001,0.001,0.0005,0.0005,0.0005,0.01,0.01,0.01,passive,-1
1.6412,excitation,multi_sine,10.55955574679589,-666.6248532433442,315.9703453014153,-177.3865972286612,0.13038410043694898,-149.96134266015343,17.8987,-0.0214,-7.8402,-0.191,-0.4871,-12.9646,78.3372988559232,26.7371398623627,81.8503472356513,-20.484932793511284,-88.90946282280815,-41.71649509006076,1.4148296696124691,0.2720815828531095,0.7079111231435643,-1.1061604817708333,-0.06785074869791667,1.4927588568793402,0.911,-0.2999,8.9344,0.19827,-0.01695,-0.02284,0.001,0.001,0.001,0.0005,0.0005,0.0005,0.01,0.01,0.01,passive,-1
1.6608,excitation,multi_sine,10.95665695757506,-666.6279470668723,315.7888671142745,-177.38683928301572,0.13054030455030932,-149.96308325838507,17.7404,-0.0366,-8.1874,-8.0494,-0.3229,-14.0762,78.37183508542505,26.74607305243464,81.86732301617613,-20.51171196831597,-88.91060723198784,-41.68052673339844,1.4148296696124691,0.3809114966062036,0.7034717219890935,-1.1767747667100694,-0.06785074869791667,1.4927588568793402,0.8452,-0.2054,9.3282,0.19899,-0.01251,-0.01993,0.001,0.001,0.001,0.0005,0.0005,0.0005,0.01,0.01,0.01,passive,-1
1.6813,excitation,multi_sine,11.231883923949907,-666.6311132744722,315.658553166715,-177.38687197410616,0.13049794896728847,-149.96347523485468,17.1102,-0.0506,-8.3071,-14.1021,0.2026,-13.5432,78.39579289502437,26.75259278552367,81.8794038980314,-20.531090630425346,-88.91139560275607,-41.65640089246962,1.4692514249593904,0.435333251953125,0.8082429489286819,-1.2235260009765625,-0.0,1.4927588568793402,0.8796,-0.2629,8.6446,0.19314,-0.02921,-0.02167,0.001,0.001,0.001,0.0005,0.0005,0.0005,0.01,0.01,0.01,passive,-1
1.7011,excitation,multi_sine,11.634379153157834,-666.6319740959859,315.4433002307164,-177.38789507174192,0.1313921499479215,-149.96437601513344,16.7021,-0.0451,-8.5488,-20.2815,0.4191,-11.0548,78.43075742815981,26.762906065081605,81.8995477657507,-20.561328464084202,-88.91248067220052,-41.62088182237413,1.5236663818359375,0.3809114966062036,0.9272705682433477,-1.2990230984157987,-0.0,1.4927588568793402,1.0069,-0.2053,8.9774,0.20941,-0.02999,-0.01769,0.001,0.001,0.001,0.0005,0.0005,0.0005,0.01,0.01,0.01,passive,-1
1.721,excitation,multi_sine,11.913437993657249,-666.6307400985138,315.2952551381069,-177.3885662248019,0.1319283187253209,-149.96347363878658,16.1947,-0.0231,-8.6055,-24.804,0.2882,-8.5623,78.45496678116298,26.76978611710048,81.91374977036278,-20.582292344835068,-88.91321818033855,-41.597815619574654,1.4148296696124691,0.435333251953125,0.8839439165474164,-1.3560146755642362,-0.06785074869791667,1.4249081081814237,1.0706,-0.3481,9.0892,0.20545,-0.02503,-0.02376,0.001,0.001,0.001,0.0005,0.0005,0.0005,0.01,0.01,0.01,passive,-1
1.7413,excitation,multi_sine,12.314870329667515,-666.6334485780615,315.0810317726531,-177.38798936246664,0.13140087702223618,-149.96299195808592,15.9312,0.0028,-8.8146,-27.2898,0.1626,-8.7381,78.48987692653543,26.780085799717668,81.93448510500464,-20.61520046657986,-88.91425238715277,-41.56376308865017,1.4692514249593904,0.435333251953125,0.886717692460164,-1.4184655083550346,-0.06785074869791667,1.357057359483507,0.8738,-0.2663,9.3031,0.21096,-0.01512,-0.01916,0.001,0.001,0.001,0.0005,0.0005,0.0005,0.01,0.01,0.01,passive,-1
1.7612,excitation,multi_sine,12.586590668013992,-666.6323127057314,314.93828819532996,-177.3873767252315,0.13082050701358133,-149.96146687636707,15.5741,0.0166,-9.0841,-29.6343,0.0081,-10.1442,78.51345402179378,26.78655794351408,81.94902023466507,-20.63774956597222,-88.91493055555556,-41.541968451605904,1.4148296696124691,0.435333251953125,0.9460819357692605,-1.415040757921007,-0.0,1.2892066107855902,0.8772,-0.336,8.8522,0.19443,-0.01132,-0.02102,0.001,0.001,0.001,0.0005,0.0005,0.0005,0.01,0.01,0.01,passive,-1
1.7809,excitation,multi_sine,12.83313377366339,-666.6286891381535,314.788665672659,-177.38716328593995,0.13058335815850017,-149.96148444948963,14.7439,-0.0026,-9.1335,-35.4058,-0.2498,-8.294,78.53481481571009,26.793030087310488,81.96452754558904,-20.660722520616318,-88.91559176974826,-41.52085198296441,1.305999755859375,0.3809114966062036,0.9447766294573793,-1.4376915825737846,-0.06785074869791667,1.2213473849826388,0.7839,-0.2884,8.5132,0.18989,-0.00801,-0.01481,0.001,0.001,0.001,0.0005,0.0005,0.0005,0.01,0.01,0.01,passive,-1
1.8011,excitation,multi_sine,13.196471104256979,-666.6291000366107,314.5617520216106,-177.3867811107988,0.13023158105590532,-149.96036365513817,13.8626,-0.0403,-9.2811,-45.7357,-0.3156,-2.0844,78.5663869121287,26.803628902624148,81.98681293147625,-20.695088704427082,-88.91649034288194,-41.490792168511284,1.305999755859375,0.489748208829672,0.8774717727510055,-1.4249844021267362,-0.0,1.2213473849826388,0.8706,-0.3267,8.2411,0.20449,-0.00252,-0.01399,0.001,0.001,0.001,0.0005,0.0005,0.0005,0.01,0.01,0.01,passive,-1
1.8211,excitation,multi_sine,13.417787491076114,-666.6329297395598,314.40755787146225,-177.38688883107417,0.1302790408984665,-149.95944323320464,12.9373,-0.044,-9.4229,-58.1868,-0.0461,8.1762,78.58568776952158,26.81132477108795,82.00099454067721,-20.71743435329861,-88.91705830891927,-41.472668117947045,1.0883331298828125,0.489748208829672,0.9171136535040223,-1.3972727457682292,-0.06785074869791667,1.0856458875868056,0.8951,-0.2276,8.9714,0.2046,-0.00664,-0.01847,0.001,0.001,0.001,0.0005,0.0005,0.0005,0.01,0.01,0.01,passive,-1
1.8409,excitation,multi_sine,13.709584507817285,-666.6335222803608,314.1742129812899,-177.3879292491942,0.13118716936943525,-149.9590411161751,11.6954,-0.0329,-9.2623,-69.2592,0.273,21.6649,78.61105966095877,26.822372285446317,82.02294000304572,-20.749833848741318,-88.91777886284721,-41.448067559136284,1.0339181730062654,0.435333251953125,0.8919729100595606,-1.3230472140842013,-0.0,0.9499359130859375,0.7652,-0.3234,8.4525,0.19199,-0.0058,-0.01795,0.001,0.001,0.001,0.0005,0.0005,0.0005,0.01,0.01,0.01,passive,-1
1.8612,excitation,multi_sine,13.88733860649672,-666.6342856377581,314.0317269498929,-177.38833257626783,0.13151064062580997,-149.95853857388735,10.3619,-0.0283,-8.7544,-79.6993,0.5058,37.3515,78.62652618106048,26.8291435619392,82.03641457132774,-20.770034790039062,-88.91822814941406,-41.43333435058594,0.87066650390625,0.435333251953125,0.7842443485071163,-1.2295023600260417,-0.0,0.8142344156901041,0.7504,-0.3044,8.2804,0.19244,-0.00364,-0.01696,0.001,0.001,0.001,0.0005,0.0005,0.0005,0.01,0.01,0.01,passive,-1
1.8809,excitation,multi_sine,14.133671236475664,-666.636750987129,313.81534026886163,-177.38816965440031,0.13139155516585285,-149.95885182843134,8.4737,-0.0046,-7.7049,-89.2114,0.5797,52.6539,78.6479889520324,26.839422849145265,82.05722468914372,-20.802010430230034,-88.9188215467665,-41.41192118326823,0.7074148348062346,0.32649653972965653,0.7020780355623453,-1.0439046223958333,0.06785074869791667,0.678524441189236,0.8278,-0.4088,8.4296,0.19467,-0.01169,-0.0196,0.001,0.001,0.001,0.0005,0.0005,0.0005,0.01,0.01,0.01,passive,-1
1.9009,excitation,multi_sine,14.243624334249086,-666.6352843926787,313.7079025941207,-177.3880460290856,0.13124059829838827,-149.95900219304787,6.6036,0.0325,-6.4588,-93.9299,0.3037,63.5911,78.65753400443803,26.844140987585085,82.06818382338722,-20.818184746636284,-88.9191182454427,-41.40240987141927,0.544163165706219,0.2720815828531095,0.6854285816154858,-0.9802839491102431,-0.06785074869791667,0.5428229437934028,0.9298,-0.423,8.7123,0.20225,-0.00893,-0.02171,0.001,0.001,0.001,0.0005,0.0005,0.0005,0.01,0.01,0.01,passive,-1
1.9211,excitation,multi_sine,14.369343454222031,-666.631171330819,313.5718224114997,-177.38816160757696,0.13131970731063616,-149.9592177947833,4.7145,0.0314,-5.0251,-93.8821,-0.1248,68.5687,78.66840475856668,26.849844904229194,82.08234503717706,-20.838258531358505,-88.919431898329,-41.39155069986979,0.32649653972965653,0.2176666259765625,0.49407203598777844,-0.6799146864149306,-0.0,0.4071129692925347,0.77,-0.4549,8.8988,0.18732,-0.01384,-0.02516,0.001,0.001,0.001,0.0005,0.0005,0.0005,0.01,0.01,0.01,passive,-1
1.941,excitation,multi_sine,14.43015662744029,-666.6312843305965,313.50233915339794,-177.388169797221,0.13130817097531952,-149.95914923102933,2.7623,-0.0025,-3.5351,-88.7896,-0.3482,66.9452,78.67370076698832,26.853033386834777,82.08916390296257,-20.848431057400173,-88.91958448621962,-41.38643900553385,0.2720815828531095,0.16324487062964108,0.3887909237701114,-0.5757056342230903,-0.0,0.2714114718967014,0.8622,-0.6047,8.5885,0.19077,-0.01449,-0.02937,0.001,0.001,0.001,0.0005,0.0005,0.0005,0.01,0.01,0.01,passive,-1
1.9609,excitation,multi_sine,14.475090575641053,-666.6321801851058,313.44894448128156,-177.3882570711349,0.1313935144361977,-149.95874539645294,0.934,-0.0166,-2.1226,-78.2143,-0.4131,59.3478,78.67762348439433,26.855603208636293,82.0941675771581,-20.855992635091145,-88.91966925726996,-41.38300577799479,0.2176666259765625,0.10882991375309406,0.1997050672474474,-0.384580824110243,-0.06785074869791667,0.13570149739583334,0.8746,-0.3834,9.3191,0.18989,-0.00372,-0.02523,0.001,0.001,0.001,0.0005,0.0005,0.0005,0.01,0.01,0.01,passive,-1
1.9813,excitation,multi_sine,14.494209273062323,-666.6334593434398,313.4015719094427,-177.38825517540525,0.13135991073291786,-149.9595658877221,-0.5218,-0.0245,-1.0659,-67.1337,-0.4102,50.9318,78.67932310198793,26.857873897741335,82.09866136607558,-20.86285909016927,-88.91975402832031,-41.38056437174479,-0.10882991375309406,-0.05441495687654703,0.13004114132116337,-0.20355224609375,-0.0,-0.0,0.9143,-0.4821,9.1412,0.21117,-0.00644,-0.02259,0.001,0.001,0.001,0.0005,0.0005,0.0005,0.01,0.01,0.01,passive,-1
2.0008,excitation,multi_sine,14.461029023750013,-666.6334780045149,313.40075997852244,-177.38737180947933,0.1305492362904133,-149.96259535806988,-1.543,-0.0358,-0.324,-55.0999,-0.2151,42.2642,78.6764677444307,26.857656346689357,82.09956556263536,-20.864749484592014,-88.91977945963542,-41.380411783854164,-0.2720815828531095,-0.0,-0.003725561765160891,-0.04062228732638889,-0.0,-0.0,0.8635,-0.6175,9.1346,0.1956,-0.01386,-0.02083,0.001,0.001,0.001,0.0005,0.0005,0.0005,0.01,0.01,0.01,passive,-1
2.0208,excitation,multi_sine,14.39109329512889,-666.6379508560416,313.42211101169244,-177.38558769111668,0.12898331370841706,-149.9677694452516,-2.4835,-0.0266,0.3832,-40.9843,0.022,33.3556,78.67050548591236,26.856799739422183,82.09812428691599,-20.86480034722222,-88.91975402832031,-41.3812001546224,-0.2720815828531095,-0.10882991375309406,-0.01087075412863552,0.047081841362847224,0.06785074869791667,-0.06785074869791667,0.961,-0.5094,9.1442,0.20827,-0.00185,-0.02637,0.001,0.001,0.001,0.0005,0.0005,0.0005,0.01,0.01,0.01,passive,-1
2.0409,excitation,multi_sine,14.342792491485055,-666.6367262965894,313.432630354152,-177.38561352196334,0.12893194105055952,-149.9698978328299,-3.1933,-0.0105,0.9166,-31.1346,-0.1083,28.4027,78.66631082969137,26.856051907681003,82.09749882764156,-20.86337619357639,-88.91974555121527,-41.383251614040795,-0.2720815828531095,-0.05441495687654703,-0.0895154594194771,0.14589945475260416,-0.0,-0.20355224609375,0.9231,-0.4528,9.07,0.19955,-0.00587,-0.02321,0.001,0.001,0.001,0.0005,0.0005,0.0005,0.01,0.01,0.01,passive,-1
2.0612,excitation,multi_sine,14.268204848771237,-666.6337884157158,313.44448889305227,-177.3886732836072,0.1313718136372537,-149.96747386120256,-3.9306,-0.0114,1.5826,-26.8999,-0.43,27.1325,78.65979109660233,26.85550123158068,82.09487461807704,-20.856009589301216,-88.91966078016493,-41.39211866590712,-0.2176666259765625,-0.0,-0.15333270082379333,0.40316263834635413,0.06785074869791667,-0.4071129692925347,0.8864,-0.4399,9.2163,0.20803,-0.02045,-0.02022,0.001,0.001,0.001,0.0005,0.0005,0.0005,0.01,0.01,0.01,passive,-1
2.0813,excitation,multi_sine,14.216876348812244,-666.6335786891075,313.4642615925141,-177.39034392253132,0.1326747668462872,-149.96522346219115,-4.2423,-0.0283,2.0358,-26.5791,-0.5438,26.9734,78.65533130003674,26.854780593720992,82.09183570181969,-20.849923027886284,-88.91958448621962,-41.39876471625434,-0.2720815828531095,-0.10882991375309406,-0.2600007009978342,0.3828175862630208,-0.0,-0.4749637179904514,0.8607,-0.4442,8.8527,0.20352,-0.02372,-0.02137,0.001,0.001,0.001,0.0005,0.0005,0.0005,0.01,0.01,0.01,passive,-1
2.101,excitation,multi_sine,14.10741228253196,-666.6360363233529,313.522485013466,-177.39141308414003,0.13339431161433507,-149.96309472358413,-4.5954,-0.0435,2.5161,-27.5409,-0.4473,25.1456,78.64587462774598,26.852482710734453,82.08500323909344,-20.839148627387154,-88.91940646701389,-41.41023423936632,-0.489748208829672,-0.16324487062964108,-0.33359414280051053,0.4782867431640625,-0.0,-0.5428229437934028,0.8813,-0.3743,9.454,0.20922,-0.0008,-0.02555,0.001,0.001,0.001,0.0005,0.0005,0.0005,0.01,0.01,0.01,passive,-1
2.121,excitation,multi_sine,14.020847777400258,-666.6371192967983,313.5730892134951,-177.39194500067288,0.1337042836617384,-149.96196637404535,-5.2174,-0.0664,3.1114,-30.0928,-0.1947,22.4398,78.63838271339341,26.850300401744274,82.0795508658532,-20.830637613932293,-88.91927083333333,-41.41876220703125,-0.489748208829672,-0.16324487062964108,-0.33019490761331993,0.5767059326171875,-0.0,-0.5428229437934028,0.9115,-0.3247,8.9707,0.21727,-0.00901,-0.01801,0.001,0.001,0.001,0.0005,0.0005,0.0005,0.01,0.01,0.01,passive,-1
2.1412,excitation,multi_sine,13.879513573177736,-666.6391541501118,313.6603765739875,-177.39262073122057,0.13417531420188217,-149.960080814831,-5.9914,-0.0847,3.654,-32.9424,0.2146,19.1551,78.62613866824915,26.846547646097616,82.07021656602916,-20.816285875108505,-88.91894870334201,-41.43273247612847,-0.489748208829672,-0.16324487062964108,-0.4341979074006033,0.6141069200303819,-0.0,-0.6106736924913194,0.9506,-0.3397,8.8318,0.22646,-0.01459,-0.0183,0.001,0.001,0.001,0.0005,0.0005,0.0005,0.01,0.01,0.01,passive,-1
2.1614,excitation,multi_sine,13.777520156976017,-666.6411891841504,313.72873363014907,-177.3925647420299,0.13408601839560846,-149.95865884338002,-6.7642,-0.0617,3.9947,-37.0411,0.6787,16.7312,78.61730745523283,26.84359031148476,82.06320734307317,-20.80609639485677,-88.9186774359809,-41.44287109375,-0.5985781225827661,-0.16324487062964108,-0.435333251953125,0.6639353434244791,-0.0,-0.5428229437934028,0.8217,-0.3242,8.7623,0.21428,-0.0152,-0.01677,0.001,0.001,0.001,0.0005,0.0005,0.0005,0.01,0.01,0.01,passive,-1
2.181,excitation,multi_sine,13.661911338471063,-666.6429032465381,313.8032754780885,-177.39210315214387,0.13363939653507018,-149.957892653541,-7.417,-0.0207,4.1389,-38.6188,0.9994,14.5651,78.60729330837137,26.84021827017907,82.05598736753558,-20.795805189344616,-88.91838921440971,-41.45353529188368,-0.7074148348062346,-0.2176666259765625,-0.4103420748568998,0.6379445393880209,-0.0,-0.678524441189236,0.9147,-0.3895,8.7057,0.21202,-0.02732,-0.02115,0.001,0.001,0.001,0.0005,0.0005,0.0005,0.01,0.01,0.01,passive,-1
2.2012,excitation,multi_sine,13.460235604699832,-666.6420665087525,313.91053932954765,-177.3916284916849,0.1332538076083502,-149.95862962533926,-8.2539,0.008,4.3874,-34.2914,1.1781,11.1994,78.58976005327584,26.834888269405553,82.04622476407798,-20.780792236328125,-88.91786363389757,-41.47015889485677,-0.7074148348062346,-0.16324487062964108,-0.37105371456335084,0.6410302056206597,-0.0,-0.7463751898871528,0.8198,-0.4334,8.7677,0.20493,-0.01917,-0.01669,0.001,0.001,0.001,0.0005,0.0005,0.0005,0.01,0.01,0.01,passive,-1
2.2208,excitation,multi_sine,13.317127236643984,-666.6413812141485,313.9771556243116,-177.39158172881565,0.1332385788409297,-149.95930169168835,-8.9115,0.0225,4.6013,-28.4019,1.1498,9.2593,78.57731885249072,26.83156381739248,82.04005175297803,-20.77096727159288,-88.91749064127605,-41.48181491427951,-0.8162515470297029,-0.16324487062964108,-0.4008242163327661,0.6032307942708334,-0.0,-0.7463751898871528,0.6668,-0.4305,8.801,0.19716,-0.0106,-0.01183,0.001,0.001,0.001,0.0005,0.0005,0.0005,0.01,0.01,0.01,passive,-1
2.2411,excitation,multi_sine,13.106810587754408,-666.6396735943426,314.0782556059731,-177.39158182240942,0.13338303606072763,-149.9592309799397,-9.3594,0.0346,4.7688,-22.0128,0.8255,8.4136,78.55900377330214,26.826478561552445,82.03068346080214,-20.755835639105904,-88.91682942708333,-41.500023735894096,-0.7618297916827815,-0.2176666259765625,-0.4262233016514542,0.6140221489800347,-0.0,-0.7463751898871528,0.7522,-0.497,8.0987,0.1922,-0.01441,-0.01473,0.001,0.001,0.001,0.0005,0.0005,0.0005,0.01,0.01,0.01,passive,-1
2.2613,excitation,multi_sine,12.961803787561287,-666.6388221845071,314.15031512297696,-177.39147467375756,0.13340796563174362,-149.95903239266943,-9.9147,0.0452,5.0458,-14.1862,0.4122,6.4973,78.5463790138169,26.822902566135518,82.023980169013,-20.745213826497395,-88.91635470920139,-41.51272243923611,-0.7618297916827815,-0.2176666259765625,-0.45626574223584465,0.6794230143229166,-0.0,-0.8142344156901041,0.8642,-0.5247,8.7798,0.20016,-0.00896,-0.0246,0.001,0.001,0.001,0.0005,0.0005,0.0005,0.01,0.01,0.01,passive,-1
2.281,excitation,multi_sine,12.692519131788798,-666.6384836900199,314.29181629449874,-177.3905547579051,0.13280801147139573,-149.95971083499262,-9.896,0.053,5.0775,-3.5501,0.0634,2.0477,78.52296508184754,26.815974924824026,82.01103588142017,-20.7257080078125,-88.91551547580295,-41.535229153103295,-0.8162515470297029,-0.2720815828531095,-0.4894762700146968,0.6796179877387153,-0.0,-0.7463751898871528,0.6488,-0.5013,8.5578,0.19654,-0.0084,-0.02035,0.001,0.001,0.001,0.0005,0.0005,0.0005,0.01,0.01,0.01,passive,-1
2.3012,excitation,multi_sine,12.53994292338683,-666.638897328384,314.3771739212184,-177.38960108755532,0.1320465434068243,-149.95998168697713,-9.8448,0.0567,5.1158,6.0662,-0.2908,-2.6596,78.50971486308786,26.811834656366027,82.00337400530825,-20.714713202582466,-88.91506618923611,-41.54808044433594,-0.87066650390625,-0.2176666259765625,-0.48681806809831374,0.6817457411024306,0.06785074869791667,-0.8142344156901041,1.027,-0.3492,9.5455,0.21575,-0.01054,-0.02433,0.001,0.001,0.001,0.0005,0.0005,0.0005,0.01,0.01,0.01,passive,-1
2.321,excitation,multi_sine,12.315158437021367,-666.6379585777304,314.4979460284758,-177.388815479826,0.1314945599134857,-149.96017374970887,-9.9001,0.0519,5.1585,11.3826,-0.6654,-4.8892,78.49016246229115,26.805872397847693,81.99241487106474,-20.698131985134548,-88.9143795437283,-41.56724717881944,-0.8162515470297029,-0.2176666259765625,-0.4354080351272432,0.6795756022135416,-0.0,-0.8142344156901041,0.9613,-0.3178,9.132,0.2093,-0.01394,-0.0155,0.001,0.001,0.001,0.0005,0.0005,0.0005,0.01,0.01,0.01,passive,-1
2.341,excitation,multi_sine,12.162503390654347,-666.6361308923239,314.57495132229786,-177.3887599466179,0.1315408878532343,-149.9605641194774,-9.4869,0.0345,4.9058,16.3057,-0.9586,-5.9641,78.47686465423887,26.801976874323174,81.98535805881613,-20.686781141493054,-88.91392178005643,-41.58002217610677,-0.8162515470297029,-0.16324487062964108,-0.47016181568107984,0.6919691297743056,0.06785074869791667,-0.8142344156901041,0.7915,-0.4224,9.1415,0.19961,0.0038,-0.02094,0.001,0.001,0.001,0.0005,0.0005,0.0005,0.01,0.01,0.01,passive,-1
2.3608,excitation,multi_sine,11.938097951945503,-666.6337923711611,314.68611279260875,-177.38907502134845,0.13186877985543952,-149.96089368165323,-8.8567,0.0086,4.591,19.3581,-1.0233,-5.0495,78.45733264885327,26.79646331484955,81.97482722820622,-20.669674343532986,-88.91331142849393,-41.59902784559462,-0.7618297916827815,-0.2720815828531095,-0.4622619931060489,0.6895531548394097,-0.0,-0.7463751898871528,0.6898,-0.506,8.5547,0.20264,-0.01517,-0.0206,0.001,0.001,0.001,0.0005,0.0005,0.0005,0.01,0.01,0.01,passive,-1
2.3813,excitation,multi_sine,11.795736430489669,-666.6334138202396,314.75956971967634,-177.38914399076182,0.13196879913842738,-149.96087254319394,-8.3926,-0.0211,4.428,20.8639,-0.8959,-2.6291,78.4449594327719,26.79296890107712,81.96770243125387,-20.658543904622395,-88.9129130045573,-41.61129421657986,-0.7074148348062346,-0.2176666259765625,-0.4336880221225248,0.7220798068576388,0.06785074869791667,-0.7463751898871528,0.6936,-0.3872,8.4559,0.20667,-0.00854,-0.01996,0.001,0.001,0.001,0.0005,0.0005,0.0005,0.01,0.01,0.01,passive,-1
2.4014,excitation,multi_sine,11.591217088975998,-666.6350404491269,314.8674361779723,-177.3893468220022,0.13221412138621758,-149.9610572366472,-8.2537,-0.0429,4.5604,24.6842,-0.6018,-1.6343,78.42722222356512,26.788162382522433,81.95668890924738,-20.64185248480903,-88.91234503851996,-41.62865532769097,-0.7074148348062346,-0.2176666259765625,-0.46349931471418626,0.6560007731119791,-0.0,-0.678524441189236,0.8543,-0.5473,8.8597,0.20398,-0.01574,-0.01999,0.001,0.001,0.001,0.0005,0.0005,0.0005,0.01,0.01,0.01,passive,-1
2.4209,excitation,multi_sine,11.458000446088501,-666.6373823252997,314.94379420867745,-177.38926738406704,0.1322011400471598,-149.96158004878552,-7.8123,-0.0492,4.6416,27.4937,-0.0919,-1.8084,78.41569201781017,26.784905915213102,81.94878228820197,-20.630408393012154,-88.91198052300346,-41.63953145345052,-0.7074148348062346,-0.16324487062964108,-0.4900269461150217,0.7117716471354166,-0.0,-0.6106736924913194,0.7382,-0.5628,8.3541,0.19938,-0.01872,-0.00986,0.001,0.001,0.001,0.0005,0.0005,0.0005,0.01,0.01,0.01,passive,-1
2.4409,excitation,multi_sine,11.330397384529364,-666.6396030516266,315.0233943743183,-177.3889880716909,0.131974777389988,-149.96208008138217,-7.0397,-0.0377,4.5689,31.59,0.507,-5.2952,78.40465130192219,26.78147268767404,81.94071250386757,-20.61893039279514,-88.91165839301215,-41.64994133843316,-0.6529998779296875,-0.2176666259765625,-0.49031248187074566,0.725674099392361,0.06785074869791667,-0.678524441189236,0.8323,-0.4125,9.162,0.21084,-0.00835,-0.01858,0.001,0.001,0.001,0.0005,0.0005,0.0005,0.01,0.01,0.01,passive,-1
2.4611,excitation,multi_sine,11.159630298507507,-666.6404513139,315.1382426442525,-177.38877111952797,0.1317764381779765,-149.9621150573061,-6.449,-0.0217,4.5381,41.8529,0.8749,-13.9279,78.38983743497641,26.776278656308012,81.9293726552831,-20.602222018771702,-88.91123453776042,-41.664530436197914,-0.544163165706219,-0.2176666259765625,-0.45782939042195236,0.678524441189236,0.06785074869791667,-0.5428229437934028,0.8733,-0.383,9.0265,0.21588,-0.01547,-0.01747,0.001,0.001,0.001,0.0005,0.0005,0.0005,0.01,0.01,0.01,passive,-1
2.4808,excitation,multi_sine,11.063479345375894,-666.6391691297996,315.2070401192784,-177.3890403073665,0.13201127702326346,-149.9618334042642,-5.6203,-0.0058,4.1926,52.3506,0.7735,-23.8516,78.38146171947517,26.773022188998684,81.92262177420135,-20.591583251953125,-88.9109887017144,-41.67306688096788,-0.489748208829672,-0.2176666259765625,-0.40303371920444,0.6752692328559028,-0.0,-0.4749637179904514,0.7207,-0.6129,8.5306,0.1859,-0.01984,-0.02248,0.001,0.001,0.001,0.0005,0.0005,0.0005,0.01,0.01,0.01,passive,-1
2.5013,excitation,multi_sine,10.930767048676065,-666.6371948570134,315.3147653042772,-177.38927724331592,0.13224154416717382,-149.96110469710686,-4.4183,0.0194,3.5287,59.646,0.3607,-32.7359,78.36989072289798,26.767936933158648,81.9121249359433,-20.575281778971355,-88.91062418619792,-41.6851806640625,-0.3809114966062036,-0.16324487062964108,-0.3428536594504177,0.5166965060763888,-0.0,-0.339262220594618,0.6367,-0.4963,8.8814,0.20303,0.00047,-0.01745,0.001,0.001,0.001,0.0005,0.0005,0.0005,0.01,0.01,0.01,passive,-1
2.5212,excitation,multi_sine,10.87149734610417,-666.636501192678,315.3671195476801,-177.38914705855697,0.13217020756665745,-149.96109905442498,-3.2375,0.0414,2.7875,63.5055,0.0449,-38.521,78.36472388541344,26.765469088412747,81.90713485868851,-20.56780497233073,-88.91044616699219,-41.690266927083336,-0.32649653972965653,-0.16324487062964108,-0.2748689557066058,0.43001810709635413,0.06785074869791667,-0.2714114718967014,0.6126,-0.4553,9.2278,0.19001,-0.01067,-0.01986,0.001,0.001,0.001,0.0005,0.0005,0.0005,0.01,0.01,0.01,passive,-1
2.5409,excitation,multi_sine,10.806226045873863,-666.637062163418,315.4293362589931,-177.3886404436232,0.1317140049994885,-149.96163519771864,-1.6338,0.0382,1.7799,63.6857,0.029,-40.0462,78.35906755806195,26.762661320148126,81.90119979405166,-20.559582180447048,-88.91031053331163,-41.69529385036892,-0.10882991375309406,-0.10882991375309406,-0.22710970132657796,0.2717336018880208,-0.0,-0.20355224609375,0.6336,-0.5279,7.9307,0.20575,-0.01133,-0.01011,0.001,0.001,0.001,0.0005,0.0005,0.0005,0.01,0.01,0.01,passive,-1
2.5611,excitation,multi_sine,10.782216553436468,-666.6387854338271,315.44716002873446,-177.38883570020465,0.131938011860005,-149.9619205050523,-0.2935,0.0056,0.9565,59.5192,0.2362,-37.0004,78.35700762153851,26.76211744251818,81.89891550800589,-20.55640326605903,-88.91022576226128,-41.69703165690104,-0.0,-0.0,-0.1311832843440594,0.1660580105251736,-0.0,-0.06785074869791667,0.6021,-0.3906,8.6128,0.1912,0.00072,-0.0148,0.001,0.001,0.001,0.0005,0.0005,0.0005,0.01,0.01,0.01,passive,-1
2.5814,excitation,multi_sine,10.808681729620192,-666.637082100301,315.44329138091547,-177.3900616701262,0.13304164566623264,-149.95908107015487,0.7702,-0.0149,0.2714,51.7155,0.4345,-31.4351,78.35925111676207,26.76234179204053,81.89862997225015,-20.554673936631943,-88.91020033094618,-41.697608100043404,0.2176666259765625,0.05441495687654703,0.015180984345993192,0.010206434461805556,-0.06785074869791667,-0.0,0.6874,-0.5023,8.4979,0.19308,-0.01395,-0.02013,0.001,0.001,0.001,0.0005,0.0005,0.0005,0.01,0.01,0.01,passive,-1
2.6011,excitation,multi_sine,10.848696303873602,-666.6346517016717,315.4334933362881,-177.39075805942514,0.13367921432874338,-149.95589735261575,1.6146,0.0075,-0.2487,42.449,0.6295,-25.5715,78.36265715041964,26.762654521677753,81.8994661841062,-20.554885864257812,-88.91019185384114,-41.6973876953125,0.2176666259765625,0.05441495687654703,0.06489819819384282,-0.027177598741319444,-0.0,-0.0,0.7964,-0.377,9.3439,0.20441,-0.0162,-0.0226,0.001,0.001,0.001,0.0005,0.0005,0.0005,0.01,0.01,0.01,passive,-1
2.6212,excitation,multi_sine,10.887759743041656,-666.6351815681862,315.4271032993525,-177.39065364063677,0.13362841933164718,-149.95330925189842,2.3909,0.0561,-0.6477,35.219,0.9399,-21.0575,78.3660359901957,26.763062429900216,81.89995567397315,-20.555920071072048,-88.91018337673611,-41.69660780164931,0.2176666259765625,-0.05441495687654703,0.029484966013691213,-0.1224941677517361,-0.0,0.06785074869791667,0.664,-0.5504,8.7809,0.19891,-0.011,-0.01445,0.001,0.001,0.001,0.0005,0.0005,0.0005,0.01,0.01,0.01,passive,-1
2.6411,excitation,multi_sine,10.94286543812491,-666.6368935650937,315.4207765671783,-177.38873539509083,0.13203254816272256,-149.95269383629406,3.0629,0.0967,-0.9772,34.1082,1.1943,-19.9873,78.37083571028,26.763320771774442,81.90154651604077,-20.56039598253038,-88.91022576226128,-41.69247097439236,0.16324487062964108,0.05441495687654703,0.09044684986076733,-0.2714029947916667,-0.06785074869791667,0.2714114718967014,0.6968,-0.5721,8.8223,0.19832,-0.01413,-0.01721,0.001,0.001,0.001,0.0005,0.0005,0.0005,0.01,0.01,0.01,passive,-1
2.6609,excitation,multi_sine,10.980042287044514,-666.6366644195618,315.4098799694105,-177.38706608700127,0.13069446048300096,-149.95507448451662,3.5449,0.1065,-1.2711,36.3568,1.0123,-20.4884,78.37405818523747,26.763524725885674,81.90388518984955,-20.56525336371528,-88.91028510199652,-41.68691847059462,0.2176666259765625,-0.0,0.16527761327158105,-0.3431532118055555,-0.0,0.339262220594618,0.8052,-0.4852,9.0823,0.2056,-0.00938,-0.01703,0.001,0.001,0.001,0.0005,0.0005,0.0005,0.01,0.01,0.01,passive,-1
2.6809,excitation,multi_sine,11.062394178766374,-666.6308397300811,315.37405268326,-177.385500213807,0.1295436945528154,-149.95808141490434,4.1131,0.1017,-1.693,38.724,0.3185,-21.1181,78.38109460207495,26.76417058057124,81.90972507590115,-20.573993259006077,-88.91040378146701,-41.67696634928385,0.3809114966062036,0.05441495687654703,0.2799746069577661,-0.3969150119357639,-0.0,0.4071129692925347,0.8352,-0.541,8.6925,0.19597,-0.02075,-0.02029,0.001,0.001,0.001,0.0005,0.0005,0.0005,0.01,0.01,0.01,passive,-1
2.701,excitation,multi_sine,11.15688191437678,-666.6263528880531,315.33563108300706,-177.38418685380523,0.12857634540700927,-149.95980162736197,4.9998,0.1056,-2.216,40.205,-0.4676,-21.817,78.38920517723159,26.765176754186648,81.91532701548964,-20.582538180881077,-88.91054789225261,-41.66722615559896,0.435333251953125,0.10882991375309406,0.2752700654586943,-0.4311286078559028,-0.06785074869791667,0.4749637179904514,0.6982,-0.5081,8.7197,0.20364,-0.00928,-0.01717,0.001,0.001,0.001,0.0005,0.0005,0.0005,0.01,0.01,0.01,passive,-1
2.7211,excitation,multi_sine,11.288180299193117,-666.6238027804923,315.2761254467649,-177.38311605492856,0.12784954660130163,-149.96192428704344,6.2449,0.1043,-2.8455,40.9745,-0.9819,-22.0336,78.40054502581606,26.76746104023244,81.92241102161974,-20.593617757161457,-88.91078525119357,-41.65388319227431,0.489748208829672,0.10882991375309406,0.27149011593053834,-0.47228495279947913,-0.0,0.6106736924913194,0.82,-0.4705,9.232,0.19873,-0.01719,-0.02404,0.001,0.001,0.001,0.0005,0.0005,0.0005,0.01,0.01,0.01,passive,-1
2.741,excitation,multi_sine,11.386659684952672,-666.6243662018115,315.2252088345402,-177.38318165942033,0.12802418902904628,-149.9632192585395,7.1277,0.0823,-3.2495,42.028,-1.2102,-21.8555,78.40909750154702,26.76992888497834,81.92720394323368,-20.601026746961804,-88.91099717881944,-41.64411756727431,0.5985781225827661,0.16324487062964108,0.30705971292930073,-0.4651048448350694,-0.0,0.678524441189236,0.7193,-0.4893,8.6468,0.20484,-0.00534,-0.01572,0.001,0.001,0.001,0.0005,0.0005,0.0005,0.01,0.01,0.01,passive,-1
2.7609,excitation,multi_sine,11.561339806732597,-666.6244519065576,315.1431118719003,-177.3835264633274,0.12840686126036646,-149.96415240126228,7.8152,0.0405,-3.5604,41.8209,-1.2797,-21.096,78.4242580904819,26.77387879626586,81.9348930132271,-20.61266581217448,-88.91142951117621,-41.62815517849392,0.7618297916827815,0.16324487062964108,0.3293383003461479,-0.5194346110026041,-0.0,0.7463751898871528,0.7758,-0.4177,8.4683,0.21012,-0.01037,-0.01706,0.001,0.001,0.001,0.0005,0.0005,0.0005,0.01,0.01,0.01,passive,-1
2.7812,excitation,multi_sine,11.70042738613875,-666.6244663638564,315.08278490874545,-177.3838613076316,0.12868685818394338,-149.96390797941007,8.471,0.0031,-3.9234,39.4614,-1.3066,-20.0626,78.4363321738668,26.77681573546759,81.94046775893409,-20.621117485894096,-88.91180250379774,-41.61642286512587,0.8162515470297029,0.2176666259765625,0.35656617419554454,-0.5649820963541666,-0.06785074869791667,0.678524441189236,0.8164,-0.44,9.2624,0.19989,0.0,-0.01868,0.001,0.001,0.001,0.0005,0.0005,0.0005,0.01,0.01,0.01,passive,-1
2.8011,excitation,multi_sine,11.93620656222228,-666.6232514189979,314.9827525210855,-177.38412077581344,0.1288904745929867,-149.96268102499184,9.1419,-0.016,-4.296,37.846,-1.3153,-19.3612,78.45677517428257,26.781493083085163,81.95014878074721,-20.635757446289062,-88.9124043782552,-41.597374810112846,0.87066650390625,0.2176666259765625,0.4563473238803373,-0.6552463107638888,-0.0,0.8820851643880208,0.934,-0.4704,8.5705,0.2008,-0.00721,-0.02057,0.001,0.001,0.001,0.0005,0.0005,0.0005,0.01,0.01,0.01,passive,-1
2.821,excitation,multi_sine,12.099334519266643,-666.6227005601183,314.90463688596105,-177.38443422021666,0.12910036338443703,-149.96256916547605,9.9888,-0.0334,-4.7122,41.2765,-1.2744,-19.6941,78.4709363880724,26.785177854028078,81.95760670274791,-20.64697265625,-88.91287909613715,-41.583455403645836,0.9250814607827971,0.2176666259765625,0.50811767578125,-0.6888410780164931,-0.0,0.8820851643880208,1.0146,-0.5043,9.1425,0.20321,-0.01435,-0.02672,0.001,0.001,0.001,0.0005,0.0005,0.0005,0.01,0.01,0.01,passive,-1
2.8409,excitation,multi_sine,12.267792439706845,-666.6224438947952,314.82134404537356,-177.38464413034998,0.12918089309134326,-149.96276498932016,10.9994,-0.0512,-5.2067,48.1996,-1.0818,-20.5593,78.48557349478844,26.789120966845218,81.96560170390818,-20.659171210394966,-88.91340467664931,-41.56876458062066,0.979496417659344,0.2720815828531095,0.5142634929996905,-0.80322265625,-0.0,1.0177951388888888,0.7435,-0.5135,8.6199,0.18817,-0.00047,-0.02243,0.001,0.001,0.001,0.0005,0.0005,0.0005,0.01,0.01,0.01,passive,-1
2.8608,excitation,multi_sine,12.537816841038486,-666.6251944668005,314.68864177600375,-177.3847977750947,0.12911333702951266,-149.96285161354297,11.8722,-0.0633,-5.6188,50.652,-0.6657,-19.3331,78.5090962022838,26.795803863223234,81.9778049582302,-20.678736368815105,-88.91426934136284,-41.5453847249349,1.0339181730062654,0.2720815828531095,0.5047048436533106,-0.8554840087890625,0.06785074869791667,0.9499359130859375,0.9457,-0.3728,9.0222,0.21292,-0.01302,-0.02328,0.001,0.001,0.001,0.0005,0.0005,0.0005,0.01,0.01,0.01,passive,-1
2.881,excitation,multi_sine,12.728417231515039,-666.6278760755067,314.5963227687927,-177.38494718985618,0.12917405462508905,-149.96295456732906,12.7019,-0.0818,-5.9186,47.3725,-0.188,-16.4479,78.52570486540841,26.800583187896425,81.98605830126469,-20.692147148980034,-88.91482883029514,-41.528828938802086,1.0883331298828125,0.2720815828531095,0.5220001522857364,-0.8718702528211806,-0.0,1.0856458875868056,0.7535,-0.5801,8.5248,0.17578,-0.01984,-0.02075,0.001,0.001,0.001,0.0005,0.0005,0.0005,0.01,0.01,0.01,passive,-1
2.9013,excitation,multi_sine,13.042461008932051,-666.6301705927169,314.4524663344371,-177.38570839119228,0.129730558950938,-149.96258465500074,13.8863,-0.1081,-6.2439,41.3347,0.204,-13.6856,78.55302791784305,26.807939132841508,81.99882582862779,-20.712187025282116,-88.91573588053386,-41.502109103732636,1.251584798982828,0.2720815828531095,0.5389419404586943,-0.8175235324435763,-0.06785074869791667,1.2213473849826388,0.8496,-0.2794,8.9626,0.18883,-0.01911,-0.01866,0.001,0.001,0.001,0.0005,0.0005,0.0005,0.01,0.01,0.01,passive,-1
2.921,excitation,multi_sine,13.323626928159703,-666.6314359150855,314.3293303331157,-177.38654472643177,0.13035154490389783,-149.96166328304494,15.0226,-0.1064,-6.5628,32.4987,0.5261,-11.1285,78.57747521730933,26.814227717937808,82.00968978428604,-20.72904798719618,-88.91654120551215,-41.478780110677086,1.1971630436359066,0.32649653972965653,0.5868915520092048,-0.8146074083116319,-0.06785074869791667,1.2213473849826388,0.6613,-0.3372,8.8486,0.19203,-0.00884,-0.01755,0.001,0.001,0.001,0.0005,0.0005,0.0005,0.01,0.01,0.01,passive,-1
2.9408,excitation,multi_sine,13.66756569472748,-666.6313730265845,314.1777015215852,-177.3874249139628,0.1310234453163144,-149.96121603510846,15.5923,-0.0631,-6.7791,22.9483,0.7525,-9.7463,78.60735449460473,26.82175362464225,82.02347708220529,-20.75018988715278,-88.91751607259114,-41.449593438042534,1.305999755859375,0.32649653972965653,0.5660542403117265,-0.9083048502604166,-0.06785074869791667,1.2213473849826388,0.8465,-0.3086,8.7482,0.19476,-0.0073,-0.02193,0.001,0.001,0.001,0.0005,0.0005,0.0005,0.01,0.01,0.01,passive,-1
2.9609,excitation,multi_sine,13.918303621083096,-666.6328095414419,314.07539602720055,-177.3876297462799,0.13115932813300532,-149.96025264118043,15.5447,-0.0205,-6.8231,16.0717,0.8301,-10.5987,78.62915718909538,26.827022439182393,82.03266861415145,-20.765067206488716,-88.91818576388889,-41.42892625596788,1.305999755859375,0.3809114966062036,0.5634096353360922,-0.9192572699652778,-0.0,1.357057359483507,0.771,-0.4163,8.3879,0.18294,-0.00954,-0.01978,0.001,0.001,0.001,0.0005,0.0005,0.0005,0.01,0.01,0.01,passive,-1
2.9811,excitation,multi_sine,14.28820663988346,-666.6364990749396,313.916370086248,-177.38721825063604,0.13076560057769843,-149.96066077155137,15.7646,-0.0145,-7.0584,14.199,0.8083,-13.5806,78.66136154325882,26.835248588335396,82.04723773616375,-20.789464314778645,-88.91920301649306,-41.39659457736545,1.360414712735922,0.32649653972965653,0.6023852659924196,-1.0594262017144096,-0.06785074869791667,1.357057359483507,0.9653,-0.346,8.6314,0.20458,-4e-05,-0.02073,0.001,0.001,0.001,0.0005,0.0005,0.0005,0.01,0.01,0.01,passive,-1
3.0009,excitation,multi_sine,14.548650863661688,-666.636401100509,313.80261617444353,-177.38675103503388,0.13037737117204667,-149.9609498531693,15.9379,-0.0195,-7.324,18.363,0.567,-16.9989,78.68398685266476,26.840755349338643,82.05831924287399,-20.807384914822048,-88.91988118489583,-41.37388441297743,1.4692514249593904,0.32649653972965653,0.7203931147509283,-1.1323123508029513,-0.06785074869791667,1.4249081081814237,0.8507,-0.401,8.5379,0.1853,-0.00932,-0.02139,0.001,0.001,0.001,0.0005,0.0005,0.0005,0.01,0.01,0.01,passive,-1
3.021,excitation,multi_sine,14.94441885102347,-666.6331450308231,313.6065318943739,-177.3868336528933,0.1304362319699519,-149.96275559261073,16.2491,-0.0128,-7.693,28.1805,0.0988,-20.3085,78.71833272499613,26.849892493521814,82.07753851862238,-20.836783515082466,-88.92098320855034,-41.33806864420573,1.5780813387124846,0.3809114966062036,0.8440844847424196,-1.2172614203559027,-0.0,1.5606180826822915,0.9368,-0.4331,8.7838,0.19348,-0.01068,-0.02197,0.001,0.001,0.001,0.0005,0.0005,0.0005,0.01,0.01,0.01,passive,-1
3.0409,excitation,multi_sine,15.230242808375243,-666.6318155122908,313.46540738847455,-177.38729614224152,0.13079118651028873,-149.96276827385427,16.9904,-0.0138,-8.2127,41.3015,-0.1081,-24.352,78.743153940333,26.856704560836942,82.09080913279315,-20.857069227430554,-88.92177157931857,-41.313468085394966,1.5780813387124846,0.489748208829672,0.791641084274443,-1.2726169162326388,-0.0,1.4927588568793402,1.0068,-0.2,9.105,0.21142,-0.00115,-0.0195,0.001,0.001,0.001,0.0005,0.0005,0.0005,0.01,0.01,0.01,passive,-1
3.0612,excitation,multi_sine,15.522068671674063,-666.6349528274627,313.32492344401385,-177.3872249170819,0.13070651575321007,-149.9628165259872,18.1025,-0.0145,-8.8316,52.2415,0.077,-28.3762,78.76857342106281,26.864019714959777,82.10343389227839,-20.87792290581597,-88.92255995008681,-41.28824022081163,1.5236663818359375,0.435333251953125,0.8062170047571163,-1.2995741102430556,-0.0,1.6284688313802083,0.9061,-0.2369,8.264,0.20309,-0.00179,-0.01964,0.001,0.001,0.001,0.0005,0.0005,0.0005,0.01,0.01,0.01,passive,-1
3.0812,excitation,multi_sine,15.984378121490227,-666.6371198625977,313.1037042541141,-177.38756478689305,0.1309517413568019,-149.96188504610998,19.4256,-0.0041,-9.4316,55.358,0.2434,-30.1384,78.80879317179765,26.875311974251623,82.12345538753094,-20.910059611002605,-88.92378913031683,-41.24932183159722,1.6325030940594059,0.489748208829672,0.8466203141920637,-1.3592529296875,-0.0,1.6284688313802083,1.0439,-0.3144,8.8005,0.19361,-0.02017,-0.02822,0.001,0.001,0.001,0.0005,0.0005,0.0005,0.01,0.01,0.01,passive,-1
3.1011,excitation,multi_sine,16.297275264235548,-666.6358613340248,312.94614187297253,-177.3883135853799,0.13155770478359496,-149.9615433918991,20.3889,-0.0105,-9.8367,49.9721,0.2299,-28.8139,78.83597345635442,26.88306223047842,82.137929330958,-20.93216790093316,-88.92463684082031,-41.222737630208336,1.795747964689047,0.489748208829672,0.9249930806679301,-1.3842434353298612,-0.06785074869791667,1.6284688313802083,1.0155,-0.3061,8.4136,0.20752,-0.0168,-0.02244,0.001,0.001,0.001,0.0005,0.0005,0.0005,0.01,0.01,0.01,passive,-1
3.1213,excitation,multi_sine,16.790980814409316,-666.635678833586,312.7076211341886,-177.3888699201069,0.13202840866598337,-149.96055500321552,21.4151,-0.0087,-10.4164,37.3565,0.1864,-25.3104,78.87888540135752,26.895034336807704,82.15973882391901,-20.966542561848957,-88.92591688368056,-41.18120829264323,1.795747964689047,0.544163165706219,0.903197184647664,-1.4260694715711806,-0.06785074869791667,1.7641703287760415,0.8306,-0.4008,8.271,0.18503,-0.01535,-0.01932,0.001,0.001,0.001,0.0005,0.0005,0.0005,0.01,0.01,0.01,passive,-1
3.1411,excitation,multi_sine,17.20293162774422,-666.6380060425441,312.51169836595176,-177.3884110842125,0.13159672490735277,-149.96058014028114,22.3914,0.0152,-11.1417,19.7411,0.0706,-20.2437,78.91474733258238,26.90509607296179,82.17774797194075,-20.996373494466145,-88.92702738444011,-41.145663791232636,1.9045846769125154,0.544163165706219,0.942879856222927,-1.5263281928168402,-0.06785074869791667,1.832029554578993,1.0476,-0.1236,8.5779,0.22048,-0.00773,-0.01998,0.001,0.001,0.001,0.0005,0.0005,0.0005,0.01,0.01,0.01,passive,-1
3.161,excitation,multi_sine,17.713807877959226,-666.6335268340063,312.259434907624,-177.38850994562196,0.1316610609999903,-149.96088169586125,22.5281,0.0135,-11.5561,2.6738,-0.179,-14.7277,78.95910055330484,26.917197350228186,82.20193692953279,-21.033952501085068,-88.92839219835069,-41.101438734266495,1.795747964689047,0.544163165706219,1.060201059473623,-1.6305457221137152,-0.06785074869791667,1.8998803032769096,1.1166,-0.1528,8.8784,0.21462,-0.01064,-0.02015,0.001,0.001,0.001,0.0005,0.0005,0.0005,0.01,0.01,0.01,passive,-1
3.1811,excitation,multi_sine,18.065215190637648,-666.6326345914691,312.0808616300869,-177.3884030060619,0.13157723278036904,-149.960675350393,22.085,0.0013,-11.6343,-6.5619,-0.2458,-10.8465,78.98964608069694,26.926042160185258,82.21868836053527,-21.060638427734375,-88.9292992485894,-41.07140435112847,1.9045846769125154,0.5985781225827661,1.0339861577100093,-1.698820326063368,-0.06785074869791667,1.9677310519748263,0.8837,-0.2499,8.7466,0.18521,-0.01969,-0.02712,0.001,0.001,0.001,0.0005,0.0005,0.0005,0.01,0.01,0.01,passive,-1
3.201,excitation,multi_sine,18.590091784937208,-666.6363991596048,311.7941430086236,-177.38852144889734,0.13173117490647832,-149.9615405741509,21.8702,-0.0046,-11.7965,-6.4123,-0.176,-8.8532,79.03536579396464,26.940910414894027,82.24437298160969,-21.102464463975693,-88.9306640625,-41.02529737684462,1.9589996337890625,0.5985781225827661,1.1260170511680074,-1.8136766221788194,-0.06785074869791667,1.9677310519748263,0.9169,-0.1789,9.037,0.18905,-0.00783,-0.02097,0.001,0.001,0.001,0.0005,0.0005,0.0005,0.01,0.01,0.01,passive,-1
3.2208,excitation,multi_sine,18.942437901041444,-666.6356967807527,311.5923865029141,-177.38894365861455,0.13208424805617283,-149.96221770553691,21.4703,-0.0132,-11.8621,2.5681,-0.1965,-10.0087,79.06601329841236,26.950978949518486,82.26290561185024,-21.131498548719616,-88.93161349826389,-40.99430508083767,1.9045846769125154,0.5985781225827661,1.164639161364867,-1.8305545383029513,-0.06785074869791667,1.9677310519748263,1.197,-0.0882,8.8531,0.21461,-0.01857,-0.02073,0.001,0.001,0.001,0.0005,0.0005,0.0005,0.01,0.01,0.01,passive,-1
3.2409,excitation,multi_sine,19.47532779839871,-666.6362829726244,311.29404064714595,-177.38887295275475,0.1319891755615344,-149.9642945263851,21.4032,-0.0279,-12.0023,20.4871,-0.0482,-16.9568,79.11240606024714,26.966064755279238,82.290357835222,-21.175672743055554,-88.93309699164496,-40.946341620551216,1.9589996337890625,0.5985781225827661,1.1366634557742883,-1.8760257297092013,-0.06785074869791667,1.9677310519748263,1.0948,-0.255,8.9801,0.19162,-0.02028,-0.02803,0.001,0.001,0.001,0.0005,0.0005,0.0005,0.01,0.01,0.01,passive,-1
3.2609,excitation,multi_sine,19.832243779694338,-666.6371663904818,311.09253471719046,-177.38825789936865,0.1314891483922233,-149.9661830727438,22.0979,-0.0219,-12.3768,34.1139,0.1942,-23.3362,79.1434886667988,26.976255662370438,82.30915560580716,-21.20648701985677,-88.93406338161893,-40.9137217203776,1.9045846769125154,0.6529998779296875,1.2280688899578434,-1.9610765245225694,-0.06785074869791667,2.103441026475694,1.0995,-0.156,9.4728,0.18421,-0.01676,-0.03419,0.001,0.001,0.001,0.0005,0.0005,0.0005,0.01,0.01,0.01,passive,-1
3.2811,excitation,multi_sine,20.215063811411586,-666.6344077227313,310.88382210687257,-177.38810966590498,0.13134536109513495,-149.9661338497462,23.2817,0.0099,-12.9862,39.1541,0.3238,-27.6228,79.17676038081103,26.986507755695,82.32887796836324,-21.237708197699654,-88.93507215711806,-40.88085598415798,2.0134145906656093,0.7074148348062346,1.2006234650564667,-1.974724663628472,-0.06785074869791667,2.103441026475694,1.0551,-0.1926,8.2535,0.20275,-0.01816,-0.01961,0.001,0.001,0.001,0.0005,0.0005,0.0005,0.01,0.01,0.01,passive,-1
3.3011,excitation,multi_sine,20.80081921043147,-666.6378094343451,310.560416766811,-177.38737554218986,0.1307126645929669,-149.96512664364175,24.574,0.0076,-13.7656,44.8965,0.4742,-34.7384,79.22779649791151,27.003367962223468,82.35812498791383,-21.28634982638889,-88.9365726047092,-40.831383599175346,2.122251302889078,0.7074148348062346,1.2524889955426206,-2.0918952094184027,-0.0,2.171291775173611,1.047,-0.0559,8.6765,0.21083,-0.00191,-0.01786,0.001,0.001,0.001,0.0005,0.0005,0.0005,0.01,0.01,0.01,passive,-1
3.321,excitation,multi_sine,21.199359387472423,-666.6359879622026,310.32559069653826,-177.38817547975484,0.1313834770362112,-149.96401739250183,25.578,0.0091,-14.6155,41.1959,0.6404,-37.0948,79.2624550998801,27.01523809149714,82.37930222313003,-21.31940205891927,-88.93758985731337,-40.79821268717448,2.2855029719890934,0.7074148348062346,1.344628664526609,-2.1172078450520835,-0.13570149739583334,2.0355902777777777,1.1296,-0.1096,9.0225,0.20195,-0.01175,-0.024,0.001,0.001,0.001,0.0005,0.0005,0.0005,0.01,0.01,0.01,passive,-1
3.3408,excitation,multi_sine,21.812460828693187,-666.6356401300627,309.98550274144173,-177.38757711370087,0.1308807837800672,-149.9621857534753,26.0202,0.0259,-15.2683,21.634,0.6884,-29.7543,79.31581629384863,27.032655772596303,82.4104664113262,-21.370374891493054,-88.93912421332465,-40.747265285915795,2.122251302889078,0.7074148348062346,1.2779492670946782,-2.1685197618272567,-0.06785074869791667,2.171291775173611,1.1819,-0.1263,9.3241,0.20454,-0.00383,-0.02903,0.001,0.001,0.001,0.0005,0.0005,0.0005,0.01,0.01,0.01,passive,-1
3.361,excitation,multi_sine,22.321178602408388,-666.6345033469983,309.69034496882637,-177.38740793272922,0.1307317380996619,-149.96067041469914,25.4012,0.0296,-15.316,-0.6878,0.6435,-18.1352,79.36008793292659,27.047714384475558,82.43742914483099,-21.413955688476562,-88.94040425618489,-40.70500691731771,2.176666259765625,0.7618297916827815,1.3432281796294865,-2.200647989908854,-0.13570149739583334,2.0355902777777777,1.2367,-0.1019,8.852,0.20967,-0.00901,-0.02506,0.001,0.001,0.001,0.0005,0.0005,0.0005,0.01,0.01,0.01,passive,-1
3.3825,excitation,multi_sine,22.918592199956116,-666.6351393369874,309.3208855013658,-177.38740180315517,0.13070917384623806,-149.960218344484,26.1711,0.0478,-16.3318,-14.5632,0.7414,-9.8003,79.41213022364248,27.06680448928682,82.47069406037284,-21.467937893337673,-88.94195556640625,-40.65403408474392,2.176666259765625,0.7618297916827815,1.4034082393835086,-2.2720760769314237,-0.06785074869791667,2.2391425238715277,1.0755,-0.1581,8.3949,0.18615,-0.00475,-0.0221,0.001,0.001,0.001,0.0005,0.0005,0.0005,0.01,0.01,0.01,passive,-1
3.4013,excitation,multi_sine,23.306056321661025,-666.6345492296696,309.06353424016095,-177.3877096341969,0.130976828619902,-149.9610820552939,26.2479,0.0691,-16.6852,-17.4962,0.5958,-5.8419,79.44587783058091,27.079959529461245,82.49393123211247,-21.50499979654948,-88.94298129611545,-40.619845920138886,2.122251302889078,0.8162515470297029,1.5061399252107828,-2.4106767442491317,-0.13570149739583334,2.103441026475694,1.0909,-0.1124,9.0132,0.19467,-0.01688,-0.02903,0.001,0.001,0.001,0.0005,0.0005,0.0005,0.01,0.01,0.01,passive,-1
3.4209,excitation,multi_sine,23.887201782564258,-666.6308195535177,308.68180356670126,-177.38725242731405,0.1307454570315171,-149.96234885360627,24.5839,0.0786,-15.9227,-17.1435,-0.0655,-2.5491,79.49643805475519,27.09907002968363,82.52943964287786,-21.56172858344184,-88.94439697265625,-40.56866115993923,2.122251302889078,0.8162515470297029,1.4419691633469987,-2.4419318305121527,-0.06785074869791667,2.103441026475694,1.2513,-0.1192,8.7115,0.18737,-0.00258,-0.03212,0.001,0.001,0.001,0.0005,0.0005,0.0005,0.01,0.01,0.01,passive,-1
3.441,excitation,multi_sine,24.285446364700917,-666.6311370089951,308.42487896518475,-177.38584885561576,0.13038270045368314,-149.96211252927762,23.8551,0.0793,-15.6798,-16.1861,-0.8106,-2.385,79.53104226896079,27.112245465269183,82.55319349836594,-21.601028442382812,-88.94477844238281,-40.53471883138021,2.176666259765625,0.8162515470297029,1.5473522526202816,-2.5071038140190973,-0.06785074869791667,2.171291775173611,1.1728,-0.1371,8.7747,0.19147,-0.00947,-0.02085,0.001,0.001,0.001,0.0005,0.0005,0.0005,0.01,0.01,0.01,passive,-1
3.4613,excitation,multi_sine,24.881219913013958,-666.629130012623,308.03332300437006,-177.38400851811073,0.1304519212075727,-149.96098137416627,24.0352,0.0636,-15.9376,-18.0615,-1.5136,-3.1341,79.58272424074683,27.1321173941735,82.58949053169476,-21.66012234157986,-88.94502427842882,-40.48479715983073,2.067836346012531,0.87066650390625,1.4071202042079207,-2.366968790690104,-0.06785074869791667,2.0355902777777777,1.1427,-0.2157,8.4424,0.18241,-0.01472,-0.02396,0.001,0.001,0.001,0.0005,0.0005,0.0005,0.01,0.01,0.01,passive,-1
3.4812,excitation,multi_sine,25.278619759743904,-666.6282547587002,307.76970957759835,-177.38386527371702,0.13076070499460676,-149.96007321363334,24.6565,0.0258,-16.5424,-17.4735,-2.0497,-7.563,79.61728766413019,27.14576192421488,82.61314920859762,-21.698379516601562,-88.94569396972656,-40.45156690809462,2.122251302889078,0.7618297916827815,1.460345428768951,-2.350675794813368,-0.13570149739583334,2.171291775173611,1.1671,-0.1504,8.9051,0.19434,-0.01382,-0.02351,0.001,0.001,0.001,0.0005,0.0005,0.0005,0.01,0.01,0.01,passive,-1
3.5008,excitation,multi_sine,25.677702858306315,-666.6248910019884,307.50836393100707,-177.38414955521478,0.13085598320520447,-149.9584978564832,24.0229,-0.0447,-16.5268,-14.501,-2.1613,-12.9577,79.64348217048267,27.155714884842975,82.63106317803411,-21.72677781846788,-88.94649081759982,-40.42692396375868,2.176666259765625,0.87066650390625,1.5186015214070234,-2.3570675320095487,-0.06785074869791667,2.0355902777777777,1.2651,-0.1305,8.1718,0.20425,-0.01292,-0.0231,0.001,0.001,0.001,0.0005,0.0005,0.0005,0.01,0.01,0.01,passive,-1
3.5212,excitation,multi_sine,26.34589466138052,-666.6287711310374,307.049036057948,-177.38457933176505,0.1309096169256828,-149.95733799478967,23.1899,-0.0988,-16.6207,-25.4385,-1.8423,-7.6156,79.7103723204962,27.183724582785427,82.67664012342397,-21.80199517144097,-88.94872029622395,-40.36241319444444,2.0134145906656093,0.87066650390625,1.4162573483910892,-2.325498792860243,-0.13570149739583334,1.9677310519748263,0.949,-0.08,8.7933,0.19144,-0.00859,-0.02366,0.001,0.001,0.001,0.0005,0.0005,0.0005,0.01,0.01,0.01,passive,-1
3.5411,excitation,multi_sine,26.705923724501943,-666.6303305984133,306.7817864581857,-177.38505362507829,0.1312156465249406,-149.95736959257212,22.704,-0.1237,-16.9169,-44.8767,-1.0797,5.6312,79.74180164903697,27.197933385867884,82.6998501012821,-21.839828491210938,-88.94972059461806,-40.33138699001736,1.9045846769125154,0.87066650390625,1.4043532267655476,-2.418492635091146,-0.06785074869791667,1.9677310519748263,1.0392,-0.1137,8.6413,0.19345,-0.01077,-0.02085,0.001,0.001,0.001,0.0005,0.0005,0.0005,0.01,0.01,0.01,passive,-1
3.561,excitation,multi_sine,27.225575672824057,-666.6350663154783,306.38445949449465,-177.385319952298,0.13125072260297926,-149.95804985711894,21.9701,-0.1322,-16.9493,-56.1464,0.04,16.7277,79.78722222960822,27.219300978254562,82.7341891751431,-21.89673529730903,-88.9512210422092,-40.285941229926216,1.7413330078125,0.9250814607827971,1.489538060556544,-2.407828436957465,-0.06785074869791667,1.8998803032769096,1.0696,-0.123,8.5917,0.18659,-0.0136,-0.0212,0.001,0.001,0.001,0.0005,0.0005,0.0005,0.01,0.01,0.01,passive,-1
3.5813,excitation,multi_sine,27.55247343310598,-666.6378939629179,306.1223639982519,-177.38556837885247,0.1313222539782492,-149.95912909865322,20.8097,-0.1203,-16.5173,-58.7096,1.1873,24.7963,79.81580299906211,27.23333981957766,82.75689606619353,-21.934161716037327,-88.95219590928819,-40.256712171766495,1.7413330078125,0.87066650390625,1.4108049751508354,-2.3398674858940973,-0.06785074869791667,1.8998803032769096,0.8316,-0.0552,8.7821,0.18072,0.00198,-0.02092,0.001,0.001,0.001,0.0005,0.0005,0.0005,0.01,0.01,0.01,passive,-1
3.6012,excitation,multi_sine,28.0148006163784,-666.6428507421157,305.735345486796,-177.38619023888825,0.13172726130857218,-149.9616112338073,18.9236,-0.0915,-15.4512,-61.9828,1.8726,34.7773,79.85624030084894,27.254183929745512,82.79010659397238,-21.988805135091145,-88.95354376898871,-40.21441989474826,1.6325030940594059,0.87066650390625,1.426047145730198,-2.291132609049479,-0.0,1.696319580078125,1.017,-0.0956,8.2078,0.17016,-0.014,-0.02604,0.001,0.001,0.001,0.0005,0.0005,0.0005,0.01,0.01,0.01,passive,-1
3.621,excitation,multi_sine,28.326584105436762,-666.6388637014825,305.4829685647624,-177.38713926047728,0.13242657443680136,-149.96129848113745,17.4339,-0.0354,-14.3976,-66.9969,1.9757,44.4899,79.88338659305384,27.267033038753095,82.8126843140857,-22.023883395724827,-88.95439995659721,-40.18798828125,1.5780813387124846,0.8162515470297029,1.2860530437809405,-2.170469495985243,-0.0,1.6284688313802083,0.7981,0.078,8.7677,0.17407,0.00171,-0.02344,0.001,0.001,0.001,0.0005,0.0005,0.0005,0.01,0.01,0.01,passive,-1
3.6415,excitation,multi_sine,28.75352244210279,-666.6404205592969,305.1374818063026,-177.38703997983924,0.13226102005047138,-149.95976532750765,16.4987,0.0228,-13.6995,-72.1789,1.9018,51.7233,79.92066260611657,27.2853685133528,82.84304628277769,-22.073864407009548,-88.9554935031467,-40.15281677246094,1.5236663818359375,0.7618297916827815,1.2062050092338334,-2.0041741265190973,-0.0,1.2892066107855902,1.0841,-0.1722,8.6778,0.19973,-0.00839,-0.02587,0.001,0.001,0.001,0.0005,0.0005,0.0005,0.01,0.01,0.01,passive,-1
3.661,excitation,multi_sine,29.02455296265383,-666.6383715902008,304.9161072411554,-177.38740803533196,0.1324391423423836,-149.95705668187637,15.5568,0.0585,-13.0296,-74.2943,1.6252,55.0078,79.94428049219717,27.296817137463258,82.86277544380414,-22.105289035373264,-88.95618862575955,-40.13226826985677,1.360414712735922,0.6529998779296875,1.1455626534943533,-1.9559987386067708,-0.0,1.2892066107855902,1.077,-0.0026,8.8166,0.1875,-0.00185,-0.02525,0.001,0.001,0.001,0.0005,0.0005,0.0005,0.01,0.01,0.01,passive,-1
3.6808,excitation,multi_sine,29.260081193650297,-666.6403873735878,304.7145791832323,-177.3873156793445,0.13227531113511395,-149.9563549613537,13.7514,0.072,-11.617,-76.8371,0.9448,57.9175,79.95995096641012,27.304975301912517,82.87603925950457,-22.127295600043404,-88.95665486653645,-40.11749267578125,1.251584798982828,0.6529998779296875,1.0551973852780785,-1.7784288194444444,-0.06785074869791667,1.153496636284722,1.091,-0.017,9.0217,0.19571,-0.01052,-0.02526,0.001,0.001,0.001,0.0005,0.0005,0.0005,0.01,0.01,0.01,passive,-1
3.7011,excitation,multi_sine,29.58823669048648,-666.637697357525,304.4365086024292,-177.38775757496566,0.13255112644955697,-149.95511178853712,11.9177,0.0642,-10.2756,-89.1467,0.0237,66.9575,79.9934742238262,27.321998671729965,82.90513671270692,-22.17394510904948,-88.95768059624565,-40.08580525716146,1.0883331298828125,0.544163165706219,1.0084579014542079,-1.5402391221788194,-0.0,0.9499359130859375,0.9688,-0.0491,8.82,0.19442,-0.01241,-0.02494,0.001,0.001,0.001,0.0005,0.0005,0.0005,0.01,0.01,0.01,passive,-1
3.7212,excitation,multi_sine,29.769471537194633,-666.6338147293136,304.2750978105521,-177.3880821342451,0.13273981562321216,-149.95446094886913,10.1055,0.0699,-9.0314,-105.072,-0.7423,78.0592,80.00562309038521,27.328130892007657,82.91653094905438,-22.191441853841145,-88.9580790201823,-40.07444593641493,0.979496417659344,0.489748208829672,0.9425875219968286,-1.3561248779296875,-0.13570149739583334,0.8142344156901041,1.0769,-0.193,8.1835,0.19747,-0.01078,-0.02725,0.001,0.001,0.001,0.0005,0.0005,0.0005,0.01,0.01,0.01,passive,-1
3.7412,excitation,multi_sine,30.01202959920868,-666.6340388027569,304.0539800734757,-177.3875179082949,0.1321658229135777,-149.95423792690173,8.1096,0.0695,-7.5635,-115.4156,-1.1116,85.3385,80.03043070878132,27.341537475585938,82.94003326113861,-22.22991943359375,-88.95884195963542,-40.050362481011284,0.6529998779296875,0.3809114966062036,0.6232837639232673,-0.9907955593532985,-0.0,0.678524441189236,0.8959,-0.0429,8.9247,0.19343,-0.01456,-0.02483,0.001,0.001,0.001,0.0005,0.0005,0.0005,0.01,0.01,0.01,passive,-1
3.7609,excitation,multi_sine,30.116361405332196,-666.6337585390356,303.9558382985517,-177.38736874485414,0.1319871320796895,-149.9539486520243,5.8989,0.033,-5.8389,-115.1236,-1.2452,84.7266,80.039540659083,27.346609134485227,82.94893245885868,-22.24438985188802,-88.95913018120659,-40.041707356770836,0.489748208829672,0.2720815828531095,0.4758793292659344,-0.8043755425347222,-0.06785074869791667,0.4749637179904514,0.9434,-0.1101,8.0931,0.19598,-0.01574,-0.02319,0.001,0.001,0.001,0.0005,0.0005,0.0005,0.01,0.01,0.01,passive,-1
3.7811,excitation,multi_sine,30.22047094243309,-666.6324928243685,303.8455440186042,-177.38774618150188,0.13221361602767842,-149.95398576176513,2.8994,-0.0129,-3.567,-109.8839,-1.2529,80.9759,80.04862341550317,27.35220427560334,82.95884462866452,-22.259741889105904,-88.95945231119792,-40.0327640109592,0.2720815828531095,0.16324487062964108,0.3265033382000309,-0.4992845323350694,-0.06785074869791667,0.339262220594618,0.9261,-0.1297,7.9505,0.1931,-0.00299,-0.02241,0.001,0.001,0.001,0.0005,0.0005,0.0005,0.01,0.01,0.01,passive,-1
3.8012,excitation,multi_sine,30.257351129671733,-666.6322167882685,303.7944552745096,-177.38829648346376,0.13263253682193812,-149.95399893219948,0.6411,-0.0448,-1.9552,-105.0989,-1.0537,78.1967,80.05184589046063,27.354835283638227,82.96318885123375,-22.266125149197048,-88.9595709906684,-40.02960205078125,0.10882991375309406,0.10882991375309406,0.20160184048189975,-0.2729458279079861,-0.0,0.13570149739583334,0.9395,-0.2673,8.1343,0.18776,-0.00892,-0.02153,0.001,0.001,0.001,0.0005,0.0005,0.0005,0.01,0.01,0.01,passive,-1
3.8209,excitation,multi_sine,30.233028853204345,-666.6324652620289,303.77572563832825,-177.38748901638144,0.13188172308636356,-149.95735894854795,-1.1501,-0.0442,-0.6712,-93.7542,-0.542,70.44,80.04976555852606,27.355453944442296,82.96581306079827,-22.2705078125,-88.95965576171875,-40.028372870551216,-0.2720815828531095,-0.05441495687654703,-0.051579994730430075,-0.044242011176215276,-0.0,-0.0,1.0097,-0.1504,8.6943,0.19848,-0.01359,-0.02109,0.001,0.001,0.001,0.0005,0.0005,0.0005,0.01,0.01,0.01,passive,-1
3.8412,excitation,multi_sine,30.18137843822881,-666.6371887390058,303.80198796812346,-177.38536857476137,0.13006664487081795,-149.96130872671367,-2.7053,-0.0489,0.4875,-79.1629,0.0826,60.4701,80.04536694819384,27.354196227423035,82.96431059884553,-22.270524766710068,-88.95967271592882,-40.02882215711806,-0.32649653972965653,-0.05441495687654703,-0.08447099440168626,0.06028917100694444,-0.0,-0.0,1.0833,-0.2106,9.0699,0.19696,-0.01455,-0.02964,0.001,0.001,0.001,0.0005,0.0005,0.0005,0.01,0.01,0.01,passive,-1
3.8612,excitation,multi_sine,30.084371387584277,-666.638521270456,303.8299063282279,-177.38516578305612,0.1298025357776352,-149.96621706833216,-4.1219,-0.0568,1.5858,-68.6027,0.3638,54.0463,80.03697083728149,27.352476214418317,82.96234584090733,-22.267057630750866,-88.95963880750868,-40.03227233886719,-0.32649653972965653,-0.05441495687654703,-0.12719938070467202,0.3025394015842014,-0.0,-0.339262220594618,1.0203,-0.155,8.4905,0.19626,-0.00925,-0.02695,0.001,0.001,0.001,0.0005,0.0005,0.0005,0.01,0.01,0.01,passive,-1
3.8812,excitation,multi_sine,30.011193975453757,-666.6375078001821,303.84939190933557,-177.3870770327582,0.1311996427683978,-149.9658584738333,-5.4849,-0.0358,2.6916,-65.1473,0.3225,52.8412,80.03059387207031,27.35133407139542,82.9599119885133,-22.260911729600693,-88.95958794487846,-40.03894382052951,-0.435333251953125,-0.05441495687654703,-0.15809163008586014,0.4847123887803819,-0.0,-0.4749637179904514,0.9564,-0.2584,7.8253,0.17846,-0.01348,-0.02475,0.001,0.001,0.001,0.0005,0.0005,0.0005,0.01,0.01,0.01,passive,-1
3.901,excitation,multi_sine,29.929257313996978,-666.6363937805988,303.8801252853082,-177.3894245584212,0.13288989240487992,-149.96384370394784,-6.6819,-0.0031,3.6964,-70.2303,0.1861,56.4861,80.02344867970683,27.349682043094447,82.95615243439627,-22.252332899305554,-88.95952012803819,-40.048014322916664,-0.489748208829672,-0.16324487062964108,-0.297290311001315,0.5778672960069444,-0.06785074869791667,-0.678524441189236,1.1942,-0.1163,8.4913,0.20407,-0.02987,-0.02538,0.001,0.001,0.001,0.0005,0.0005,0.0005,0.01,0.01,0.01,passive,-1
3.9209,excitation,multi_sine,29.770990472508938,-666.6383288124493,303.97839385933503,-177.39070258781783,0.13357184337456696,-149.9612055234151,-7.8639,0.0024,4.7085,-74.6905,0.1668,58.1932,80.00970217260983,27.34469196583965,82.94659378504988,-22.23586188422309,-88.95932515462239,-40.06422254774306,-0.6529998779296875,-0.2720815828531095,-0.4988853530128403,0.7696278889973958,0.06785074869791667,-0.8142344156901041,1.0031,-0.1129,8.7526,0.20294,-0.01258,-0.01962,0.001,0.001,0.001,0.0005,0.0005,0.0005,0.01,0.01,0.01,passive,-1
3.9413,excitation,multi_sine,29.599293751281525,-666.638772545912,304.0938574583382,-177.3909142527846,0.13344942017987865,-149.9597472446185,-9.5098,-0.0268,5.9904,-76.5329,0.2527,57.2926,79.99475913472695,27.33847136544709,82.93652525042543,-22.218983968098957,-88.95906236436632,-40.08043924967448,-0.7618297916827815,-0.32649653972965653,-0.5439932039468596,0.9127722846137153,0.06785074869791667,-0.8142344156901041,0.9699,-0.2676,8.4856,0.19463,-0.01468,-0.0217,0.001,0.001,0.001,0.0005,0.0005,0.0005,0.01,0.01,0.01,passive,-1
3.961,excitation,multi_sine,29.353123220906188,-666.637455447201,304.2523256720748,-177.39141308436936,0.13360562002606013,-149.95844822639972,-11.2501,-0.0409,7.2505,-75.9303,0.2158,54.4522,79.97328956528466,27.329680943253017,82.92297589896928,-22.195460001627605,-88.95857916937933,-40.102945963541664,-0.979496417659344,-0.435333251953125,-0.620353623191909,1.0715230305989583,-0.0,-1.0177951388888888,0.9538,-0.2332,8.7701,0.18214,-0.00904,-0.02825,0.001,0.001,0.001,0.0005,0.0005,0.0005,0.01,0.01,0.01,passive,-1
3.9811,excitation,multi_sine,29.162937075492746,-666.6365766610803,304.3729323128713,-177.3915663885185,0.13364253986688332,-149.95777167141824,-12.9187,-0.0219,8.3691,-70.0919,0.326,48.1335,79.95669449910079,27.322970852993503,82.91277819340772,-22.17787848578559,-88.9581298828125,-40.120018853081596,-1.1427480867593596,-0.435333251953125,-0.7201075789952042,1.1623128255208333,-0.0,-1.0856458875868056,1.1086,-0.0305,8.899,0.21112,-0.00862,-0.02443,0.001,0.001,0.001,0.0005,0.0005,0.0005,0.01,0.01,0.01,passive,-1
4.001,excitation,multi_sine,28.84358588652655,-666.6399228348985,304.58438472035067,-177.39086207498664,0.13300371849462136,-149.95718462818382,-14.6746,0.0019,9.5124,-62.7837,0.8768,41.2059,79.92889555373995,27.311787369227645,82.89442912186726,-22.14842054578993,-88.95731608072917,-40.148069593641495,-1.251584798982828,-0.489748208829672,-0.8423440763265779,1.279534233940972,0.06785074869791667,-1.2892066107855902,1.0548,-0.1876,9.1283,0.20823,0.00153,-0.02892,0.001,0.001,0.001,0.0005,0.0005,0.0005,0.01,0.01,0.01,passive,-1
4.0209,excitation,multi_sine,28.599231559023753,-666.6432762485125,304.73535274600636,-177.39060089169215,0.13281527861610187,-149.95770709877777,-15.3968,0.0283,9.9471,-55.8727,1.4415,34.8202,79.90763673687925,27.303901143593365,82.8810429337001,-22.12682935926649,-88.95667182074652,-40.168558756510414,-1.360414712735922,-0.489748208829672,-0.8439281199238088,1.4107004801432292,0.06785074869791667,-1.357057359483507,0.9595,-0.067,8.6615,0.20831,-0.00471,-0.01734,0.001,0.001,0.001,0.0005,0.0005,0.0005,0.01,0.01,0.01,passive,-1
4.0411,excitation,multi_sine,28.20719441176381,-666.6401006876731,304.9790756602793,-177.3902936381213,0.13278143236063192,-149.95771053806277,-16.2813,0.0449,10.4606,-51.2848,1.4814,29.7473,79.87337244619238,27.29013424108524,82.86097384915493,-22.092191908094616,-88.95546807183159,-40.202416314019096,-1.4148296696124691,-0.5985781225827661,-0.8433706453531096,1.5308380126953125,-0.0,-1.4927588568793402,0.9148,-0.1388,8.4318,0.19171,-0.00294,-0.02338,0.001,0.001,0.001,0.0005,0.0005,0.0005,0.01,0.01,0.01,passive,-1
4.0611,excitation,multi_sine,27.933598402197685,-666.6350346528853,305.1594150729253,-177.38982389389201,0.13252609944274207,-149.95709894152415,-17.1761,0.0662,10.9924,-51.8532,1.1189,27.0996,79.84941463659305,27.27967139517907,82.84669026289836,-22.067209879557293,-88.95462036132812,-40.22669474283854,-1.5236663818359375,-0.7074148348062346,-0.9663345790145421,1.5640174018012152,0.06785074869791667,-1.5606180826822915,0.7791,-0.1308,8.537,0.19138,0.00104,-0.01845,0.001,0.001,0.001,0.0005,0.0005,0.0005,0.01,0.01,0.01,passive,-1
4.081,excitation,multi_sine,27.486207659935054,-666.6347721445702,305.45619929384793,-177.38782981750256,0.13103536699184462,-149.9567940973263,-17.9526,0.1143,11.3793,-55.6858,0.7005,25.9174,79.81037781970336,27.263361864750927,82.82233814201733,-22.027816772460938,-88.95328945583768,-40.26557922363281,-1.6325030940594059,-0.6529998779296875,-1.0299614632483756,1.7298634847005208,0.06785074869791667,-1.6284688313802083,0.9544,-0.1297,8.7125,0.2012,-0.01111,-0.0227,0.001,0.001,0.001,0.0005,0.0005,0.0005,0.01,0.01,0.01,passive,-1
4.1013,excitation,multi_sine,27.17040316579097,-666.6336422773294,305.65379374763756,-177.38715608038885,0.13055920856273948,-149.95691203984853,-19.6029,0.1363,12.2495,-67.3681,0.1234,29.4264,79.78281682080562,27.252429924388924,82.80593343300394,-22.000452677408855,-88.952390882704,-40.29270595974392,-1.8501697200359684,-0.7074148348062346,-1.006445554223391,1.7228190104166665,-0.0,-1.7641703287760415,0.986,-0.1269,8.9323,0.19636,-0.01289,-0.02515,0.001,0.001,0.001,0.0005,0.0005,0.0005,0.01,0.01,0.01,passive,-1
4.1208,excitation,multi_sine,26.841512670600135,-666.6302574830657,305.85000026454475,-177.3872509250208,0.13074561963390222,-149.9571589075462,-21.1013,0.1101,12.8907,-79.34,-0.5337,33.5219,79.76117049113358,27.244162984413677,82.79375057409305,-21.979200575086804,-88.95167880588107,-40.31366984049479,-1.7413330078125,-0.6529998779296875,-1.0208583114170793,1.8513573540581596,0.06785074869791667,-1.7641703287760415,0.8351,-0.2037,8.3795,0.17884,-0.01283,-0.02363,0.001,0.001,0.001,0.0005,0.0005,0.0005,0.01,0.01,0.01,passive,-1
4.141,excitation,multi_sine,26.326319637677166,-666.6305343376348,306.1606500705606,-177.386923469249,0.13054824790718422,-149.95660977396318,-22.5401,0.0766,13.3574,-83.5074,-1.2032,33.1486,79.70916219276957,27.224583389735457,82.76283113083036,-21.927396986219616,-88.95001729329427,-40.365820990668404,-1.9045846769125154,-0.7618297916827815,-1.134216006439511,1.8868255615234375,0.06785074869791667,-2.0355902777777777,0.9055,-0.1345,8.8755,0.1931,-0.02208,-0.02155,0.001,0.001,0.001,0.0005,0.0005,0.0005,0.01,0.01,0.01,passive,-1
4.1609,excitation,multi_sine,25.968211904348383,-666.6265981357869,306.3756868470071,-177.38701195863936,0.1306228446920264,-149.9559127781128,-24.211,0.063,13.9472,-78.6144,-1.8629,28.819,79.6858570363262,27.215609408841274,82.74932257019647,-21.90415276421441,-88.94928826226128,-40.38932800292969,-1.9589996337890625,-0.7618297916827815,-1.1181036316522277,1.9934590657552083,0.06785074869791667,-1.9677310519748263,0.694,-0.0935,8.6919,0.17609,-0.00851,-0.01977,0.001,0.001,0.001,0.0005,0.0005,0.0005,0.01,0.01,0.01,passive,-1
4.181,excitation,multi_sine,25.29117117665412,-666.6243041627513,306.7658352623609,-177.38686676688616,0.13054971482143024,-149.95595406600128,-25.7928,0.0243,14.5618,-61.7228,-2.1898,19.6051,79.61883771537553,27.191189303256497,82.71152307491491,-21.839913262261284,-88.94722832573784,-40.45579698350694,-2.2310880151125465,-0.7074148348062346,-1.2770110781830135,2.0140753851996527,-0.0,-2.171291775173611,0.6279,-0.1339,8.455,0.1753,-0.00464,-0.02005,0.001,0.001,0.001,0.0005,0.0005,0.0005,0.01,0.01,0.01,passive,-1
4.201,excitation,multi_sine,24.8726767827532,-666.6268437408952,306.9945541075736,-177.3869123480458,0.13060147085716264,-149.95704683607735,-27.572,-0.0356,15.3242,-44.3829,-2.0873,11.932,79.58241830957998,27.17916960763459,82.69114805920289,-21.806352403428818,-88.94615173339844,-40.49073961046007,-2.3399179288656407,-0.7618297916827815,-1.2676495844774907,2.1469794379340277,0.06785074869791667,-2.2391425238715277,0.7011,-0.0714,8.1846,0.1892,-0.00886,-0.01392,0.001,0.001,0.001,0.0005,0.0005,0.0005,0.01,0.01,0.01,passive,-1
4.2208,excitation,multi_sine,24.222924097410658,-666.6259231846077,307.3467380758479,-177.3873031930127,0.13096165725755987,-149.95854379323546,-28.3948,-0.0665,15.4723,-32.9321,-1.7799,8.2134,79.52580064830214,27.16016108446782,82.66041217464031,-21.754362318250866,-88.94446478949652,-40.545264350043404,-2.3943328857421875,-0.8162515470297029,-1.2765759760790532,2.1706983778211804,0.06785074869791667,-2.171291775173611,0.7245,-0.0497,8.1754,0.19852,-0.01396,-0.01261,0.001,0.001,0.001,0.0005,0.0005,0.0005,0.01,0.01,0.01,passive,-1
4.2412,excitation,multi_sine,23.772690329810747,-666.6291825782303,307.59589599102753,-177.3867186946461,0.13043857276805948,-149.95923577489245,-28.3761,-0.1032,15.255,-25.2512,-1.2555,5.4718,79.4866414589457,27.147189602993503,82.63833754133469,-21.718902587890625,-88.94332038031683,-40.58332655164931,-2.557584554842203,-0.8162515470297029,-1.3420724396658417,2.1836174858940973,0.06785074869791667,-2.374852498372396,0.7392,-0.0544,8.8154,0.20039,-0.02673,-0.01256,0.001,0.001,0.001,0.0005,0.0005,0.0005,0.01,0.01,0.01,passive,-1
4.261,excitation,multi_sine,23.080688901370994,-666.6313745832565,307.9612274551107,-177.38731376698138,0.1309619851507168,-149.95986087670872,-28.0918,-0.1316,14.9865,-23.0863,-0.3664,5.1784,79.42640701142868,27.12805190888962,82.60543974319307,-21.66421678331163,-88.9415062798394,-40.642310248480904,-2.557584554842203,-0.7618297916827815,-1.3971060573464573,2.3467508951822915,0.06785074869791667,-2.510553995768229,0.6086,-0.0637,8.997,0.19212,-0.01392,-0.01322,0.001,0.001,0.001,0.0005,0.0005,0.0005,0.01,0.01,0.01,passive,-1
4.2816,excitation,multi_sine,22.61125652272318,-666.6366576160102,308.2144967285445,-177.38713078566786,0.13082805408691145,-149.95969635558225,-28.3794,-0.1272,15.0962,-27.5986,0.736,8.7546,79.38560939071202,27.11529797846728,82.5821073928682,-21.627078586154514,-88.94025166829427,-40.68284776475694,-2.503169597965656,-0.8162515470297029,-1.4729497928430537,2.3119693332248263,-0.0,-2.5784132215711804,0.7058,-0.0725,8.8808,0.19431,-0.00837,-0.01474,0.001,0.001,0.001,0.0005,0.0005,0.0005,0.01,0.01,0.01,passive,-1
4.3011,excitation,multi_sine,21.889768864880192,-666.6353733491904,308.5904658468821,-177.3883468838446,0.13192901309293933,-149.95949065405986,-29.6236,-0.1123,15.6775,-38.5282,1.4117,15.8458,79.32275753210087,27.095446444974087,82.54820342111115,-21.569714016384548,-88.93830193413628,-40.745247734917534,-2.6664212670656715,-0.87066650390625,-1.4566470608852877,2.4353705512152777,0.06785074869791667,-2.714114718967014,0.7033,-0.1802,8.2741,0.19434,-0.01441,-0.00988,0.001,0.001,0.001,0.0005,0.0005,0.0005,0.01,0.01,0.01,passive,-1
4.3211,excitation,multi_sine,21.39506490647655,-666.6378304431338,308.85827021364895,-177.3881549515341,0.1317431755762819,-149.9590250677588,-30.8763,-0.0666,16.1422,-55.7599,1.8565,25.6576,79.27973001310141,27.081727131758587,82.52391928493387,-21.53061760796441,-88.93700493706596,-40.78829447428385,-2.6664212670656715,-0.8162515470297029,-1.608837618686185,2.520929972330729,0.06785074869791667,-2.6462639702690973,0.5656,-0.2546,8.5528,0.1754,-0.01874,-0.01996,0.001,0.001,0.001,0.0005,0.0005,0.0005,0.01,0.01,0.01,passive,-1
4.3409,excitation,multi_sine,20.886818517671326,-666.6402027316851,309.1243076942334,-177.3882529143652,0.1318463805937317,-149.95905246951477,-32.0321,-0.0053,16.6551,-66.756,2.0303,31.1433,79.24683221495978,27.071597410900758,82.50566539197865,-21.50114271375868,-88.93599616156683,-40.821117824978295,-2.7752511808187657,-0.87066650390625,-1.540084687790068,2.4876234266493054,0.06785074869791667,-2.714114718967014,0.5952,-0.2758,8.4584,0.18631,-0.02018,-0.01731,0.001,0.001,0.001,0.0005,0.0005,0.0005,0.01,0.01,0.01,passive,-1
4.3611,excitation,multi_sine,20.093294141840452,-666.6409689248474,309.5386185266974,-177.38797667330562,0.13162989449660273,-149.95987682381335,-33.2668,0.0422,17.2924,-65.1916,1.6269,29.4484,79.16648109360497,27.046667420037902,82.46238632957534,-21.430714925130207,-88.93358018663194,-40.899548000759545,-2.884087893042234,-0.9250814607827971,-1.5917190702834931,2.5310431586371527,-0.0,-2.781973944769965,0.5291,-0.1316,8.7198,0.18748,-0.01082,-0.01351,0.001,0.001,0.001,0.0005,0.0005,0.0005,0.01,0.01,0.01,passive,-1
4.3809,excitation,multi_sine,19.551119824248534,-666.6389993099056,309.815527631442,-177.38803924149684,0.13164076393683838,-149.96032001302666,-34.4228,0.055,17.8403,-55.3279,0.8929,24.4874,79.13123782318418,27.035783068968517,82.44378571463103,-21.400299072265625,-88.93255445692274,-40.93410068088107,-2.884087893042234,-0.9250814607827971,-1.5162968399501082,2.5488959418402777,0.06785074869791667,-2.985526190863715,0.5891,-0.2398,8.6101,0.18561,-0.00873,-0.01126,0.001,0.001,0.001,0.0005,0.0005,0.0005,0.01,0.01,0.01,passive,-1
4.4011,excitation,multi_sine,18.589532797862525,-666.6363436986624,310.3039889860227,-177.3883440831954,0.1318438375735337,-149.95979931908832,-35.6332,0.0579,18.3687,-39.3621,0.01,17.3933,79.03558334501663,27.006685615766166,82.39376936808671,-21.31758795844184,-88.92969767252605,-41.02923075358073,-2.8296661376953125,-0.87066650390625,-1.665054170211943,2.589111328125,0.13570149739583334,-2.985526190863715,0.6243,-0.2597,8.4957,0.19238,-0.01849,-0.01246,0.001,0.001,0.001,0.0005,0.0005,0.0005,0.01,0.01,0.01,passive,-1
4.4209,excitation,multi_sine,18.042880273733157,-666.6330898115345,310.58579262666854,-177.38887296368586,0.13230364874081788,-149.95907036034535,-36.9004,0.0669,18.9032,-26.8475,-0.7569,9.1998,78.98797365698483,26.99201451669825,82.36824111183091,-21.27516852484809,-88.92823961046007,-41.07708401150173,-2.992917806795328,-0.9250814607827971,-1.5797265685430848,2.753270467122396,0.06785074869791667,-3.121236165364583,0.5006,-0.1433,8.8242,0.18774,-0.00882,-0.01471,0.001,0.001,0.001,0.0005,0.0005,0.0005,0.01,0.01,0.01,passive,-1
4.441,excitation,multi_sine,17.212530973048864,-666.632962386057,311.02609634611804,-177.38862153858904,0.13212199610996175,-149.95679538578574,-36.7473,0.035,18.6968,-20.7369,-1.039,2.5917,78.91573990925704,26.969797115514773,82.32776301922185,-21.210437350802952,-88.92596774631076,-41.150851779513886,-3.1561694758953434,-0.9250814607827971,-1.6578341946743502,2.661404079861111,0.13570149739583334,-3.121236165364583,0.5949,-0.2993,7.8488,0.19735,-0.014,-0.01732,0.001,0.001,0.001,0.0005,0.0005,0.0005,0.01,0.01,0.01,passive,-1
4.4608,excitation,multi_sine,16.635706755424405,-666.6336166301504,311.3173332096742,-177.38886532620919,0.1323264734331352,-149.95632554501378,-36.9821,-0.0031,18.6849,-17.2645,-0.7129,-0.2848,78.8655943917756,26.955289179735843,82.30050115302058,-21.16675482855903,-88.92445034450955,-41.200968424479164,-3.047339562142249,-0.87066650390625,-1.7588254720857828,2.7741241455078125,0.06785074869791667,-3.121236165364583,0.5543,-0.2383,8.8087,0.19261,-0.01536,-0.01526,0.001,0.001,0.001,0.0005,0.0005,0.0005,0.01,0.01,0.01,passive,-1
4.4809,excitation,multi_sine,15.742907221066828,-666.6352900194549,311.7600783575444,-177.38852184906403,0.13204572961075964,-149.9574995696468,-36.8361,-0.0188,18.6333,-13.4302,-0.1459,-1.3213,78.78801704633354,26.93332332195622,82.25926163172957,-21.101582845052082,-88.92213609483507,-41.27662658691406,-3.2650061881188117,-0.9250814607827971,-1.6557742581509127,2.788865831163194,0.06785074869791667,-3.1890869140625,0.4413,-0.2316,8.6665,0.18838,-0.02067,-0.00812,0.001,0.001,0.001,0.0005,0.0005,0.0005,0.01,0.01,0.01,passive,-1
4.5013,excitation,multi_sine,15.13321887048597,-666.6346553784651,312.06426621677184,-177.38770144051344,0.13128032989342692,-149.9584236920041,-36.7643,-0.0254,18.2637,-10.0478,0.3442,-1.5421,78.7350297682356,26.91802676361386,82.2315510664836,-21.058052910698784,-88.92060173882378,-41.32819281684028,-3.319421144995359,-0.979496417659344,-1.7718853336749691,2.670610215928819,0.13570149739583334,-3.121236165364583,0.5084,-0.2471,8.1445,0.20085,-0.0101,-0.00549,0.001,0.001,0.001,0.0005,0.0005,0.0005,0.01,0.01,0.01,passive,-1
4.5213,excitation,multi_sine,14.214937221256944,-666.6351787916442,312.5150574573999,-177.38724712610605,0.1308311071860768,-149.95897714650445,-38.0593,-0.0061,18.4834,-12.756,0.7901,1.5557,78.65525651686262,26.89583655631188,82.18935975934019,-20.99180433485243,-88.91825358072917,-41.406656901041664,-3.2650061881188117,-0.9250814607827971,-1.79291300254293,2.7495490180121527,0.13570149739583334,-3.1890869140625,0.5661,-0.329,8.591,0.19644,-0.0108,-0.01394,0.001,0.001,0.001,0.0005,0.0005,0.0005,0.01,0.01,0.01,passive,-1
4.5412,excitation,multi_sine,13.602281642102108,-666.6368456822319,312.8210678917396,-177.38698935246498,0.13059431901467006,-149.95964562678228,-38.6115,0.0415,18.8492,-16.3054,0.9159,4.968,78.60206528465346,26.881111069480973,82.16018072449334,-20.94658745659722,-88.91668531629774,-41.45866394042969,-3.2650061881188117,-0.9250814607827971,-1.8337106232595917,2.8586663140190973,0.06785074869791667,-3.1890869140625,0.5565,-0.3743,7.7905,0.19754,-0.01363,-0.00891,0.001,0.001,0.001,0.0005,0.0005,0.0005,0.01,0.01,0.01,passive,-1
