t,trajectory_type,trajectory_variant,x,y,z,rx,ry,rz,vx,vy,vz,ax,ay,az,j1,j2,j3,j4,j5,j6,dj1,dj2,dj3,dj4,dj5,dj6,fx,fy,fz,tx,ty,tz,Mx,My,Mz,Bx,By,Bz,Kx,Ky,Kz,mode,comfort
0.0002,rehab,large_slow,80.22208911253605,-666.633543479539,262.48202418976183,-177.38943673640577,0.1330186039698088,-149.98547604272417,0.7206,0.1135,-0.7947,-24.9616,-4.4037,33.053,84.42619928038947,30.033894907129874,85.85564566130685,-27.96629163953993,-89.09211052788628,-35.68876478407118,-0.0,-0.05441495687654703,-0.018342273070080444,0.0004323323567708333,-0.0,-0.06785074869791667,2.0019,0.4012,2.6664,0.03384,-0.0373,-0.03995,0.0009270289447158575,0.000999892596155405,0.0008846033597365022,0.0004495485045481473,0.0005001203389838338,0.0005064711440354586,0.011400585062801838,0.011200910434126854,0.011713732965290546,passive,0
0.0205,rehab,large_slow,80.22187492790486,-666.6334900867352,262.48237879599793,-177.3894028242516,0.1330050781913141,-149.98550463538197,0.4545,0.0697,-0.487,-23.3143,-3.7001,28.7488,84.42617888497834,30.033860914778,85.85565245977723,-27.966300116644966,-89.09210205078125,-35.68875630696615,0.05441495687654703,-0.0,0.005098852780785891,-0.0010087754991319445,0.06785074869791667,-0.0,1.7799,0.3537,2.5157,0.00639,-0.03547,-0.04516,0.0009270289447158575,0.000999892596155405,0.0008846033597365022,0.0004495485045481473,0.0005001203389838338,0.0005064711440354586,0.011400585062801838,0.011200910434126854,0.011713732965290546,passive,0
0.0408,rehab,large_slow,80.22166598701301,-666.6333915954469,262.4828084420129,-177.38940322013772,0.13296411243708747,-149.98552774232982,-0.0604,-0.0067,0.0937,-20.5693,-2.3945,21.3585,84.42617208650796,30.033833720896503,85.85565245977723,-27.96627468532986,-89.09211900499132,-35.68874782986111,-0.0,-0.0,5.4387762995049506e-05,-0.009519788953993056,0.06785074869791667,-0.0,1.7971,0.3857,2.6578,0.01996,-0.02704,-0.04463,0.0009270289447158575,0.000999892596155405,0.0008846033597365022,0.0004495485045481473,0.0005001203389838338,0.0005064711440354586,0.011400585062801838,0.011200910434126854,0.011713732965290546,passive,0
0.0607,rehab,large_slow,80.221444996568,-666.6334008215538,262.48345891250665,-177.3893334276465,0.1329252799655053,-149.9855649741409,-0.5323,-0.0595,0.5945,-18.6069,-1.2699,16.1505,84.42614489262647,30.033772534663132,85.85564566130685,-27.96630859375,-89.09212748209636,-35.68873087565104,-0.0,-0.0,-0.01046964437654703,-0.08039686414930555,-0.0,0.06785074869791667,1.7686,0.4295,2.7691,0.00015,-0.02301,-0.04334,0.0009270289447158575,0.000999892596155405,0.0008846033597365022,0.0004495485045481473,0.0005001203389838338,0.0005064711440354586,0.011400585062801838,0.011200910434126854,0.011713732965290546,passive,0
0.0805,rehab,large_slow,80.21960562675228,-666.6333425299572,262.4848065777955,-177.3892446846434,0.1328830523531432,-149.98573554655195,-0.949,-0.0877,1.0026,-17.0119,-0.2985,12.7464,84.42598172933748,30.033650162196395,85.85564566130685,-27.966283162434895,-89.09211052788628,-35.688722398546005,-0.0,-0.05441495687654703,-0.0002243495223545792,-0.030364990234375,-0.0,0.06785074869791667,1.7744,0.2922,2.6481,-0.00189,-0.02492,-0.03907,0.0009270289447158575,0.000999892596155405,0.0008846033597365022,0.0004495485045481473,0.0005001203389838338,0.0005064711440354586,0.011400585062801838,0.011200910434126854,0.011713732965290546,passive,0
0.1007,rehab,large_slow,80.20304670867456,-666.633939059184,262.50272582261124,-177.38799674966816,0.1319917716356939,-149.98716651709128,-1.2713,-0.0751,1.234,-15.4263,0.4866,11.2453,84.42454725208849,30.032297266591893,85.85527854390664,-27.96609666612413,-89.09211052788628,-35.688722398546005,-0.16324487062964108,-0.10882991375309406,-0.033387288008586015,0.0011613633897569445,-0.0,-0.0,1.7371,0.409,3.1398,0.00992,-0.03942,-0.03919,0.0009270289447158575,0.000999892596155405,0.0008846033597365022,0.0004495485045481473,0.0005001203389838338,0.0005064711440354586,0.011400585062801838,0.011200910434126854,0.011713732965290546,passive,0
0.1208,rehab,large_slow,80.16773259864337,-666.6369040034897,262.5390992674346,-177.385574996694,0.1302619252856258,-149.99014278302897,-1.4915,-0.0422,1.2939,-13.1778,1.2487,10.4455,84.42150153736077,30.029754638671875,85.85414319935411,-27.96539306640625,-89.09211052788628,-35.68878173828125,-0.16324487062964108,-0.2176666259765625,-0.11645779751314975,0.0711483425564236,-0.0,-0.0,1.6071,0.4571,2.8467,0.00368,-0.02637,-0.04192,0.0009270289447158575,0.000999892596155405,0.0008846033597365022,0.0004495485045481473,0.0005001203389838338,0.0005064711440354586,0.011400585062801838,0.011200910434126854,0.011713732965290546,passive,0
0.1404,rehab,large_slow,80.1034811315103,-666.6410025676541,262.6021755069326,-177.38276257109808,0.12823926709259542,-149.99453426623938,-1.8209,-0.0153,1.5213,-13.4078,1.7128,13.1827,84.41672901115795,30.025906704439976,85.85192009954169,-27.962536282009548,-89.09210205078125,-35.68948533799913,-0.2176666259765625,-0.16324487062964108,-0.10514514281017945,0.17636617024739584,-0.0,-0.06785074869791667,1.8015,0.6535,2.6342,0.02101,-0.01877,-0.03648,0.0009270289447158575,0.000999892596155405,0.0008846033597365022,0.0004495485045481473,0.0005001203389838338,0.0005064711440354586,0.011400585062801838,0.011200910434126854,0.011713732965290546,passive,0
0.1604,rehab,large_slow,80.0696293694018,-666.6405478115238,262.62885159260736,-177.38299533290734,0.12832188290312235,-149.99495880177497,-2.1392,0.0177,1.8491,-19.0638,1.6251,22.5369,84.41298305398166,30.023248502523593,85.85015929571473,-27.958026462131077,-89.09208509657118,-35.69240146213107,-0.16324487062964108,-0.10882991375309406,-0.07399455155476485,0.24107191297743055,-0.0,-0.13570149739583334,1.6295,0.3567,2.7881,0.00946,-0.02918,-0.0389,0.0009270289447158575,0.000999892596155405,0.0008846033597365022,0.0004495485045481473,0.0005001203389838338,0.0005064711440354586,0.011400585062801838,0.011200910434126854,0.011713732965290546,passive,0
0.1804,rehab,large_slow,80.04065005337355,-666.6376301740795,262.6480936774135,-177.38476973960326,0.12949222952477832,-149.99380301385614,-2.5616,0.056,2.4184,-32.4491,1.1393,39.7736,84.41105228839534,30.02195679315246,85.84912592821782,-27.95419481065538,-89.09205966525607,-35.69502088758681,-0.05441495687654703,-0.10882991375309406,-0.08364837948638613,0.3298780653211805,-0.06785074869791667,-0.20355224609375,1.7383,0.428,3.0448,0.01397,-0.03316,-0.04134,0.0009270289447158575,0.000999892596155405,0.0008846033597365022,0.0004495485045481473,0.0005001203389838338,0.0005064711440354586,0.011400585062801838,0.011200910434126854,0.011713732965290546,passive,0
0.2008,rehab,large_slow,79.98589397268147,-666.6333760013644,262.6912000536585,-177.38811394962954,0.131721166957319,-149.99093719081282,-3.076,0.0797,3.16,-53.503,0.4733,63.9833,84.40657209641863,30.018843093720992,85.8460530196086,-27.94365776909722,-89.09197489420573,-35.702200995551216,-0.2720815828531095,-0.16324487062964108,-0.2086382573193843,0.5368465847439235,-0.0,-0.339262220594618,1.5978,0.4036,2.4508,0.01711,-0.03395,-0.03566,0.0009270289447158575,0.000999892596155405,0.0008846033597365022,0.0004495485045481473,0.0005001203389838338,0.0005064711440354586,0.011400585062801838,0.011200910434126854,0.011713732965290546,passive,0
0.2204,rehab,large_slow,79.92756453031363,-666.6328996373077,262.75075312637955,-177.38929674663743,0.13253064883912175,-149.98939109203036,-4.1436,0.0785,4.4846,-71.8818,-0.0222,82.6045,84.40045347308168,30.01383941952545,85.8411173301168,-27.931493123372395,-89.09177992078993,-35.71021185980903,-0.3809114966062036,-0.32649653972965653,-0.2930480654877011,0.6714545355902778,-0.0,-0.4071129692925347,1.7742,0.3104,2.6853,0.02112,-0.04712,-0.03902,0.0009270289447158575,0.000999892596155405,0.0008846033597365022,0.0004495485045481473,0.0005001203389838338,0.0005064711440354586,0.011400585062801838,0.011200910434126854,0.011713732965290546,passive,0
0.2404,rehab,large_slow,79.80581331838829,-666.6322281237706,262.88985608066105,-177.38969604020426,0.13289544206476805,-149.98717846878708,-5.8894,0.0649,6.4541,-87.1948,-0.4926,94.3689,84.38974588224204,30.00394084666035,85.83250366815246,-27.91208055284288,-89.09133063422308,-35.72291056315104,-0.489748208829672,-0.435333251953125,-0.3758670315884127,0.9049140082465278,-0.0,-0.5428229437934028,1.7806,0.4348,3.2795,0.01827,-0.04257,-0.04398,0.0009270289447158575,0.000999892596155405,0.0008846033597365022,0.0004495485045481473,0.0005001203389838338,0.0005064711440354586,0.011400585062801838,0.011200910434126854,0.011713732965290546,passive,0
0.2605,rehab,large_slow,79.7019936040645,-666.6311991227683,263.01346748165736,-177.38946637464832,0.1327845519339598,-149.98553584455678,-8.0238,0.0436,8.7153,-100.2148,-0.9716,101.1193,84.38061553652923,29.99509603670328,85.82520890944075,-27.895889282226562,-89.09096611870659,-35.73349846733941,-0.7074148348062346,-0.6529998779296875,-0.4900813338780167,1.0585276285807292,-0.0,-0.678524441189236,1.765,0.4412,3.3207,0.0228,-0.03617,-0.04057,0.0009270289447158575,0.000999892596155405,0.0008846033597365022,0.0004495485045481473,0.0005001203389838338,0.0005064711440354586,0.011400585062801838,0.011200910434126854,0.011713732965290546,passive,0
0.2808,rehab,large_slow,79.49587184990754,-666.6312567865216,263.2419027346364,-177.38906655695675,0.13254605494349422,-149.98361039711557,-10.784,0.0145,11.485,-110.1659,-1.2568,103.1097,84.3659512359317,29.981709848536124,85.81414779814163,-27.87138197157118,-89.0904320610894,-35.749596489800346,-0.87066650390625,-0.7618297916827815,-0.6229438404045483,1.3537428114149306,0.06785074869791667,-0.9499359130859375,1.6624,0.3606,2.5728,0.01688,-0.03213,-0.03949,0.0009270289447158575,0.000999892596155405,0.0008846033597365022,0.0004495485045481473,0.0005001203389838338,0.0005064711440354586,0.011400585062801838,0.011200910434126854,0.011713732965290546,passive,0
0.3005,rehab,large_slow,79.31849564898785,-666.6331568388368,263.42323290295866,-177.38896577983203,0.13251281415249602,-149.98336387792273,-12.7154,0.0018,13.2047,-113.0191,-1.3001,98.5196,84.34698350358717,29.965930598797183,85.80067322985961,-27.84174601236979,-89.08983018663194,-35.76868693033854,-1.0339181730062654,-0.87066650390625,-0.7294554757599784,1.6173299153645833,0.06785074869791667,-1.0177951388888888,1.7327,0.4025,3.4943,0.01251,-0.03095,-0.04638,0.0009270289447158575,0.000999892596155405,0.0008846033597365022,0.0004495485045481473,0.0005001203389838338,0.0005064711440354586,0.011400585062801838,0.011200910434126854,0.011713732965290546,passive,0
0.3206,rehab,large_slow,78.9435872530483,-666.630321251157,263.80795651206887,-177.38875598721432,0.13237137837833257,-149.9829385344488,-14.556,-0.0107,14.6363,-106.4935,-1.1002,87.4535,84.3192185505782,29.942203937190595,85.78206581644493,-27.798945109049477,-89.0889909532335,-35.79625447591146,-1.251584798982828,-1.0883331298828125,-0.8161495699740873,1.9005839029947915,0.06785074869791667,-1.2892066107855902,1.7274,0.3616,3.14,0.01316,-0.03144,-0.04227,0.0009270289447158575,0.000999892596155405,0.0008846033597365022,0.0004495485045481473,0.0005001203389838338,0.0005064711440354586,0.011400585062801838,0.011200910434126854,0.011713732965290546,passive,0
0.3408,rehab,large_slow,78.68418725146861,-666.6286135042719,264.0560312454943,-177.3892914580327,0.13280082325527723,-149.98311316737562,-16.7958,-0.0442,16.3766,-97.0318,-0.4941,77.6887,84.29132442663212,29.91960582166615,85.76443738276416,-27.757178412543404,-89.08811781141493,-35.82363552517361,-1.5236663818359375,-1.1971630436359066,-0.9896601308690439,2.2843424479166665,0.06785074869791667,-1.4249081081814237,1.773,0.5383,3.2933,0.03061,-0.0355,-0.03751,0.0009270289447158575,0.000999892596155405,0.0008846033597365022,0.0004495485045481473,0.0005001203389838338,0.0005064711440354586,0.011400585062801838,0.011200910434126854,0.011713732965290546,passive,0
0.3605,rehab,large_slow,78.25343341499159,-666.6312935416594,264.48630791909244,-177.3888206489594,0.13254392439815918,-149.98298679150284,-18.7855,-0.0586,17.8935,-91.1753,0.4971,75.8032,84.25357252064317,29.88884954169245,85.73888193262685,-27.700330946180554,-89.08692253960503,-35.86086697048611,-1.7413330078125,-1.360414712735922,-1.1398043490872525,2.5791422526041665,0.06785074869791667,-1.6284688313802083,1.6826,0.3308,2.426,0.04113,-0.0429,-0.03579,0.0009270289447158575,0.000999892596155405,0.0008846033597365022,0.0004495485045481473,0.0005001203389838338,0.0005064711440354586,0.011400585062801838,0.011200910434126854,0.011713732965290546,passive,0
0.3807,rehab,large_slow,77.91818230796257,-666.6342313379255,264.79691337550275,-177.38911066496956,0.13278622108239202,-149.98380409353558,-20.7195,-0.0521,19.4723,-94.9603,1.4612,86.9593,84.22420992709623,29.866543760394105,85.72031531003442,-27.658276028103298,-89.08604092068143,-35.88893466525607,-1.795747964689047,-1.360414712735922,-1.169867185082766,2.702085706922743,-0.0,-1.832029554578993,1.573,0.2087,2.8751,0.01818,-0.04021,-0.03746,0.0009270289447158575,0.000999892596155405,0.0008846033597365022,0.0004495485045481473,0.0005001203389838338,0.0005064711440354586,0.011400585062801838,0.011200910434126854,0.011713732965290546,passive,0
0.4005,rehab,large_slow,77.5659750327377,-666.6340597297307,265.123310532029,-177.39010221072886,0.13349931860983327,-149.98383119110565,-22.4665,-0.0304,21.1174,-102.9856,1.8993,101.8029,84.20117670946782,29.849010505298576,85.70597733601485,-27.624613444010414,-89.08536275227864,-35.91139899359809,-1.9589996337890625,-1.5780813387124846,-1.2577238177308943,2.8862847222222223,0.06785074869791667,-1.8998803032769096,1.7151,0.3204,3.0362,0.02588,-0.03368,-0.04254,0.0009270289447158575,0.000999892596155405,0.0008846033597365022,0.0004495485045481473,0.0005001203389838338,0.0005064711440354586,0.011400585062801838,0.011200910434126854,0.011713732965290546,passive,0
0.4207,rehab,large_slow,76.98128490757588,-666.6367007999947,265.6703431884445,-177.3907743047741,0.13395542173071207,-149.98441361420984,-23.9944,0.0372,22.8657,-109.2121,1.8092,111.7893,84.14210480038483,29.803528738493966,85.66823222849628,-27.538842095269096,-89.08362494574652,-35.96907721625434,-2.122251302889078,-1.5780813387124846,-1.3962494500792852,3.2794613308376737,0.06785074869791667,-2.2391425238715277,1.5352,0.3872,2.8966,0.01884,-0.03188,-0.04217,0.0009270289447158575,0.000999892596155405,0.0008846033597365022,0.0004495485045481473,0.0005001203389838338,0.0005064711440354586,0.011400585062801838,0.011200910434126854,0.011713732965290546,passive,0
0.4407,rehab,large_slow,76.55946874757053,-666.6357778080993,266.0595301503232,-177.3917451710233,0.1346490297364374,-149.98492401972152,-26.0624,0.1193,25.167,-110.8533,1.1022,113.3318,84.11465257701308,29.782657434444616,85.65104569538985,-27.49906751844618,-89.08281114366319,-35.995890299479164,-2.3399179288656407,-1.7413330078125,-1.5156169929126702,3.364223904079861,0.06785074869791667,-2.171291775173611,1.4538,0.4101,2.7746,0.01259,-0.02528,-0.03883,0.0009270289447158575,0.000999892596155405,0.0008846033597365022,0.0004495485045481473,0.0005001203389838338,0.0005064711440354586,0.011400585062801838,0.011200910434126854,0.011713732965290546,passive,0
0.4609,rehab,large_slow,75.888960106289,-666.6316090527146,266.7076999173527,-177.39150032533811,0.13448549701353538,-149.98516521228697,-29.1994,0.1566,28.4515,-111.9974,-0.0612,110.6328,84.05630130578976,29.73635985119508,85.61417079207921,-27.41417778862847,-89.08109029134114,-36.052585177951386,-2.61199951171875,-2.067836346012531,-1.6526673571898205,3.6509450276692705,0.06785074869791667,-2.4427032470703125,1.5578,0.3573,3.2568,0.01369,-0.03271,-0.03827,0.0009270289447158575,0.000999892596155405,0.0008846033597365022,0.0004495485045481473,0.0005001203389838338,0.0005064711440354586,0.011400585062801838,0.011200910434126854,0.011713732965290546,passive,0
0.4803,rehab,large_slow,75.42051026520053,-666.6277220994345,267.17502300790517,-177.39057092456474,0.1337857793207776,-149.98477835414394,-31.5665,0.1155,30.7501,-109.4402,-1.092,102.1341,84.00519720398553,29.694562855333384,85.580681527015,-27.33872307671441,-89.07955593532986,-36.10334608289931,-2.557584554842203,-2.176666259765625,-1.7089518934193224,3.845731947157118,0.06785074869791667,-2.6462639702690973,1.5873,0.3767,3.3682,0.02349,-0.03028,-0.03963,0.0009270289447158575,0.000999892596155405,0.0008846033597365022,0.0004495485045481473,0.0005001203389838338,0.0005064711440354586,0.011400585062801838,0.011200910434126854,0.011713732965290546,passive,0
0.5008,rehab,large_slow,74.68272687017932,-666.6216133763311,267.92070335685105,-177.38870537134534,0.1324122199252198,-149.982901582306,-33.8548,0.0427,32.6022,-97.6027,-1.8696,83.6273,83.94044857213993,29.641024901135133,85.5373752707302,-27.242304484049477,-89.07757229275174,-36.16887410481771,-2.7752511808187657,-2.2855029719890934,-1.9378156001024907,4.095755683051215,0.06785074869791667,-2.8498246934678817,1.4845,0.498,3.1575,0.03391,-0.02344,-0.03349,0.0009270289447158575,0.000999892596155405,0.0008846033597365022,0.0004495485045481473,0.0005001203389838338,0.0005064711440354586,0.011400585062801838,0.011200910434126854,0.011713732965290546,passive,0
0.5206,rehab,large_slow,74.1643932193522,-666.6196132310046,268.42628541030433,-177.38862062000052,0.13238159130210767,-149.98170335657403,-35.3282,-0.0188,33.6526,-81.3631,-1.9333,63.3917,83.8949736038057,29.60502020203241,85.50697251121596,-27.174657185872395,-89.0761481391059,-36.21477762858073,-2.938502849918781,-2.2855029719890934,-1.9573612024288367,4.365132649739583,0.06785074869791667,-2.985526190863715,1.6373,0.4091,2.9857,0.04453,-0.03976,-0.03112,0.0009270289447158575,0.000999892596155405,0.0008846033597365022,0.0004495485045481473,0.0005001203389838338,0.0005064711440354586,0.011400585062801838,0.011200910434126854,0.011713732965290546,passive,0
0.5407,rehab,large_slow,73.18787278728256,-666.6245840929173,269.34027991155756,-177.3893788345157,0.13296475639095234,-149.98138836363077,-36.2354,-0.0693,34.1365,-60.7001,-1.199,42.0673,83.82218238150719,29.55008856140741,85.45856740215036,-27.068405151367188,-89.0739525689019,-36.286841498480904,-3.047339562142249,-2.2310880151125465,-2.114623419129022,4.543372260199653,0.13570149739583334,-3.121236165364583,1.5415,0.2907,3.3973,0.02425,-0.02998,-0.0367,0.0009270289447158575,0.000999892596155405,0.0008846033597365022,0.0004495485045481473,0.0005001203389838338,0.0005064711440354586,0.011400585062801838,0.011200910434126854,0.011713732965290546,passive,0
0.5608,rehab,large_slow,72.59196408166228,-666.6297858375603,269.88330156858285,-177.39007442077187,0.13344089063272332,-149.98194301969065,-37.9749,-0.0674,35.506,-45.3593,-0.1737,28.006,83.77069076689163,29.51239784165184,85.42432350687461,-26.99445088704427,-89.07240973578558,-36.33720397949219,-3.2105844327718907,-2.3399179288656407,-2.1538166008373296,4.651396009657118,0.06785074869791667,-3.1890869140625,1.4946,0.2777,2.5854,0.01423,-0.03261,-0.03144,0.0009270289447158575,0.000999892596155405,0.0008846033597365022,0.0004495485045481473,0.0005001203389838338,0.0005064711440354586,0.011400585062801838,0.011200910434126854,0.011713732965290546,passive,0
0.5803,rehab,large_slow,71.64960761134648,-666.6353013338936,270.7331177114055,-177.39080673661283,0.13398182943979947,-149.98382840640767,-38.7198,-0.0436,35.9674,-42.0026,0.525,26.6414,83.67466917132387,29.443610918403852,85.362443829527,-26.859792073567707,-89.06962076822917,-36.429384019639755,-3.482672814095374,-2.503169597965656,-2.1864832509862313,4.924121432834201,0.06785074869791667,-3.4604983859592013,1.4425,0.2887,2.965,0.00514,-0.02852,-0.03856,0.0009270289447158575,0.000999892596155405,0.0008846033597365022,0.0004495485045481473,0.0005001203389838338,0.0005064711440354586,0.011400585062801838,0.011200910434126854,0.011713732965290546,passive,0
0.6007,rehab,large_slow,71.0097902411344,-666.6320440313149,271.3306361424055,-177.39039017380145,0.13370052974877009,-149.9843151158793,-39.132,-0.0016,36.1727,-52.829,0.6489,37.2595,83.63263422899907,29.412297163859453,85.33554228225557,-26.80035909016927,-89.06836615668402,-36.47019280327691,-3.428251058748453,-2.7208362239422184,-2.3186795074160735,4.9925994873046875,0.13570149739583334,-3.596208360460069,1.4053,0.2607,2.9797,0.0226,-0.04092,-0.03653,0.0009270289447158575,0.000999892596155405,0.0008846033597365022,0.0004495485045481473,0.0005001203389838338,0.0005064711440354586,0.011400585062801838,0.011200910434126854,0.011713732965290546,passive,0
0.6207,rehab,large_slow,70.35414239378827,-666.6292590346264,271.9552206119796,-177.3892085880158,0.132802624079966,-149.984230477511,-40.3911,0.0315,37.1911,-72.0713,0.4007,53.6978,83.57568344267288,29.368399440652073,85.29767480227027,-26.71875,-89.06667073567708,-36.52645534939236,-3.64592448319539,-2.8296661376953125,-2.29493245039836,5.15228271484375,0.06785074869791667,-3.4604983859592013,1.4604,0.229,2.7397,0.03399,-0.04096,-0.03234,0.0009270289447158575,0.000999892596155405,0.0008846033597365022,0.0004495485045481473,0.0005001203389838338,0.0005064711440354586,0.011400585062801838,0.011200910434126854,0.011713732965290546,passive,0
0.6405,rehab,large_slow,69.33590150125339,-666.6247824497096,272.91474840425474,-177.38739665904237,0.13146015869775535,-149.98446962645173,-41.3051,0.0177,37.7562,-88.0019,0.0473,67.1432,83.47174162911897,29.290332605343053,85.22953373370784,-26.57205369737413,-89.06355963812933,-36.6283925374349,-3.7003394400719367,-2.7752511808187657,-2.42512315806776,5.2643076578776045,0.13570149739583334,-3.7319098578559027,1.5766,0.2505,3.7882,0.03574,-0.04228,-0.03594,0.0009270289447158575,0.000999892596155405,0.0008846033597365022,0.0004495485045481473,0.0005001203389838338,0.0005064711440354586,0.011400585062801838,0.011200910434126854,0.011713732965290546,passive,0
0.6605,rehab,large_slow,68.63944261631899,-666.62359586988,273.55260934149385,-177.38758758516977,0.13161049013131804,-149.9839774669257,-43.0822,-0.01,39.0885,-96.1599,-0.1418,74.851,83.4106709697459,29.246067764735457,85.18923240132851,-26.485477023654514,-89.06170315212674,-36.68896993001302,-3.918006066048499,-2.8296661376953125,-2.4853780009959006,5.551206800672743,0.13570149739583334,-3.8676198323567705,1.539,0.1233,2.8644,0.02772,-0.03483,-0.03719,0.0009270289447158575,0.000999892596155405,0.0008846033597365022,0.0004495485045481473,0.0005001203389838338,0.0005064711440354586,0.011400585062801838,0.011200910434126854,0.011713732965290546,passive,0
0.6805,rehab,large_slow,67.55927792367349,-666.6277194726438,274.50647003972387,-177.38947573288547,0.1329863990927857,-149.9842873753098,-46.2024,-0.0355,41.592,-94.6276,-0.1676,74.4556,83.31602946366414,29.18069367361541,85.12690402493618,-26.352725558810764,-89.05889723036024,-36.78179423014323,-4.026835979801594,-2.8296661376953125,-2.593256128896581,5.7337697347005205,0.20355224609375,-3.9354705810546875,1.1539,0.244,3.3176,0.01476,-0.03824,-0.03489,0.0009270289447158575,0.000999892596155405,0.0008846033597365022,0.0004495485045481473,0.0005001203389838338,0.0005064711440354586,0.011400585062801838,0.011200910434126854,0.011713732965290546,passive,0
0.7003,rehab,large_slow,66.8263341490327,-666.6305362818518,275.15113195647274,-177.39107751903666,0.1341523811132018,-149.98403667563633,-48.5861,-0.0426,43.4625,-81.2107,-0.109,63.2735,83.25181111250774,29.13678235346728,85.08420283251469,-26.26227484809028,-89.05698988172743,-36.84523688422309,-3.9724210229250465,-2.61199951171875,-2.7527686392906867,5.717815823025173,0.13570149739583334,-4.071180555555555,1.3487,0.2045,2.8638,0.03621,-0.0382,-0.03287,0.0009270289447158575,0.000999892596155405,0.0008846033597365022,0.0004495485045481473,0.0005001203389838338,0.0005064711440354586,0.011400585062801838,0.011200910434126854,0.011713732965290546,passive,0
0.7206,rehab,large_slow,65.69429698205381,-666.6363195802566,276.15201827681534,-177.3920729866762,0.13490111644384342,-149.98362284308678,-50.1104,-0.0208,44.6815,-59.7677,0.1552,46.0704,83.16945444239248,29.08056580194152,85.02925759494894,-26.147452460394966,-89.05452304416232,-36.92681206597222,-4.081257735148514,-2.884087893042234,-2.8721701744759436,5.806799994574653,0.06785074869791667,-4.47829352484809,1.2879,0.2833,3.3469,0.0393,-0.03239,-0.0325,0.0009270289447158575,0.000999892596155405,0.0008846033597365022,0.0004495485045481473,0.0005001203389838338,0.0005064711440354586,0.011400585062801838,0.011200910434126854,0.011713732965290546,passive,0
0.7405,rehab,large_slow,64.9195149507836,-666.6334658732645,276.8465895519041,-177.3918665632614,0.1348286215444903,-149.98454182149925,-50.6285,0.0122,45.1465,-31.6016,0.3565,23.4942,83.08469791223507,29.021568676032643,84.97310222965656,-26.03011237250434,-89.05193752712674,-37.00920104980469,-4.135672692025062,-2.992917806795328,-2.8542969958616955,5.947079128689236,0.20355224609375,-4.206882052951388,1.3482,0.1925,3.5466,0.04083,-0.04123,-0.03594,0.0009270289447158575,0.000999892596155405,0.0008846033597365022,0.0004495485045481473,0.0005001203389838338,0.0005064711440354586,0.011400585062801838,0.011200910434126854,0.011713732965290546,passive,0
0.7604,rehab,large_slow,63.53514273296209,-666.6288032745128,278.1054318889691,-177.3892505259069,0.1328414765382109,-149.98658328252398,-49.9223,0.0249,44.4928,4.0145,0.247,-6.0256,82.96333161911161,28.936057515663677,84.89216643984955,-25.863494873046875,-89.04838562011719,-37.12662590874566,-4.353339318001624,-3.1017545190187965,-2.8004191181447244,5.9231821695963545,0.13570149739583334,-4.206882052951388,1.484,0.0758,3.2604,0.03886,-0.05315,-0.03585,0.0009270289447158575,0.000999892596155405,0.0008846033597365022,0.0004495485045481473,0.0005001203389838338,0.0005064711440354586,0.011400585062801838,0.011200910434126854,0.011713732965290546,passive,0
0.7808,rehab,large_slow,62.737821323126234,-666.6256896236075,278.8200678850935,-177.38853702622316,0.13230660258359084,-149.9872229976223,-49.9736,0.0018,44.3828,28.7103,-0.0881,-26.0929,82.91092221099551,28.899651706808864,84.85738546541421,-25.791473388671875,-89.04684278700087,-37.17786153157552,-4.4077542748781715,-2.992917806795328,-2.9824753563002786,6.106194390190972,0.20355224609375,-4.071180555555555,1.3822,0.0477,2.7156,0.0411,-0.03996,-0.03098,0.0009270289447158575,0.000999892596155405,0.0008846033597365022,0.0004495485045481473,0.0005001203389838338,0.0005064711440354586,0.011400585062801838,0.011200910434126854,0.011713732965290546,passive,0
0.8005,rehab,large_slow,61.54815846986185,-666.6270960455414,279.87690470586654,-177.38915660726713,0.1327934748744997,-149.98642124645883,-49.7735,-0.0109,44.1561,32.5919,-0.5327,-28.3614,82.8068716219156,28.82933512772664,84.78559361826075,-25.64571804470486,-89.04367234971788,-37.28095160590278,-4.353339318001624,-2.884087893042234,-3.1171666513575187,6.101337009006076,0.13570149739583334,-4.274732801649305,1.1519,0.0798,3.1281,0.02859,-0.03873,-0.03293,0.0009270289447158575,0.000999892596155405,0.0008846033597365022,0.0004495485045481473,0.0005001203389838338,0.0005064711440354586,0.011400585062801838,0.011200910434126854,0.011713732965290546,passive,0
0.8206,rehab,large_slow,60.74927100526392,-666.6283131319216,280.57338240858496,-177.3905097089856,0.13385967240153404,-149.9863398964528,-48.9047,-0.0162,43.4848,23.5428,-0.9022,-19.3097,82.71916455561572,28.77179967294825,84.72511442581026,-25.523461235894096,-89.04103597005208,-37.367163764105904,-4.244502605778156,-2.7752511808187657,-3.054409971331606,6.0919952392578125,0.13570149739583334,-4.342592027452257,1.1623,0.2666,3.4136,0.0267,-0.03324,-0.03498,0.0009270289447158575,0.000999892596155405,0.0008846033597365022,0.0004495485045481473,0.0005001203389838338,0.0005064711440354586,0.011400585062801838,0.011200910434126854,0.011713732965290546,passive,0
0.8403,rehab,large_slow,59.93501695928069,-666.633180150139,281.27700881526084,-177.3908636506948,0.13412478990095467,-149.98747369005386,-48.0943,-0.0328,42.7989,6.1539,-0.7509,-2.6652,82.64787579526995,28.725943990273052,84.6759546865331,-25.42595757378472,-89.03895060221355,-37.436209784613716,-4.516590987101639,-2.8296661376953125,-3.1656941328898514,6.010954115125868,0.13570149739583334,-4.342592027452257,1.2815,0.1359,3.0237,0.03374,-0.03574,-0.02813,0.0009270289447158575,0.000999892596155405,0.0008846033597365022,0.0004495485045481473,0.0005001203389838338,0.0005064711440354586,0.011400585062801838,0.011200910434126854,0.011713732965290546,passive,0
0.8603,rehab,large_slow,58.7216083452266,-666.6370410410362,282.3478146769801,-177.3904112011839,0.13372813421734828,-149.9881172980186,-47.4281,-0.0485,42.2698,-8.1658,-0.1592,10.6111,82.541608904848,28.656361645991257,84.6013346757039,-25.27926974826389,-89.03584798177083,-37.54016452365451,-4.190087648901609,-2.938502849918781,-3.0932020432878247,6.253865559895833,0.13570149739583334,-4.342592027452257,1.2289,0.2468,3.4153,0.04207,-0.04514,-0.02428,0.0009270289447158575,0.000999892596155405,0.0008846033597365022,0.0004495485045481473,0.0005001203389838338,0.0005064711440354586,0.011400585062801838,0.011200910434126854,0.011713732965290546,passive,0
0.8807,rehab,large_slow,57.93408763416474,-666.6338746667806,283.0711207505811,-177.38969625226014,0.13321650133296853,-149.98684930187713,-48.5398,-0.0538,43.3428,-20.5139,0.3431,20.1294,82.47255684125541,28.609261843237547,84.55130473221882,-25.180960761176216,-89.03372870551215,-37.60936313205295,-4.244502605778156,-2.7752511808187657,-3.165721326771349,5.982208251953125,0.20355224609375,-4.47829352484809,1.1585,0.2528,3.6147,0.04895,-0.04959,-0.02761,0.0009270289447158575,0.000999892596155405,0.0008846033597365022,0.0004495485045481473,0.0005001203389838338,0.0005064711440354586,0.011400585062801838,0.011200910434126854,0.011713732965290546,passive,0
0.9006,rehab,large_slow,56.75601902536949,-666.6288220628528,284.1523792589354,-177.38885808710515,0.13261327255951913,-149.98455796125404,-49.3607,-0.0604,44.1039,-30.2306,0.6299,26.3556,82.36926088238707,28.539319180025913,84.47569894318534,-25.033348931206596,-89.03055826822917,-37.71326700846354,-4.353339318001624,-2.884087893042234,-3.2809078103244893,6.205639309353298,0.13570149739583334,-4.342592027452257,1.1206,0.02,3.0385,0.03588,-0.03679,-0.02752,0.0009270289447158575,0.000999892596155405,0.0008846033597365022,0.0004495485045481473,0.0005001203389838338,0.0005064711440354586,0.011400585062801838,0.011200910434126854,0.011713732965290546,passive,0
0.9206,rehab,large_slow,55.96086647643072,-666.6290055821167,284.86351916208287,-177.38885597429453,0.1326345944759696,-149.98447889079583,-50.3891,-0.0334,45.0357,-28.3269,0.8729,23.3119,82.29959695646079,28.493939390276918,84.42474440772935,-24.934955173068577,-89.02847290039062,-37.78188917371962,-4.298924361125077,-2.61199951171875,-3.290887964834081,6.221856011284722,0.13570149739583334,-4.071180555555555,1.1601,0.0469,2.685,0.04696,-0.04407,-0.02344,0.0009270289447158575,0.000999892596155405,0.0008846033597365022,0.0004495485045481473,0.0005001203389838338,0.0005064711440354586,0.011400585062801838,0.011200910434126854,0.011713732965290546,passive,0
0.9405,rehab,large_slow,54.75307361611229,-666.6352383951511,285.9140401676153,-177.39007973549087,0.13349570652437448,-149.98482194259986,-51.0087,0.0207,45.4417,-21.0655,0.9743,15.1661,82.19388074213916,28.427960235293547,84.34724864393178,-24.786885579427082,-89.02542114257812,-37.88558112250434,-4.4077542748781715,-2.7208362239422184,-3.1138421993444463,6.1993408203125,0.20355224609375,-4.410442776150173,1.1098,-0.015,3.2117,0.03834,-0.04812,-0.02566,0.0009270289447158575,0.000999892596155405,0.0008846033597365022,0.0004495485045481473,0.0005001203389838338,0.0005064711440354586,0.011400585062801838,0.011200910434126854,0.011713732965290546,passive,0
0.9607,rehab,large_slow,53.956541022245034,-666.6392617231966,286.61635920418524,-177.39041482655352,0.1337733065248887,-149.98471217124543,-50.8683,0.036,45.1099,-6.6933,0.7729,-2.0917,82.1241556299795,28.384205279964032,84.29511117463065,-24.688500298394096,-89.02334425184462,-37.954296535915795,-4.353339318001624,-2.61199951171875,-3.1738115065168624,6.211819118923611,0.13570149739583334,-4.274732801649305,1.1176,0.1194,3.0827,0.05244,-0.03793,-0.02355,0.0009270289447158575,0.000999892596155405,0.0008846033597365022,0.0004495485045481473,0.0005001203389838338,0.0005064711440354586,0.011400585062801838,0.011200910434126854,0.011713732965290546,passive,0
0.9805,rehab,large_slow,52.75495087045454,-666.6379984398534,287.67104923964547,-177.39090917332072,0.13423698865035333,-149.9843348907992,-50.9755,0.0322,44.9675,8.6664,0.2804,-23.2651,82.01888811470258,28.318001775458306,84.21764940318495,-24.541041056315102,-89.02015686035156,-38.05825975206163,-4.244502605778156,-2.7752511808187657,-3.215125810981977,6.228264702690972,0.13570149739583334,-4.206882052951388,1.0572,0.025,3.1164,0.0374,-0.04326,-0.02936,0.0009270289447158575,0.000999892596155405,0.0008846033597365022,0.0004495485045481473,0.0005001203389838338,0.0005064711440354586,0.011400585062801838,0.011200910434126854,0.011713732965290546,passive,0
1.0004,rehab,large_slow,51.967112777119134,-666.6353976320354,288.37850253768437,-177.39065117114393,0.13404656549364186,-149.98410347410368,-49.9813,0.0281,43.9269,16.3207,-0.5456,-40.26,81.94985644652111,28.273791322613707,84.1657022910543,-24.443155924479164,-89.01810540093315,-38.12640719943576,-4.4077542748781715,-2.7752511808187657,-3.1963688312190595,6.171654595269097,0.06785074869791667,-4.410442776150173,1.0489,-0.0018,2.9147,0.03807,-0.05315,-0.02317,0.0009270289447158575,0.000999892596155405,0.0008846033597365022,0.0004495485045481473,0.0005001203389838338,0.0005064711440354586,0.011400585062801838,0.011200910434126854,0.011713732965290546,passive,0
1.0207,rehab,large_slow,50.57702808089291,-666.6259808570422,289.60513878659646,-177.39015904638498,0.13354875754142828,-149.9837633768385,-49.8786,0.0221,43.4041,20.3797,-1.3105,-54.7705,81.82802785741221,28.19688022726833,84.07613244387183,-24.27374945746528,-89.01457892523871,-38.24664645724826,-4.571005943978187,-2.61199951171875,-3.328612676941522,6.133329603407118,0.06785074869791667,-4.342592027452257,1.057,0.1278,3.1109,0.0433,-0.04874,-0.02988,0.0009270289447158575,0.000999892596155405,0.0008846033597365022,0.0004495485045481473,0.0005001203389838338,0.0005064711440354586,0.011400585062801838,0.011200910434126854,0.011713732965290546,passive,0
1.0404,rehab,large_slow,49.777947428400694,-666.6265964597558,290.29489345542,-177.38971456454234,0.13322465312559958,-149.98393053898005,-50.1482,-0.0015,42.7528,17.127,-1.2312,-59.7995,81.75807159725983,28.15454615224706,84.02437568891166,-24.178136189778645,-89.01249355740018,-38.315344916449654,-4.571005943978187,-2.61199951171875,-3.2537751150603342,5.804578993055555,0.13570149739583334,-4.410442776150173,0.9765,-0.0974,2.4999,0.02805,-0.03549,-0.02789,0.0009270289447158575,0.000999892596155405,0.0008846033597365022,0.0004495485045481473,0.0005001203389838338,0.0005064711440354586,0.011400585062801838,0.011200910434126854,0.011713732965290546,passive,0
1.0603,rehab,large_slow,48.977898669784715,-666.6305329599104,290.97394231645546,-177.38900808839773,0.1326788238740938,-149.98366726394286,-49.2871,-0.039,40.7547,4.6688,-0.4926,-57.0687,81.68808134475557,28.11338141413018,83.97273450794786,-24.08413357204861,-89.01039971245659,-38.38452657063802,-4.4077542748781715,-2.557584554842203,-3.143469933235999,5.858552720811632,0.06785074869791667,-4.342592027452257,1.0378,0.0742,2.7196,0.05541,-0.04799,-0.02284,0.0009270289447158575,0.000999892596155405,0.0008846033597365022,0.0004495485045481473,0.0005001203389838338,0.0005064711440354586,0.011400585062801838,0.011200910434126854,0.011713732965290546,passive,0
1.0806,rehab,large_slow,47.77182397255892,-666.6364634776845,291.9562169066836,-177.38880308994598,0.1325100682533653,-149.9839342294854,-49.2342,-0.0722,39.3261,-11.868,0.2772,-53.7783,81.58259627842666,28.053989976939587,83.89742105314048,-23.946558634440105,-89.00727166069878,-38.48817613389757,-4.353339318001624,-2.3943328857421875,-3.162675612043626,5.661451551649305,0.13570149739583334,-4.546152750651042,1.0589,-0.0317,3.3838,0.04911,-0.05015,-0.02762,0.0009270289447158575,0.000999892596155405,0.0008846033597365022,0.0004495485045481473,0.0005001203389838338,0.0005064711440354586,0.011400585062801838,0.011200910434126854,0.011713732965290546,passive,0
1.1005,rehab,large_slow,46.96158697497936,-666.6402840126146,292.5878567258067,-177.38894773122365,0.1326053564438756,-149.98477924522695,-49.4001,-0.0872,38.1246,-16.2918,0.6972,-57.2001,81.51174941865524,28.015823364257812,83.84883238537476,-23.857540554470486,-89.00519476996527,-38.557162814670136,-4.353339318001624,-2.2855029719890934,-2.942663513787902,5.549002753363715,0.13570149739583334,-4.206882052951388,1.0161,-0.0692,2.8705,0.0386,-0.05577,-0.02647,0.0009270289447158575,0.000999892596155405,0.0008846033597365022,0.0004495485045481473,0.0005001203389838338,0.0005064711440354586,0.011400585062801838,0.011200910434126854,0.011713732965290546,passive,0
1.1205,rehab,large_slow,45.746235547910814,-666.6381458777756,293.4992654036008,-177.3904058573419,0.13373524492171798,-149.98603978819412,-49.5487,-0.0271,37.2247,-11.7103,0.7356,-64.6617,81.40539414811842,27.959980728602645,83.7793792120301,-23.72725592719184,-89.00206671820746,-38.66076999240451,-4.516590987101639,-2.2855029719890934,-2.892545190187964,5.1373036702473955,0.20355224609375,-4.410442776150173,0.9785,-0.2192,2.7766,0.04281,-0.05501,-0.02886,0.0009270289447158575,0.000999892596155405,0.0008846033597365022,0.0004495485045481473,0.0005001203389838338,0.0005064711440354586,0.011400585062801838,0.011200910434126854,0.011713732965290546,passive,0
1.1404,rehab,large_slow,44.93398185762051,-666.6350648459993,294.08861343605855,-177.39082711072692,0.13410011615030662,-149.98723297539692,-50.7647,0.0468,36.9366,-14.8809,0.5946,-65.5109,81.33430254341351,27.92362930751083,83.73508717754099,-23.64395989312066,-88.99993896484375,-38.72971428765191,-4.571005943978187,-2.3943328857421875,-2.708116285871751,5.225711398654513,0.13570149739583334,-4.342592027452257,0.9054,-0.1291,3.1459,0.03546,-0.05696,-0.02497,0.0009270289447158575,0.000999892596155405,0.0008846033597365022,0.0004495485045481473,0.0005001203389838338,0.0005064711440354586,0.011400585062801838,0.011200910434126854,0.011713732965290546,passive,0
1.1605,rehab,large_slow,43.71889802631622,-666.6331794994762,294.96148445148094,-177.38884654450376,0.13246047134316774,-149.9883399740842,-51.6717,0.0679,35.6123,-12.2304,0.3967,-70.0716,81.22802205605082,27.87005056249033,83.67030455334351,-23.525009155273438,-88.99679395887587,-38.83352491590712,-4.462176030225093,-2.2855029719890934,-2.735772463354734,4.7143809000651045,0.13570149739583334,-4.47829352484809,0.8976,-0.0819,3.3793,0.03721,-0.04477,-0.02489,0.0009270289447158575,0.000999892596155405,0.0008846033597365022,0.0004495485045481473,0.0005001203389838338,0.0005064711440354586,0.011400585062801838,0.011200910434126854,0.011713732965290546,passive,0
1.1803,rehab,large_slow,42.91981611677343,-666.6343040910226,295.521584997077,-177.3870162350577,0.13097643699262512,-149.9885263116149,-51.1415,0.0402,33.6037,-3.5144,0.1731,-76.425,81.15816777295406,27.83599022591468,83.62847356512995,-23.449376424153645,-88.99468315972221,-38.90232510036892,-4.135672692025062,-2.067836346012531,-2.5157195742767637,4.630991617838542,0.13570149739583334,-4.47829352484809,0.7352,-0.012,3.2814,0.03301,-0.03731,-0.02411,0.0009270289447158575,0.000999892596155405,0.0008846033597365022,0.0004495485045481473,0.0005001203389838338,0.0005064711440354586,0.011400585062801838,0.011200910434126854,0.011713732965290546,passive,0
1.2005,rehab,large_slow,41.744503100542246,-666.6323603477998,296.296534296166,-177.38669770554986,0.13076847834157815,-149.98631666387365,-49.9347,-0.0172,31.1871,2.9974,-0.12,-75.5651,81.05536810242303,27.788557298112625,83.56998632449915,-23.340666029188366,-88.99142795138889,-39.00608486599392,-4.353339318001624,-1.9589996337890625,-2.283748966632503,4.372609456380208,0.13570149739583334,-4.410442776150173,0.8569,0.0058,3.4311,0.03566,-0.03882,-0.02664,0.0009270289447158575,0.000999892596155405,0.0008846033597365022,0.0004495485045481473,0.0005001203389838338,0.0005064711440354586,0.011400585062801838,0.011200910434126854,0.011713732965290546,passive,0
1.221,rehab,large_slow,40.95404433246701,-666.6312330158794,296.76901453722934,-177.38819987021284,0.13203471828191454,-149.98561774522864,-50.3889,-0.0345,29.9026,22.4763,-0.1157,-76.8397,80.9862480541267,27.75954822502514,83.53363490340733,-23.271230061848957,-88.98924085828993,-39.07510545518663,-4.244502605778156,-1.795747964689047,-2.257697228157874,4.18929206000434,0.20355224609375,-4.47829352484809,0.8759,-0.0359,3.4226,0.03892,-0.04356,-0.02451,0.0009270289447158575,0.000999892596155405,0.0008846033597365022,0.0004495485045481473,0.0005001203389838338,0.0005064711440354586,0.011400585062801838,0.011200910434126854,0.011713732965290546,passive,0
1.2406,rehab,large_slow,39.54082898120993,-666.6362167099193,297.5597101377813,-177.39050069021752,0.13387281812264748,-149.98616661473886,-50.622,-0.0087,28.8848,34.1022,0.3814,-67.7082,80.86282862295019,27.71158501653388,83.47195238170058,-23.154915703667534,-88.98547702365451,-39.19664171006944,-4.571005943978187,-1.6325030940594059,-2.139213486473159,4.073876274956597,0.06785074869791667,-4.206882052951388,0.7863,-0.0746,3.6261,0.04292,-0.04495,-0.02135,0.0009270289447158575,0.000999892596155405,0.0008846033597365022,0.0004495485045481473,0.0005001203389838338,0.0005064711440354586,0.011400585062801838,0.011200910434126854,0.011713732965290546,passive,0
1.2606,rehab,large_slow,38.725717034594936,-666.6360614607249,298.0007701170173,-177.39134871870885,0.13454161957414534,-149.98810375641793,-49.6158,0.0333,27.5569,17.9029,0.8796,-42.2968,80.79162824271928,27.6844319258586,83.43838833346226,-23.091015285915798,-88.98335774739583,-39.265170627170136,-4.516590987101639,-1.6325030940594059,-2.108858316251547,4.023335774739583,0.13570149739583334,-4.274732801649305,0.6553,-0.1258,3.3355,0.02608,-0.0405,-0.02149,0.0009270289447158575,0.000999892596155405,0.0008846033597365022,0.0004495485045481473,0.0005001203389838338,0.0005064711440354586,0.011400585062801838,0.011200910434126854,0.011713732965290546,passive,0
1.2807,rehab,large_slow,37.91344831143385,-666.6377298306323,298.4374515729845,-177.39173550629567,0.13480769196642528,-149.98936329784712,-49.7391,0.0635,27.2607,2.4873,0.9182,-22.896,80.72071339824411,27.657856705165145,83.40487867298692,-23.028344048394096,-88.98124694824219,-39.3341064453125,-4.462176030225093,-1.6325030940594059,-2.0249244010094367,3.904435899522569,0.06785074869791667,-4.274732801649305,0.6491,-0.2665,2.9194,0.03113,-0.04128,-0.01703,0.0009270289447158575,0.000999892596155405,0.0008846033597365022,0.0004495485045481473,0.0005001203389838338,0.0005064711440354586,0.011400585062801838,0.011200910434126854,0.011713732965290546,passive,0
1.3003,rehab,large_slow,36.72094395644465,-666.6323821823569,299.10333185401726,-177.39061616576558,0.13394955660215463,-149.9888907617344,-48.646,0.0745,26.5127,-1.4365,0.2958,-14.3463,80.61647925046411,27.61672595940014,83.35554217348005,-22.93609619140625,-88.97796630859375,-39.43774753146701,-4.4077542748781715,-1.7413330078125,-2.0274534319887065,3.8350677490234375,0.06785074869791667,-4.274732801649305,0.8301,-0.1842,3.6591,0.05787,-0.04731,-0.02234,0.0009270289447158575,0.000999892596155405,0.0008846033597365022,0.0004495485045481473,0.0005001203389838338,0.0005064711440354586,0.011400585062801838,0.011200910434126854,0.011713732965290546,passive,0
1.3205,rehab,large_slow,35.93897847123029,-666.6283822425779,299.5421390192306,-177.38947581072057,0.13302824504920596,-149.9869844182459,-47.4532,0.0801,25.7582,-9.1185,-0.7294,-7.4876,80.54812742932008,27.58974283048422,83.32302508967938,-22.875917222764755,-88.9757792154948,-39.50731065538194,-4.298924361125077,-1.795747964689047,-2.052036700862469,3.748931884765625,0.13570149739583334,-4.274732801649305,0.5004,-0.3258,3.1472,0.02724,-0.03754,-0.01726,0.0009270289447158575,0.000999892596155405,0.0008846033597365022,0.0004495485045481473,0.0005001203389838338,0.0005064711440354586,0.011400585062801838,0.011200910434126854,0.011713732965290546,passive,0
1.3406,rehab,large_slow,34.75660053561123,-666.6269299660169,300.20294458225374,-177.38697491928684,0.130967813889684,-149.98557331413647,-50.0539,0.05,26.8436,-18.2521,-1.5267,-0.754,80.44487226127397,27.5498630032681,83.27325348806853,-22.786305745442707,-88.97254096137152,-39.61094326443142,-4.244502605778156,-1.5780813387124846,-2.0618536920830755,3.7416839599609375,0.06785074869791667,-4.274732801649305,0.5146,-0.1843,3.4149,0.03013,-0.04158,-0.01755,0.0009270289447158575,0.000999892596155405,0.0008846033597365022,0.0004495485045481473,0.0005001203389838338,0.0005064711440354586,0.011400585062801838,0.011200910434126854,0.011713732965290546,passive,0
1.3606,rehab,large_slow,33.96874747709043,-666.6270058929613,300.6188747047692,-177.38709229157513,0.1310872975122976,-149.98449210976514,-51.2549,0.0021,27.1601,-18.2305,-1.7652,2.7176,80.37609213649637,27.52508257875348,83.24059363639,-22.726559109157986,-88.97036234537761,-39.680116441514755,-4.298924361125077,-1.4692514249593904,-2.080325136090269,3.7382337782118054,0.06785074869791667,-4.274732801649305,0.426,-0.1668,2.9747,0.0262,-0.04011,-0.01531,0.0009270289447158575,0.000999892596155405,0.0008846033597365022,0.0004495485045481473,0.0005001203389838338,0.0005064711440354586,0.011400585062801838,0.011200910434126854,0.011713732965290546,passive,0
1.3807,rehab,large_slow,32.78116742502041,-666.6285923918418,301.2290478646942,-177.3884939797332,0.13224410065616746,-149.9833342538999,-50.2044,-0.0452,26.2631,-13.4825,-1.3814,5.7082,80.27246305257967,27.489227445998996,83.19131832311649,-22.63639662000868,-88.96713256835938,-39.78386773003472,-4.4077542748781715,-1.4148296696124691,-2.1049967850788986,3.8135189480251737,0.13570149739583334,-4.342592027452257,0.5091,-0.2533,2.9419,0.03837,-0.0491,-0.01432,0.0009270289447158575,0.000999892596155405,0.0008846033597365022,0.0004495485045481473,0.0005001203389838338,0.0005064711440354586,0.011400585062801838,0.011200910434126854,0.011713732965290546,passive,0
1.4008,rehab,large_slow,31.986224891836752,-666.6318797141574,301.6350737235154,-177.3897504036397,0.13330114273929822,-149.98239637219493,-50.9557,-0.0839,26.574,-3.1538,-0.6409,7.108,80.20313905017211,27.465895095674117,83.15754352229656,-22.575488620334202,-88.96496242947049,-39.853430853949654,-4.4077542748781715,-1.5236663818359375,-2.068658960927831,3.805202907986111,0.20355224609375,-4.410442776150173,0.3345,-0.3149,3.4254,0.0267,-0.0423,-0.01653,0.0009270289447158575,0.000999892596155405,0.0008846033597365022,0.0004495485045481473,0.0005001203389838338,0.0005064711440354586,0.011400585062801838,0.011200910434126854,0.011713732965290546,passive,0
1.4203,rehab,large_slow,30.574755526195954,-666.6330038845242,302.3627815577842,-177.3916792521338,0.13489126989066383,-149.983215357579,-50.5511,-0.0874,26.621,17.3967,0.2531,1.9619,80.08002555016243,27.42390774264194,83.09749943195003,-22.467193603515625,-88.9612325032552,-39.97448391384548,-4.516590987101639,-1.5236663818359375,-2.0937657120204207,3.9503224690755205,0.20355224609375,-4.342592027452257,0.3232,-0.2956,2.8626,0.03637,-0.04434,-0.01303,0.0009270289447158575,0.000999892596155405,0.0008846033597365022,0.0004495485045481473,0.0005001203389838338,0.0005064711440354586,0.011400585062801838,0.011200910434126854,0.011713732965290546,passive,0
1.4406,rehab,large_slow,29.767979504742105,-666.6342194167061,302.7963785395321,-177.39178523829642,0.13501958037561315,-149.98391756756948,-49.7989,-0.0613,26.7522,24.0911,1.2054,1.2553,80.00967497872834,27.399242892123684,83.06168509001779,-22.404403686523438,-88.95907931857639,-40.04341125488281,-4.462176030225093,-1.6325030940594059,-2.3411892428256498,3.971735636393229,0.13570149739583334,-4.274732801649305,0.3387,-0.3865,1.9512,0.05283,-0.0458,-0.00849,0.0009270289447158575,0.000999892596155405,0.0008846033597365022,0.0004495485045481473,0.0005001203389838338,0.0005064711440354586,0.011400585062801838,0.011200910434126854,0.011713732965290546,passive,0
1.4604,rehab,large_slow,28.960063436582125,-666.6331950306828,303.23613316785423,-177.39169970716588,0.13492965429814557,-149.98458777936543,-49.4187,-0.0092,27.0142,11.7828,1.8529,6.1736,79.93920883329788,27.374142939501468,83.0256192046817,-22.341206868489582,-88.95696851942274,-40.11248270670573,-4.4077542748781715,-1.5236663818359375,-2.2977198232518563,3.770718044704861,0.13570149739583334,-4.342592027452257,0.2222,-0.2923,2.686,0.04004,-0.03461,-0.01029,0.0009270289447158575,0.000999892596155405,0.0008846033597365022,0.0004495485045481473,0.0005001203389838338,0.0005064711440354586,0.011400585062801838,0.011200910434126854,0.011713732965290546,passive,0
1.4807,rehab,large_slow,27.755400544473773,-666.6345231596573,303.90615155937087,-177.39074644508443,0.13421401457957896,-149.9849088381753,-49.1522,0.0417,27.0837,1.4271,2.0968,5.2625,79.83418606295444,27.33663577844601,82.96989894149327,-22.24593268500434,-88.95372178819444,-40.2160898844401,-4.353339318001624,-1.6325030940594059,-2.3036276940071936,3.902469211154514,0.13570149739583334,-4.342592027452257,0.1352,-0.3316,2.9851,0.01809,-0.03162,-0.01327,0.0009270289447158575,0.000999892596155405,0.0008846033597365022,0.0004495485045481473,0.0005001203389838338,0.0005064711440354586,0.011400585062801838,0.011200910434126854,0.011713732965290546,passive,0
1.5004,rehab,large_slow,26.957310536942682,-666.6346013182823,304.358693212293,-177.389453957894,0.1330824121705747,-149.98403006488874,-49.023,0.0674,26.9762,-8.9464,1.6681,1.8072,79.76461731561339,27.311399856416305,82.93245296667118,-22.182786729600693,-88.9516109890408,-40.28581407335069,-4.353339318001624,-1.5780813387124846,-2.331508221012531,3.7849256727430554,0.13570149739583334,-4.206882052951388,0.1521,-0.3062,2.806,0.01627,-0.05169,-0.01682,0.0009270289447158575,0.000999892596155405,0.0008846033597365022,0.0004495485045481473,0.0005001203389838338,0.0005064711440354586,0.011400585062801838,0.011200910434126854,0.011713732965290546,passive,0
1.5205,rehab,large_slow,25.767981837388646,-666.6333193495535,305.01975453472846,-177.38822613883698,0.13207614822107114,-149.98416147600457,-49.5111,0.0921,26.9819,-16.1372,0.5179,-2.6847,79.66094064240409,27.274681317924273,82.87720859640896,-22.08919949001736,-88.94844055175781,-40.388285319010414,-4.244502605778156,-1.5780813387124846,-2.2403747256439512,3.907589382595486,0.13570149739583334,-4.342592027452257,0.162,-0.5167,1.9515,0.01481,-0.03959,-0.01082,0.0009270289447158575,0.000999892596155405,0.0008846033597365022,0.0004495485045481473,0.0005001203389838338,0.0005064711440354586,0.011400585062801838,0.011200910434126854,0.011713732965290546,passive,0
1.5404,rehab,large_slow,24.96628399802522,-666.6282056374805,305.4434495280004,-177.3885684688961,0.13240284286290646,-149.98500993819508,-50.3318,0.1051,27.0678,-15.3021,-0.8518,-7.012,79.59100477766282,27.250805089969447,82.8417953642288,-22.027291191948784,-88.94631279839409,-40.45666164822048,-4.4077542748781715,-1.4148296696124691,-2.223514519115486,3.736173841688368,0.20355224609375,-4.274732801649305,0.2177,-0.4634,2.2123,0.03172,-0.04737,-0.00379,0.0009270289447158575,0.000999892596155405,0.0008846033597365022,0.0004495485045481473,0.0005001203389838338,0.0005064711440354586,0.011400585062801838,0.011200910434126854,0.011713732965290546,passive,0
1.5607,rehab,large_slow,23.75484886625671,-666.6262268681635,306.0792382407487,-177.38850435477846,0.1323297672355388,-149.98624553524095,-50.6247,0.0938,26.8328,-13.9785,-1.9343,-7.2309,79.48545172663019,27.21591534000812,82.78746878746712,-21.934924655490452,-88.94315931532118,-40.55992126464844,-4.298924361125077,-1.4692514249593904,-2.272919003326114,3.89418707953559,0.06785074869791667,-4.206882052951388,0.1166,-0.4946,2.2742,0.02157,-0.04788,-0.00817,0.0009270289447158575,0.000999892596155405,0.0008846033597365022,0.0004495485045481473,0.0005001203389838338,0.0005064711440354586,0.011400585062801838,0.011200910434126854,0.011713732965290546,passive,0
1.5805,rehab,large_slow,22.940983921268778,-666.6261807444066,306.5029059992821,-177.38839692810615,0.13222820018407225,-149.98726626147996,-51.2637,0.0416,26.8403,-8.5201,-2.3916,-7.1767,79.41457767297726,27.193018091787206,82.7507502489751,-21.873279147677952,-88.94104851616753,-40.629069010416664,-4.4077542748781715,-1.4148296696124691,-2.2901463272547957,3.8460540771484375,0.13570149739583334,-4.410442776150173,0.0765,-0.3499,2.563,0.01758,-0.04467,-0.01135,0.0009270289447158575,0.000999892596155405,0.0008846033597365022,0.0004495485045481473,0.0005001203389838338,0.0005064711440354586,0.011400585062801838,0.011200910434126854,0.011713732965290546,passive,0
1.6003,rehab,large_slow,21.733645629386842,-666.6252259748155,307.13661757879964,-177.38843606116643,0.1322660048570364,-149.98776981680592,-50.6076,-0.0465,26.3153,4.801,-2.3406,-10.5702,79.30943932863745,27.15907332920792,82.69526793224976,-21.780531141493054,-88.93787807888455,-40.732642279730904,-4.516590987101639,-1.4148296696124691,-2.3819052818978186,3.95538330078125,0.13570149739583334,-4.206882052951388,0.1515,-0.498,2.4277,0.0263,-0.05244,-0.00879,0.0009270289447158575,0.000999892596155405,0.0008846033597365022,0.0004495485045481473,0.0005001203389838338,0.0005064711440354586,0.011400585062801838,0.011200910434126854,0.011713732965290546,passive,0
1.6206,rehab,large_slow,20.934908322298018,-666.6242736265176,307.55719281007606,-177.38879118475853,0.1325732694253242,-149.98773797367457,-49.9801,-0.1224,25.9765,15.8297,-1.8325,-13.8336,79.23989097670753,27.136794741791075,82.65791033754255,-21.718249850802952,-88.93577575683594,-40.80151028103298,-4.353339318001624,-1.305999755859375,-2.385229733910891,3.858328925238715,0.13570149739583334,-4.274732801649305,-0.0003,-0.513,2.6476,0.01623,-0.05,-0.0067,0.0009270289447158575,0.000999892596155405,0.0008846033597365022,0.0004495485045481473,0.0005001203389838338,0.0005064711440354586,0.011400585062801838,0.011200910434126854,0.011713732965290546,passive,0
1.6407,rehab,large_slow,19.73396839348747,-666.6290774364867,308.18121616402766,-177.38941408367972,0.13305395805670436,-149.98774570389259,-50.3562,-0.1465,26.1881,14.965,-0.8975,-12.3231,79.13545967328666,27.104835132561107,82.60072840322363,-21.625052558051216,-88.93267313639323,-40.90487162272135,-4.298924361125077,-1.360414712735922,-2.401790807742884,3.8849978976779513,0.13570149739583334,-4.342592027452257,-0.0095,-0.5498,2.0307,0.01519,-0.04294,-0.00099,0.0009270289447158575,0.000999892596155405,0.0008846033597365022,0.0004495485045481473,0.0005001203389838338,0.0005064711440354586,0.011400585062801838,0.011200910434126854,0.011713732965290546,passive,0
1.6604,rehab,large_slow,18.72356265120335,-666.6334102803352,308.703130288877,-177.38953059561877,0.13306283845083758,-149.98817100290117,-50.1495,-0.1204,26.028,11.4135,0.2705,-9.9799,79.04763703299041,27.07836188892327,82.55271760543974,-21.547732883029514,-88.93011305067274,-40.99138895670573,-4.298924361125077,-1.251584798982828,-2.336144777807859,3.829498291015625,0.13570149739583334,-4.410442776150173,-0.0079,-0.309,2.4242,0.03582,-0.04088,0.00065,0.0009270289447158575,0.000999892596155405,0.0008846033597365022,0.0004495485045481473,0.0005001203389838338,0.0005064711440354586,0.011400585062801838,0.011200910434126854,0.011713732965290546,passive,0
1.6804,rehab,large_slow,17.922318883066794,-666.6397211190142,309.1140050665656,-177.38952461641898,0.13305841009756206,-149.98784790745003,-49.3029,-0.0933,25.4466,6.6102,1.2627,-7.2836,78.97804789023824,27.05806845485574,82.5140886967725,-21.486621432834202,-88.92801072862413,-41.06060451931423,-4.244502605778156,-1.305999755859375,-2.4150614219136757,3.8050672743055554,0.13570149739583334,-4.47829352484809,-0.0703,-0.4412,2.1455,0.01062,-0.03792,-0.00511,0.0009270289447158575,0.000999892596155405,0.0008846033597365022,0.0004495485045481473,0.0005001203389838338,0.0005064711440354586,0.011400585062801838,0.011200910434126854,0.011713732965290546,passive,0
1.7006,rehab,large_slow,16.73700671376896,-666.6395062501415,309.73159316510174,-177.38936025386369,0.13291495950554413,-149.9865917248581,-48.9471,-0.0603,25.0615,2.3337,1.6622,-4.9163,78.8749626839515,27.026666320196473,82.45754581866878,-21.395611233181423,-88.92487419976128,-41.16390652126736,-4.4077542748781715,-1.305999755859375,-2.3432899701713334,3.852572970920139,0.13570149739583334,-4.206882052951388,0.0095,-0.411,2.2073,0.0283,-0.03875,-0.00481,0.0009270289447158575,0.000999892596155405,0.0008846033597365022,0.0004495485045481473,0.0005001203389838338,0.0005064711440354586,0.011400585062801838,0.011200910434126854,0.011713732965290546,passive,0
1.7208,rehab,large_slow,15.953976570491683,-666.6380266555782,310.13166094075996,-177.3899949279026,0.13351314339681108,-149.98523957516466,-49.7498,-0.0194,25.3476,4.2911,1.5558,-5.0055,78.80684880927058,27.006447669303064,82.42035818572091,-21.33514404296875,-88.92275492350261,-41.23268127441406,-4.298924361125077,-1.305999755859375,-2.4359395244334006,3.75595940483941,0.13570149739583334,-4.410442776150173,-0.3028,-0.5345,2.39,0.00398,-0.02344,-9e-05,0.0009270289447158575,0.000999892596155405,0.0008846033597365022,0.0004495485045481473,0.0005001203389838338,0.0005064711440354586,0.011400585062801838,0.011200910434126854,0.011713732965290546,passive,0
1.7403,rehab,large_slow,14.760448755347849,-666.6347916933576,310.7432493027138,-177.39028704464263,0.1337636433815029,-149.98479170630984,-50.034,0.0086,25.4831,0.8805,1.2821,-1.7575,78.7030565620649,26.97562340462562,82.36375412138382,-21.24404059516059,-88.91963534884982,-41.33588155110677,-4.353339318001624,-1.305999755859375,-2.3735499618077043,3.859269883897569,0.13570149739583334,-4.47829352484809,-0.2115,-0.7046,2.1429,0.00078,-0.04634,-0.00546,0.0009270289447158575,0.000999892596155405,0.0008846033597365022,0.0004495485045481473,0.0005001203389838338,0.0005064711440354586,0.011400585062801838,0.011200910434126854,0.011713732965290546,passive,0
1.7605,rehab,large_slow,13.958113361548776,-666.6350239813096,311.14567810782216,-177.3909013699336,0.13423499317015808,-149.98446851157183,-49.4051,0.0268,25.2475,-4.5936,1.1825,2.3079,78.63335184531637,26.955894243599165,82.32545153929455,-21.18302239312066,-88.91759236653645,-41.40521579318576,-4.4077542748781715,-1.1971630436359066,-2.41952121847927,3.8300238715277777,0.06785074869791667,-4.681854248046875,-0.148,-0.6328,2.1406,0.01897,-0.04006,-0.00215,0.0009270289447158575,0.000999892596155405,0.0008846033597365022,0.0004495485045481473,0.0005001203389838338,0.0005064711440354586,0.011400585062801838,0.011200910434126854,0.011713732965290546,passive,0
1.7805,rehab,large_slow,12.756144812535055,-666.63686253352,311.7474613978898,-177.39160457003214,0.13490533751979528,-149.98571589129233,-49.5294,0.0264,25.3327,-4.748,1.1107,1.9924,78.52897492965849,26.926878372041305,82.26751497476408,-21.091834174262154,-88.91448126898871,-41.50730556911892,-4.298924361125077,-1.251584798982828,-2.353875188544245,3.706978691948785,0.06785074869791667,-4.342592027452257,-0.1105,-0.6293,1.83,0.03233,-0.05093,-0.00042,0.0009270289447158575,0.000999892596155405,0.0008846033597365022,0.0004495485045481473,0.0005001203389838338,0.0005064711440354586,0.011400585062801838,0.011200910434126854,0.011713732965290546,passive,0
1.8004,rehab,large_slow,11.95227111599736,-666.6368827135614,312.1591940853111,-177.39082507506834,0.13428982558822214,-149.98601736206177,-49.412,0.0393,25.2678,-2.0113,0.7704,-2.4358,78.45916143738397,26.90691126455175,82.22866851504486,-21.031807793511284,-88.912353515625,-41.576131184895836,-4.353339318001624,-1.1971630436359066,-2.49785319413289,3.792165120442708,0.13570149739583334,-4.410442776150173,-0.26,-0.6509,2.2229,0.01424,-0.04154,-0.00198,0.0009270289447158575,0.000999892596155405,0.0008846033597365022,0.0004495485045481473,0.0005001203389838338,0.0005064711440354586,0.011400585062801838,0.011200910434126854,0.011713732965290546,passive,0
1.8206,rehab,large_slow,10.761985000885447,-666.6385619265526,312.7777607773853,-177.38944465764445,0.13309262099787578,-149.98551584495448,-49.6216,0.0667,25.2864,1.826,0.2256,-9.4229,78.35585188157488,26.87746029088993,82.16959660596187,-20.941814846462673,-88.90924241807726,-41.67891608344184,-4.353339318001624,-1.251584798982828,-2.512966193775139,3.75716315375434,0.13570149739583334,-4.206882052951388,-0.4412,-0.6627,1.5206,0.00073,-0.02991,0.00217,0.0009270289447158575,0.000999892596155405,0.0008846033597365022,0.0004495485045481473,0.0005001203389838338,0.0005064711440354586,0.011400585062801838,0.011200910434126854,0.011713732965290546,passive,0
1.8404,rehab,large_slow,9.971950831156695,-666.634615480334,313.1895882399949,-177.38856654036528,0.13225187354915133,-149.98417315910075,-50.1064,0.0917,25.3179,-6.9727,-0.536,-9.8163,78.28721452467512,26.85741840022625,82.13095410035388,-20.88211907280816,-88.90719943576389,-41.74821641710069,-4.190087648901609,-1.1427480867593596,-2.3815993507309714,3.653072781032986,0.13570149739583334,-4.47829352484809,-0.2156,-0.7133,1.9641,0.01082,-0.033,-0.00204,0.0009270289447158575,0.000999892596155405,0.0008846033597365022,0.0004495485045481473,0.0005001203389838338,0.0005064711440354586,0.011400585062801838,0.011200910434126854,0.011713732965290546,passive,0
1.8603,rehab,large_slow,8.98183666135759,-666.6320281316152,313.69067934036383,-177.38837483195115,0.13201811233430993,-149.98342123619864,-49.713,0.0918,24.833,-12.4032,-1.3451,-9.3428,78.20126146373183,26.83367134320854,82.08251499893642,-20.807469685872395,-88.9046647813585,-41.83407253689236,-4.298924361125077,-1.1427480867593596,-2.41578205977336,3.700307210286458,0.13570149739583334,-4.206882052951388,-0.3805,-0.7814,1.3224,0.00704,-0.03293,-0.00045,0.0009270289447158575,0.000999892596155405,0.0008846033597365022,0.0004495485045481473,0.0005001203389838338,0.0005064711440354586,0.011400585062801838,0.011200910434126854,0.011713732965290546,passive,0
1.8806,rehab,large_slow,7.78080171703948,-666.6285060103536,314.2778514203763,-177.38899881996255,0.13263470340109654,-149.98336416561423,-50.3017,0.0381,24.7031,-5.0986,-1.9847,-12.6192,78.09701371901106,26.806232716777536,82.02470760534305,-20.718019273546005,-88.90151977539062,-41.937357584635414,-4.298924361125077,-1.1427480867593596,-2.4228524689627164,3.685311211480035,0.13570149739583334,-4.206882052951388,-0.2358,-0.7195,1.8979,0.02076,-0.03967,-0.0023,0.0009270289447158575,0.000999892596155405,0.0008846033597365022,0.0004495485045481473,0.0005001203389838338,0.0005064711440354586,0.011400585062801838,0.011200910434126854,0.011713732965290546,passive,0
1.9003,rehab,large_slow,6.976795850670778,-666.6260841760691,314.66737996675806,-177.38931668513342,0.13308875762084213,-149.9836972461175,-49.9832,-0.0214,24.1282,-10.6607,-2.1021,-7.6884,78.02723421908841,26.788216770285427,81.98609229361657,-20.65862867567274,-88.89933268229167,-42.006123860677086,-4.462176030225093,-1.0883331298828125,-2.4984378625850865,3.685421413845486,0.20355224609375,-4.342592027452257,-0.4448,-0.6892,1.2728,0.01869,-0.02789,0.00432,0.0009270289447158575,0.000999892596155405,0.0008846033597365022,0.0004495485045481473,0.0005001203389838338,0.0005064711440354586,0.011400585062801838,0.011200910434126854,0.011713732965290546,passive,0
1.9212,rehab,large_slow,5.761250887175327,-666.6300066847809,315.24406001898063,-177.3898934962417,0.13347158981058882,-149.9842604322123,-50.1416,-0.0893,23.9397,-20.1658,-1.6524,0.1278,77.92195990534113,26.762831281907488,81.92694560135945,-20.570059882269966,-88.89633178710938,-42.109832763671875,-4.353339318001624,-1.0339181730062654,-2.451181695012763,3.6921013726128473,0.13570149739583334,-4.274732801649305,-0.3829,-0.7085,2.1704,0.009,-0.04172,-0.00405,0.0009270289447158575,0.000999892596155405,0.0008846033597365022,0.0004495485045481473,0.0005001203389838338,0.0005064711440354586,0.011400585062801838,0.011200910434126854,0.011713732965290546,passive,0
1.9407,rehab,large_slow,4.95022511858629,-666.6323890262096,315.6301963287522,-177.39010409189237,0.13354254759802997,-149.98522005671302,-51.8757,-0.1344,24.7236,-21.1423,-0.8152,3.3401,77.85174530331452,26.745991470790145,81.8872085420212,-20.511059231228298,-88.89437357584636,-42.17842102050781,-4.462176030225093,-1.0339181730062654,-2.588939100208849,3.7882317437065973,0.13570149739583334,-4.071180555555555,-0.4247,-0.6072,2.2067,0.01941,-0.03019,-0.0036,0.0009270289447158575,0.000999892596155405,0.0008846033597365022,0.0004495485045481473,0.0005001203389838338,0.0005064711440354586,0.011400585062801838,0.011200910434126854,0.011713732965290546,passive,0
1.9603,rehab,large_slow,3.7347728851554867,-666.6388025074873,316.21128852656614,-177.3898410949098,0.13333778752981248,-149.98635307853576,-50.3202,-0.1255,24.0018,-18.294,0.3672,4.8344,77.7465797650932,26.72126543403852,81.82669535721882,-20.42281256781684,-88.89127943250868,-42.28145175509982,-4.516590987101639,-1.0339181730062654,-2.580325438244508,3.669603135850694,0.13570149739583334,-4.139031304253472,-0.5372,-0.7467,2.2909,-0.00177,-0.04976,-0.00103,0.0009270289447158575,0.000999892596155405,0.0008846033597365022,0.0004495485045481473,0.0005001203389838338,0.0005064711440354586,0.011400585062801838,0.011200910434126854,0.011713732965290546,passive,0
1.9809,rehab,large_slow,2.9284293601716334,-666.6408810047163,316.5907590137795,-177.39031355203147,0.13378400063886212,-149.98694244545433,-51.3052,-0.0808,24.4758,-11.2241,1.3803,3.6517,77.67679346670019,26.70517345466236,81.7867883361212,-20.363939073350693,-88.88922797309027,-42.34998067220052,-4.4077542748781715,-1.0339181730062654,-2.4376527389677443,3.5851626925998263,0.20355224609375,-4.47829352484809,-0.2983,-0.7093,1.6657,0.01193,-0.03877,-0.00355,0.0009270289447158575,0.000999892596155405,0.0008846033597365022,0.0004495485045481473,0.0005001203389838338,0.0005064711440354586,0.011400585062801838,0.011200910434126854,0.011713732965290546,passive,0
2.0005,rehab,large_slow,1.7253162105682618,-666.6402499493743,317.16870332066605,-177.39018129751366,0.13365656553063365,-149.98726958080468,-53.3455,-0.023,25.3636,-0.7472,1.8701,-0.9067,77.57263410209428,26.68034544085512,81.72696179682666,-20.276124742296005,-88.88617621527777,-42.45281643337673,-4.135672692025062,-1.0339181730062654,-2.4506038250309405,3.603507147894965,0.13570149739583334,-4.274732801649305,-0.4175,-0.755,1.2963,0.01726,-0.03599,0.00593,0.0009270289447158575,0.000999892596155405,0.0008846033597365022,0.0004495485045481473,0.0005001203389838338,0.0005064711440354586,0.011400585062801838,0.011200910434126854,0.011713732965290546,passive,0
2.0204,rehab,large_slow,0.9412106976826656,-666.6399572460632,317.5511413781921,-177.39006387839706,0.1335780681302402,-149.9853022530343,-51.5269,0.0116,24.3689,17.7386,1.9626,-10.4301,77.50475817387647,26.664151484423343,81.68701398490678,-20.217870076497395,-88.88409932454427,-42.5219980875651,-4.190087648901609,-0.979496417659344,-2.512034803333849,3.6146969265407987,0.13570149739583334,-4.274732801649305,-0.4816,-0.8431,1.5161,0.01094,-0.02641,-0.00043,0.0009270289447158575,0.000999892596155405,0.0008846033597365022,0.0004495485045481473,0.0005001203389838338,0.0005064711440354586,0.011400585062801838,0.011200910434126854,0.011713732965290546,passive,0
2.0408,rehab,large_slow,-0.44646532591328253,-666.6378021905508,318.20764635933057,-177.3904606545007,0.13408894260721854,-149.9854786524129,-51.1318,0.0433,24.0928,36.2592,1.6697,-19.624,77.38465639624265,26.636651671758973,81.61768998249923,-20.116534762912327,-88.8804711235894,-42.640770806206596,-4.4077542748781715,-0.979496417659344,-2.410254903358988,3.6272091335720487,0.06785074869791667,-4.342592027452257,-0.4905,-0.7987,1.4649,0.00895,-0.04377,0.00815,0.0009270289447158575,0.000999892596155405,0.0008846033597365022,0.0004495485045481473,0.0005001203389838338,0.0005064711440354586,0.011400585062801838,0.011200910434126854,0.011713732965290546,passive,0
2.0604,rehab,large_slow,-1.2552155493268884,-666.635250562679,318.58343062937564,-177.3906172751239,0.13428279438272564,-149.9867166693043,-50.6987,0.0668,23.9103,53.6255,1.0971,-27.2499,77.31467294220877,26.6209608021349,81.57798691551284,-20.058670043945312,-88.878419664171,-42.70885891384548,-4.353339318001624,-0.979496417659344,-2.5257541165493502,3.699188232421875,0.13570149739583334,-4.206882052951388,-0.5199,-0.7604,1.5883,0.01056,-0.03541,0.00034,0.0009270289447158575,0.000999892596155405,0.0008846033597365022,0.0004495485045481473,0.0005001203389838338,0.0005064711440354586,0.011400585062801838,0.011200910434126854,0.011713732965290546,passive,0
2.0805,rehab,large_slow,-2.4783099287039225,-666.635579479841,319.14770272526886,-177.3906323777828,0.1341855198990474,-149.98851187765914,-49.3233,0.0643,23.2616,53.6344,0.5433,-26.6588,77.20897712329827,26.598233515673343,81.517228985777,-19.971872965494793,-88.87546115451389,-42.811779446072045,-4.4077542748781715,-0.87066650390625,-2.6231761970142324,3.67539299858941,0.20355224609375,-4.139031304253472,-0.5951,-0.8725,1.637,-0.01243,-0.03588,-0.00054,0.0009270289447158575,0.000999892596155405,0.0008846033597365022,0.0004495485045481473,0.0005001203389838338,0.0005064711440354586,0.011400585062801838,0.011200910434126854,0.011713732965290546,passive,0
2.1005,rehab,large_slow,-3.285616047347169,-666.6369990190775,319.52369210306824,-177.39045508141655,0.13398794495655533,-149.98892024952247,-48.5343,0.0817,22.8302,17.2174,0.2273,-9.8538,77.13925201113861,26.583433245668317,81.47630219412322,-19.914160834418404,-88.87346055772569,-42.880443996853295,-4.298924361125077,-0.979496417659344,-2.5629757418490873,3.555306328667535,0.20355224609375,-4.206882052951388,-0.5252,-0.9529,1.821,-0.00884,-0.04383,0.00162,0.0009270289447158575,0.000999892596155405,0.0008846033597365022,0.0004495485045481473,0.0005001203389838338,0.0005064711440354586,0.011400585062801838,0.011200910434126854,0.011713732965290546,passive,0
2.1205,rehab,large_slow,-4.082933079930795,-666.6361400587423,319.90488966339876,-177.3897473742297,0.13333688435398416,-149.98859464156374,-46.8812,0.098,22.01,-13.2121,-0.1686,2.8135,77.07035631236464,26.56818427661858,81.43545698411394,-19.856779310438366,-88.87143452962239,-42.949015299479164,-4.190087648901609,-0.979496417659344,-2.4509777409015316,3.621427747938368,0.13570149739583334,-4.274732801649305,-0.5516,-0.9174,1.7414,-0.00274,-0.03813,-0.00035,0.0009270289447158575,0.000999892596155405,0.0008846033597365022,0.0004495485045481473,0.0005001203389838338,0.0005064711440354586,0.011400585062801838,0.011200910434126854,0.011713732965290546,passive,0
2.1407,rehab,large_slow,-5.2627285226226395,-666.6304741018971,320.47358716871224,-177.38893921898574,0.13264521432096155,-149.98701458283284,-46.8363,0.0808,21.9517,-23.745,-0.7094,4.9995,76.96834526439704,26.54521904369392,81.37474664367072,-19.77079603407118,-88.86836581759982,-43.05163065592448,-4.244502605778156,-0.9250814607827971,-2.5202609524868502,3.5813395182291665,0.06785074869791667,-4.206882052951388,-0.5333,-0.9292,1.8467,-0.00045,-0.02497,0.00361,0.0009270289447158575,0.000999892596155405,0.0008846033597365022,0.0004495485045481473,0.0005001203389838338,0.0005064711440354586,0.011400585062801838,0.011200910434126854,0.011713732965290546,passive,0
2.1608,rehab,large_slow,-6.050891804406205,-666.6294266005573,320.8443677873022,-177.38870322891896,0.13239022489424795,-149.98617325010235,-48.8519,0.0593,22.7847,-33.9289,-1.0904,7.2496,76.90028577747911,26.53088106967435,81.33405100000967,-19.713863796657986,-88.8663821750217,-43.11988830566406,-4.081257735148514,-0.87066650390625,-2.5825961273495515,3.580440945095486,0.20355224609375,-4.274732801649305,-0.2547,-0.8713,1.6561,0.02542,-0.04318,0.00235,0.0009270289447158575,0.000999892596155405,0.0008846033597365022,0.0004495485045481473,0.0005001203389838338,0.0005064711440354586,0.011400585062801838,0.011200910434126854,0.011713732965290546,passive,0
2.1808,rehab,large_slow,-7.231618206927508,-666.6271074637514,321.3848457632223,-177.38948144007074,0.1330300162660573,-149.98430199281373,-51.9765,0.0473,23.998,-39.3852,-1.3773,8.1566,76.79834951268565,26.510451666199334,81.27344943509243,-19.62844000922309,-88.86342366536458,-43.22273254394531,-4.462176030225093,-0.87066650390625,-2.5192275849899444,3.596530490451389,0.06785074869791667,-4.274732801649305,-0.3677,-0.8619,1.9257,0.02549,-0.03338,0.00214,0.0009270289447158575,0.000999892596155405,0.0008846033597365022,0.0004495485045481473,0.0005001203389838338,0.0005064711440354586,0.011400585062801838,0.011200910434126854,0.011713732965290546,passive,0
2.2004,rehab,large_slow,-8.023801824076445,-666.6253542687103,321.7406629602192,-177.39024779297972,0.1337328639892928,-149.98368948941666,-52.4155,0.0138,23.9606,-32.4661,-1.3926,4.1805,76.72997729613049,26.49725583520266,81.23303252871673,-19.571533203125,-88.86143154568143,-43.291074964735245,-4.298924361125077,-0.8162515470297029,-2.620028505230894,3.5399966769748263,0.20355224609375,-4.206882052951388,-0.4212,-0.8316,2.0121,0.01867,-0.02284,0.00407,0.0009270289447158575,0.000999892596155405,0.0008846033597365022,0.0004495485045481473,0.0005001203389838338,0.0005064711440354586,0.011400585062801838,0.011200910434126854,0.011713732965290546,passive,0
2.2206,rehab,large_slow,-9.22099091819039,-666.6285779999587,322.2860513363571,-177.38957216632267,0.13316957827039555,-149.98321140358374,-50.8306,-0.0397,22.9459,-5.3418,-1.008,-8.4785,76.64420099541692,26.480987095596767,81.18132336304919,-19.501249525282116,-88.858888414171,-43.37646484375,-4.135672692025062,-0.8162515470297029,-2.6134543843788673,3.5589599609375,0.20355224609375,-4.206882052951388,-0.3826,-1.0692,1.7463,0.01253,-0.03467,-0.00278,0.0009270289447158575,0.000999892596155405,0.0008846033597365022,0.0004495485045481473,0.0005001203389838338,0.0005064711440354586,0.011400585062801838,0.011200910434126854,0.011713732965290546,passive,0
2.2405,rehab,large_slow,-10.229659109288786,-666.6326585451768,322.7444010296257,-177.38865627242475,0.1322888080426858,-149.984170999067,-50.3323,-0.0579,22.4883,32.9416,-0.7212,-25.3591,76.53996004916654,26.461754222907643,81.11823355797493,-19.41717359754774,-88.85589599609375,-43.47886827256944,-4.190087648901609,-0.8162515470297029,-2.601006385123376,3.530604044596354,0.06785074869791667,-4.342592027452257,-0.5137,-1.0317,1.2652,0.00633,-0.04267,0.00308,0.0009270289447158575,0.000999892596155405,0.0008846033597365022,0.0004495485045481473,0.0005001203389838338,0.0005064711440354586,0.011400585062801838,0.011200910434126854,0.011713732965290546,passive,0
2.2608,rehab,large_slow,-11.436568572995466,-666.630907703168,323.28399915006065,-177.38862788719027,0.13213460959198745,-149.98454332720468,-50.3025,-0.0543,22.3187,53.0491,-0.6291,-33.4263,76.43596384784964,26.44266411809638,81.05618391886796,-19.33275858561198,-88.85298834906683,-43.58154296875,-4.4077542748781715,-0.8162515470297029,-2.6277311721650682,3.64853752983941,0.06785074869791667,-4.410442776150173,-0.5063,-0.9926,1.3947,0.0094,-0.03596,0.00389,0.0009270289447158575,0.000999892596155405,0.0008846033597365022,0.0004495485045481473,0.0005001203389838338,0.0005064711440354586,0.011400585062801838,0.011200910434126854,0.011713732965290546,passive,0
2.2803,rehab,large_slow,-12.239642408699757,-666.6306753672828,323.63824076794845,-177.38877485103242,0.13230791664958746,-149.98447269915397,-49.9057,-0.0524,22.0123,32.9602,-0.2955,-23.4175,76.36679621026067,26.430535646948485,81.01471324958423,-19.276657104492188,-88.85096232096355,-43.650148179796005,-4.244502605778156,-0.7074148348062346,-2.5444295146677756,3.552000257703993,0.20355224609375,-4.206882052951388,-0.4405,-0.8883,1.7007,0.01141,-0.03262,0.0012,0.0009270289447158575,0.000999892596155405,0.0008846033597365022,0.0004495485045481473,0.0005001203389838338,0.0005064711440354586,0.011400585062801838,0.011200910434126854,0.011713732965290546,passive,0
2.3004,rehab,large_slow,-13.041157495158473,-666.6327048090478,323.9905130175229,-177.3888426446097,0.1324494501635615,-149.98536149471408,-48.3623,-0.0351,21.1634,-3.836,0.3392,-5.8232,76.29783252678295,26.41893745648979,80.97280067972618,-19.22075907389323,-88.84894476996527,-43.717592027452255,-4.298924361125077,-0.7074148348062346,-2.6200149082901456,3.495966593424479,0.06785074869791667,-4.071180555555555,-0.5583,-0.9887,1.8555,0.01521,-0.03563,0.00056,0.0009270289447158575,0.000999892596155405,0.0008846033597365022,0.0004495485045481473,0.0005001203389838338,0.0005064711440354586,0.011400585062801838,0.011200910434126854,0.011713732965290546,passive,0
2.3206,rehab,large_slow,-14.24734390000625,-666.6336526104384,324.5059179046455,-177.38953638773395,0.13310219930995923,-149.9859311829469,-47.4963,-0.0444,20.617,-25.0721,0.7504,4.0541,76.19406067498839,26.40222681630956,80.91079862991182,-19.137691921657986,-88.84597778320312,-43.81985982259115,-4.190087648901609,-0.7074148348062346,-2.6904470613687343,3.5120561387803817,0.13570149739583334,-4.274732801649305,-0.6682,-0.9553,2.1117,0.00545,-0.03304,-0.00051,0.0009270289447158575,0.000999892596155405,0.0008846033597365022,0.0004495485045481473,0.0005001203389838338,0.0005064711440354586,0.011400585062801838,0.011200910434126854,0.011713732965290546,passive,0
2.3406,rehab,large_slow,-15.0363325812235,-666.6329115548143,324.8482662761801,-177.39007907994102,0.13364138749273693,-149.98532136074255,-48.1274,-0.067,20.7468,-32.3435,0.7821,6.881,76.12617114982983,26.391138511128943,80.8695659070912,-19.082344902886284,-88.843994140625,-43.887736002604164,-4.190087648901609,-0.7074148348062346,-2.634067346553991,3.437711927625868,0.13570149739583334,-4.206882052951388,-0.6892,-1.0667,1.2373,0.00375,-0.04003,0.00657,0.0009270289447158575,0.000999892596155405,0.0008846033597365022,0.0004495485045481473,0.0005001203389838338,0.0005064711440354586,0.011400585062801838,0.011200910434126854,0.011713732965290546,passive,0
2.3608,rehab,large_slow,-16.23390850154383,-666.6350114758561,325.3717769853655,-177.38993011263878,0.13349869729300576,-149.98462555241045,-51.0504,-0.0433,21.8796,-36.6705,0.6369,8.4036,76.02324230836169,26.37469980976369,80.80622455861308,-18.999345567491318,-88.84101867675781,-43.99042765299479,-4.298924361125077,-0.7074148348062346,-2.668623971466971,3.4774356418185763,0.13570149739583334,-4.071180555555555,-0.5552,-1.0435,1.6374,0.01423,-0.03524,0.00279,0.0009270289447158575,0.000999892596155405,0.0008846033597365022,0.0004495485045481473,0.0005001203389838338,0.0005064711440354586,0.011400585062801838,0.011200910434126854,0.011713732965290546,passive,0
2.3803,rehab,large_slow,-17.042225383604574,-666.6364167608789,325.7201338973248,-177.38992801518523,0.133528593196807,-149.98558101950866,-52.8028,0.0116,22.5388,-37.0212,0.3889,9.4415,75.95380273195777,26.364033009746286,80.76361854477685,-18.94378662109375,-88.83903503417969,-44.058286878797745,-4.298924361125077,-0.5985781225827661,-2.6566654620784345,3.4710099962022567,0.13570149739583334,-4.274732801649305,-0.6833,-1.1413,1.4663,-0.0033,-0.03698,0.00861,0.0009270289447158575,0.000999892596155405,0.0008846033597365022,0.0004495485045481473,0.0005001203389838338,0.0005064711440354586,0.011400585062801838,0.011200910434126854,0.011713732965290546,passive,0
2.4005,rehab,large_slow,-18.261464749491253,-666.6379140833114,326.23761037454517,-177.38999144936273,0.1334943708202326,-149.98712697657655,-52.5442,0.039,22.3165,-22.641,0.1722,5.5388,75.84911308666267,26.3485053034112,80.69984209419476,-18.861041598849827,-88.83615281846788,-44.16050381130642,-4.516590987101639,-0.5985781225827661,-2.5965329916170328,3.4018622504340277,0.06785074869791667,-4.274732801649305,-0.6018,-1.2055,1.1533,0.00835,-0.03716,0.00845,0.0009270289447158575,0.000999892596155405,0.0008846033597365022,0.0004495485045481473,0.0005001203389838338,0.0005064711440354586,0.011400585062801838,0.011200910434126854,0.011713732965290546,passive,0
2.4206,rehab,large_slow,-19.069134601602375,-666.6386177409173,326.5766020770864,-177.3902197500056,0.13368036855294096,-149.98791719526912,-51.9539,0.0187,21.9249,8.3004,-0.043,-5.0725,75.77978228578473,26.338586335134977,80.65757600387724,-18.806287977430554,-88.83422003851996,-44.228430853949654,-4.298924361125077,-0.5985781225827661,-2.5304518595780476,3.4984758165147567,0.13570149739583334,-4.139031304253472,-0.5503,-1.0596,1.6165,0.01563,-0.03276,0.00169,0.0009270289447158575,0.000999892596155405,0.0008846033597365022,0.0004495485045481473,0.0005001203389838338,0.0005064711440354586,0.011400585062801838,0.011200910434126854,0.011713732965290546,passive,0
2.4407,rehab,large_slow,-20.46829061070047,-666.6324974647882,327.161168676872,-177.39108143679968,0.1345583645067832,-149.98716892548535,-50.9365,-0.013,21.3809,44.047,-0.4954,-18.3701,75.6595513372138,26.321046281569075,80.58511110815671,-18.71103074815538,-88.83073594835069,-44.348339504665795,-4.353339318001624,-0.6529998779296875,-2.5906931055654394,3.262354532877604,0.13570149739583334,-4.274732801649305,-0.4417,-1.035,1.7687,0.01819,-0.04256,0.00029,0.0009270289447158575,0.000999892596155405,0.0008846033597365022,0.0004495485045481473,0.0005001203389838338,0.0005064711440354586,0.011400585062801838,0.011200910434126854,0.011713732965290546,passive,0
2.4609,rehab,large_slow,-21.266938077559917,-666.6305213462701,327.5016992388151,-177.39094539883055,0.13440915268603723,-149.98714650091028,-50.4551,-0.0358,21.2322,63.0118,-0.8986,-25.728,75.59099556195854,26.311066127059483,80.54288580866144,-18.65674336751302,-88.82879469129774,-44.4163089328342,-4.353339318001624,-0.5985781225827661,-2.588347633286278,3.354398939344618,0.06785074869791667,-4.274732801649305,-0.4806,-1.1671,1.7938,0.01894,-0.043,0.00204,0.0009270289447158575,0.000999892596155405,0.0008846033597365022,0.0004495485045481473,0.0005001203389838338,0.0005064711440354586,0.011400585062801838,0.011200910434126854,0.011713732965290546,passive,0
2.4805,rehab,large_slow,-22.472740567384893,-666.6322321566092,328.0074947921944,-177.39099630971626,0.13446000809213896,-149.9875574479333,-49.5484,-0.0427,21.009,58.5699,-0.6975,-23.7131,75.48763841685683,26.297319619962483,80.47837512327892,-18.574981689453125,-88.82587009006076,-44.51833936903212,-4.462176030225093,-0.544163165706219,-2.6414028960879485,3.420401679144965,0.13570149739583334,-4.274732801649305,-0.552,-1.222,1.264,0.00541,-0.04316,0.00476,0.0009270289447158575,0.000999892596155405,0.0008846033597365022,0.0004495485045481473,0.0005001203389838338,0.0005064711440354586,0.011400585062801838,0.011200910434126854,0.011713732965290546,passive,0
2.5005,rehab,large_slow,-23.269585676195717,-666.638443732485,328.3440235670185,-177.39073414596717,0.13417020575004263,-149.98782423031628,-48.2025,-0.0416,20.5795,37.656,0.0351,-14.7114,75.41948375135365,26.288971098342746,80.43438901995668,-18.520770602756077,-88.82397121853299,-44.58562215169271,-4.190087648901609,-0.544163165706219,-2.786455059995746,3.286124335394965,0.06785074869791667,-4.139031304253472,-0.5934,-1.1333,1.2831,0.00464,-0.03608,0.00627,0.0009270289447158575,0.000999892596155405,0.0008846033597365022,0.0004495485045481473,0.0005001203389838338,0.0005064711440354586,0.011400585062801838,0.011200910434126854,0.011713732965290546,passive,0
2.5203,rehab,large_slow,-24.056186104349315,-666.6421461955131,328.67666258866217,-177.3907402436303,0.13418497675304336,-149.98707680164344,-46.8055,-0.0436,19.9822,12.2538,0.6505,-3.8845,75.35216529770653,26.28061577825263,80.39093319732363,-18.46666971842448,-88.82203843858507,-44.65308295355903,-4.244502605778156,-0.544163165706219,-2.728423316880028,3.3416493733723955,0.13570149739583334,-4.071180555555555,-0.7948,-1.3081,1.2165,-0.01119,-0.04033,-0.00015,0.0009270289447158575,0.000999892596155405,0.0008846033597365022,0.0004495485045481473,0.0005001203389838338,0.0005064711440354586,0.011400585062801838,0.011200910434126854,0.011713732965290546,passive,0
2.5406,rehab,large_slow,-25.219186115300555,-666.6418887639875,329.1838904890063,-177.3899854152084,0.13347225948706504,-149.98451482306822,-46.3277,-0.0385,19.6404,-4.2109,0.8671,3.0584,75.25254051284034,26.26705282985574,80.32635452723738,-18.386145697699654,-88.81912231445312,-44.754367404513886,-4.081257735148514,-0.5985781225827661,-2.725826301197014,3.3396063910590277,0.13570149739583334,-4.139031304253472,-0.6283,-1.241,1.4797,-0.00267,-0.04005,0.00348,0.0009270289447158575,0.000999892596155405,0.0008846033597365022,0.0004495485045481473,0.0005001203389838338,0.0005064711440354586,0.011400585062801838,0.011200910434126854,0.011713732965290546,passive,0
2.5604,rehab,large_slow,-25.994816123789693,-666.6380309432933,329.52036735097363,-177.3895092610342,0.1330386392105412,-149.98446274652622,-46.9781,-0.009,19.8586,-12.069,0.8147,7.029,75.1860514725789,26.257786514735457,80.283945669042,-18.33288404676649,-88.81721496582031,-44.820310804578995,-4.244502605778156,-0.5985781225827661,-2.664578881594214,3.404752943250868,0.13570149739583334,-4.139031304253472,-0.7178,-1.2692,1.2711,-0.00645,-0.0397,-0.00036,0.0009270289447158575,0.000999892596155405,0.0008846033597365022,0.0004495485045481473,0.0005001203389838338,0.0005064711440354586,0.011400585062801838,0.011200910434126854,0.011713732965290546,passive,0
2.5807,rehab,large_slow,-27.158875967292676,-666.635684507099,330.0138052664846,-177.38926856239985,0.1327522127110231,-149.98575913022157,-48.0727,0.0339,20.4001,-11.474,0.7172,8.5101,75.10304894777808,26.24711291624768,80.23093119706257,-18.26666937934028,-88.814943101671,-44.90152147081163,-4.244502605778156,-0.435333251953125,-2.6114896264406715,3.3289252387152777,0.06785074869791667,-4.071180555555555,-0.62,-1.1683,1.1367,-0.00429,-0.02685,0.00196,0.0009270289447158575,0.000999892596155405,0.0008846033597365022,0.0004495485045481473,0.0005001203389838338,0.0005064711440354586,0.011400585062801838,0.011200910434126854,0.011713732965290546,passive,0
2.6006,rehab,large_slow,-27.92613869125074,-666.6355358772079,330.32695586156655,-177.39011433986914,0.13356545898483588,-149.98667644900223,-49.8575,0.0494,21.3222,-1.93,0.6152,6.8665,75.02078745624807,26.23790778736077,80.17785553884978,-18.200641208224827,-88.81267971462674,-44.981884426540795,-4.190087648901609,-0.3809114966062036,-2.6343596807800895,3.3272637261284723,0.06785074869791667,-4.071180555555555,-0.8213,-1.2367,1.052,-0.01308,-0.01803,0.00667,0.0009270289447158575,0.000999892596155405,0.0008846033597365022,0.0004495485045481473,0.0005001203389838338,0.0005064711440354586,0.011400585062801838,0.011200910434126854,0.011713732965290546,passive,0
2.6203,rehab,large_slow,-29.054818489928483,-666.6369562074528,330.79283225746224,-177.39136631412916,0.13488444025789081,-149.98626123710707,-48.7269,0.0366,21.032,17.8699,0.4083,-0.0152,74.9243171616356,26.22754691851021,80.11437142249382,-18.121719360351562,-88.80991617838542,-45.07788764105903,-3.9724210229250465,-0.435333251953125,-2.6261879193900834,3.1907145182291665,0.13570149739583334,-4.139031304253472,-0.6387,-1.3307,1.201,-0.00624,-0.02367,0.00124,0.0009270289447158575,0.000999892596155405,0.0008846033597365022,0.0004495485045481473,0.0005001203389838338,0.0005064711440354586,0.011400585062801838,0.011200910434126854,0.011713732965290546,passive,0
2.6408,rehab,large_slow,-29.795007073695544,-666.640369399643,331.11909947985646,-177.39062403447943,0.13418780488991536,-149.9860016076388,-47.1919,0.0243,20.5752,52.3896,0.0176,-15.124,74.86113897644647,26.220150182742884,80.07099038303488,-18.06982252332899,-88.80811055501302,-45.140745374891495,-3.8635911091719524,-0.544163165706219,-2.6002653518525682,3.2160271538628473,0.13570149739583334,-3.9354705810546875,-0.7282,-1.2928,0.9836,0.00202,-0.03322,0.01008,0.0009270289447158575,0.000999892596155405,0.0008846033597365022,0.0004495485045481473,0.0005001203389838338,0.0005064711440354586,0.011400585062801838,0.011200910434126854,0.011713732965290546,passive,0
2.6604,rehab,large_slow,-31.065053705173092,-666.6365719682253,331.6868082514067,-177.38965368660564,0.1332161304972859,-149.98621285737994,-45.6901,0.0313,20.0957,81.287,-0.3906,-28.9543,74.75257420303798,26.206274504708773,79.996975436069,-17.979651557074654,-88.80508422851562,-45.24809095594618,-3.809169353825031,-0.489748208829672,-2.608946998520653,3.1340874565972223,0.06785074869791667,-3.8676198323567705,-0.6463,-1.4358,1.5361,-0.01306,-0.02882,-0.00466,0.0009270289447158575,0.000999892596155405,0.0008846033597365022,0.0004495485045481473,0.0005001203389838338,0.0005064711440354586,0.011400585062801838,0.011200910434126854,0.011713732965290546,passive,0
2.6808,rehab,large_slow,-31.76087580462215,-666.6348231823947,332.00856489870426,-177.38890594847123,0.13242387837738884,-149.9853468361677,-43.9393,0.0379,19.4157,94.8748,-0.5051,-35.7094,74.6931283780844,26.198456263778233,79.95509006009243,-17.929000854492188,-88.80343119303386,-45.307837592230904,-3.8635911091719524,-0.489748208829672,-2.5934668814781867,3.1496938069661455,0.13570149739583334,-3.528349134657118,-0.4237,-1.2435,1.2113,0.00932,-0.03108,0.00221,0.0009270289447158575,0.000999892596155405,0.0008846033597365022,0.0004495485045481473,0.0005001203389838338,0.0005064711440354586,0.011400585062801838,0.011200910434126854,0.011713732965290546,passive,0
2.7005,rehab,large_slow,-32.79330906132244,-666.6332319600945,332.469360589069,-177.38897940126216,0.1325089764659894,-149.98472132871544,-42.8478,0.0314,19.0251,87.7704,-0.2703,-31.998,74.60497941121017,26.1881157903388,79.8931899873337,-17.853647867838543,-88.80095587836371,-45.39577060275607,-3.5915027278484684,-0.435333251953125,-2.491197491636371,3.172904120551215,0.13570149739583334,-3.664059109157986,-0.4199,-1.1717,1.3995,0.01623,-0.03512,-0.0024,0.0009270289447158575,0.000999892596155405,0.0008846033597365022,0.0004495485045481473,0.0005001203389838338,0.0005064711440354586,0.011400585062801838,0.011200910434126854,0.011713732965290546,passive,0
2.7204,rehab,large_slow,-33.46941689380304,-666.6324339696641,332.7636684767321,-177.38962104630406,0.13317897969615217,-149.98424766902667,-40.4397,0.0208,18.0219,69.0644,0.0248,-22.1513,74.54728079314279,26.18194277923886,79.85268470084313,-17.804073757595486,-88.79932827419705,-45.453389485677086,-3.5370877709719215,-0.3809114966062036,-2.54740044622138,3.1067572699652777,0.06785074869791667,-3.596208360460069,-0.7381,-1.3133,1.0339,0.00254,-0.03035,0.00409,0.0009270289447158575,0.000999892596155405,0.0008846033597365022,0.0004495485045481473,0.0005001203389838338,0.0005064711440354586,0.011400585062801838,0.011200910434126854,0.011713732965290546,passive,0
2.7408,rehab,large_slow,-34.134928309517086,-666.632438131529,333.05065384477075,-177.39046712158674,0.13406394559161836,-149.98460828266323,-38.5164,-0.0018,17.3494,54.019,0.1917,-11.2574,74.49052716245745,26.176238862594754,79.81260091951577,-17.755152384440105,-88.79775153266058,-45.509236653645836,-3.5915027278484684,-0.435333251953125,-2.509396996828589,2.9733954535590277,0.06785074869791667,-3.392647637261285,-0.5762,-1.3661,0.8699,0.00576,-0.0273,0.00298,0.0009270289447158575,0.000999892596155405,0.0008846033597365022,0.0004495485045481473,0.0005001203389838338,0.0005064711440354586,0.011400585062801838,0.011200910434126854,0.011713732965290546,passive,0
2.7608,rehab,large_slow,-35.119386365942795,-666.6339330039016,333.48163808091306,-177.39109626625995,0.1346768781362598,-149.9867659827718,-37.9664,-0.0017,17.433,42.4217,0.2343,0.3032,74.40666123191909,26.16783595321202,79.75253643375812,-17.68303765190972,-88.79552205403645,-45.59014214409722,-3.2650061881188117,-0.32649653972965653,-2.408840821521117,3.0161539713541665,0.13570149739583334,-3.324796888563368,-0.4838,-1.3568,1.2705,0.00096,-0.02573,-0.00634,0.0009270289447158575,0.000999892596155405,0.0008846033597365022,0.0004495485045481473,0.0005001203389838338,0.0005064711440354586,0.011400585062801838,0.011200910434126854,0.011713732965290546,passive,0
2.7806,rehab,large_slow,-35.74370509009321,-666.6363400523068,333.7759636926674,-177.39077871115506,0.134350394573767,-149.98725551689236,-37.7393,0.0276,17.7806,39.5659,0.1365,6.74,74.35352438747293,26.161914485515933,79.71221470596767,-17.63546413845486,-88.79408094618056,-45.64225938585069,-3.319421144995359,-0.32649653972965653,-2.500633768516012,2.8951432969835067,0.13570149739583334,-3.1890869140625,-0.6136,-1.2135,1.2485,0.00868,-0.0225,0.00543,0.0009270289447158575,0.000999892596155405,0.0008846033597365022,0.0004495485045481473,0.0005001203389838338,0.0005064711440354586,0.011400585062801838,0.011200910434126854,0.011713732965290546,passive,0
2.8005,rehab,large_slow,-36.64110306371068,-666.6346051708912,334.21955601260663,-177.38997161957812,0.1335130295586558,-149.98778789735755,-37.1514,0.0503,18.0316,44.1733,-0.0841,7.7672,74.27704839423151,26.15207030041383,79.65308840912168,-17.565078735351562,-88.79201253255208,-45.71741739908854,-3.1017545190187965,-0.435333251953125,-2.344071794264387,2.8504519992404513,0.13570149739583334,-3.121236165364583,-0.461,-1.3291,1.1604,0.01087,-0.02881,-0.00406,0.0009270289447158575,0.000999892596155405,0.0008846033597365022,0.0004495485045481473,0.0005001203389838338,0.0005064711440354586,0.011400585062801838,0.011200910434126854,0.011713732965290546,passive,0
2.8207,rehab,large_slow,-37.221916447486414,-666.6322288897787,334.51283868356705,-177.38923874982285,0.13275154365047379,-149.98857166895831,-36.5575,0.0511,18.3647,55.1111,-0.3188,4.8644,74.22754193296527,26.14538060556544,79.61440511269144,-17.519107394748264,-88.79069010416667,-45.765626695421005,-2.992917806795328,-0.3809114966062036,-2.4198883358794863,2.826258341471354,-0.0,-2.8498246934678817,-0.5996,-1.2601,0.9956,-0.00472,-0.01796,0.00153,0.0009270289447158575,0.000999892596155405,0.0008846033597365022,0.0004495485045481473,0.0005001203389838338,0.0005064711440354586,0.011400585062801838,0.011200910434126854,0.011713732965290546,passive,0
2.8408,rehab,large_slow,-38.049609240824836,-666.6296454048908,334.94014879206793,-177.3884925907373,0.13196442798140226,-149.98852081040044,-35.2778,0.0289,18.5922,76.8575,-0.594,-3.8331,74.15702819824219,26.13585594857093,79.55756310189125,-17.451426188151043,-88.78878275553386,-45.83543565538194,-2.7752511808187657,-0.435333251953125,-2.3298222003596845,2.7979448106553817,0.13570149739583334,-2.8498246934678817,-0.5595,-1.3086,1.1874,-0.01585,-0.02074,-0.00609,0.0009270289447158575,0.000999892596155405,0.0008846033597365022,0.0004495485045481473,0.0005001203389838338,0.0005064711440354586,0.011400585062801838,0.011200910434126854,0.011713732965290546,passive,0
2.8603,rehab,large_slow,-38.579146851397894,-666.6278252703804,335.21008963473145,-177.38897414430434,0.13239004067339827,-149.9892482129222,-33.1599,-0.0061,18.1502,98.6054,-0.7866,-15.1354,74.11193394424892,26.130179225808323,79.52068140011022,-17.406717936197918,-88.78762986924913,-45.87930467393663,-2.7208362239422184,-0.32649653972965653,-2.2859856633856745,2.7855936686197915,0.06785074869791667,-2.6462639702690973,-0.7895,-1.3876,1.379,-0.02505,-0.02966,-0.00128,0.0009270289447158575,0.000999892596155405,0.0008846033597365022,0.0004495485045481473,0.0005001203389838338,0.0005064711440354586,0.011400585062801838,0.011200910434126854,0.011713732965290546,passive,0
2.8803,rehab,large_slow,-39.44125045421438,-666.6286818226605,335.6737339509168,-177.39033009761013,0.13380013010595032,-149.98961721248116,-30.3865,-0.0343,17.2911,109.2291,-0.5671,-24.3591,74.03861244126122,26.12089931374729,79.45636787036858,-17.328686184353298,-88.78566318088107,-45.951385498046875,-2.557584554842203,-0.32649653972965653,-2.315389047754873,2.7783203125,0.13570149739583334,-2.510553995768229,-0.4897,-1.3021,1.6791,-0.00214,-0.02386,-0.00214,0.0009270289447158575,0.000999892596155405,0.0008846033597365022,0.0004495485045481473,0.0005001203389838338,0.0005064711440354586,0.011400585062801838,0.011200910434126854,0.011713732965290546,passive,0
2.9006,rehab,large_slow,-39.89835997372994,-666.6316137542442,335.9434477847277,-177.39058668824174,0.134073196391593,-149.98857657066088,-28.2644,-0.0332,16.8407,108.8255,0.1158,-30.7805,73.99979997389387,26.115446940507038,79.41934340070969,-17.28447808159722,-88.7845950656467,-45.99074469672309,-2.3399179288656407,-0.3809114966062036,-2.2653930966216738,2.7408260769314237,0.06785074869791667,-2.4427032470703125,-0.4743,-1.3843,1.6097,0.00725,-0.03144,-0.00231,0.0009270289447158575,0.000999892596155405,0.0008846033597365022,0.0004495485045481473,0.0005001203389838338,0.0005064711440354586,0.011400585062801838,0.011200910434126854,0.011713732965290546,passive,0
2.9206,rehab,large_slow,-40.54031471277881,-666.6354615177689,336.355634371368,-177.3898561789508,0.13340855677144667,-149.98696143791634,-26.5077,-0.0195,16.4805,100.0592,0.8387,-35.0872,73.94528983843209,26.106432168790608,79.36442535702545,-17.219619750976562,-88.78304375542534,-46.046142578125,-2.2310880151125465,-0.3809114966062036,-2.278255802570003,2.6439836290147567,0.13570149739583334,-2.2391425238715277,-0.4414,-1.3479,1.8946,0.01104,-0.03473,-0.00361,0.0009270289447158575,0.000999892596155405,0.0008846033597365022,0.0004495485045481473,0.0005001203389838338,0.0005064711440354586,0.011400585062801838,0.011200910434126854,0.011713732965290546,passive,0
2.9405,rehab,large_slow,-40.947414189832145,-666.6357677122646,336.6241377766797,-177.3892824748506,0.13283791676415907,-149.98657867757777,-24.2668,0.0009,15.6517,84.4143,1.1592,-35.2492,73.91907493666847,26.101802410465655,79.3380608889136,-17.18823750813802,-88.78233167860243,-46.07220119900173,-2.122251302889078,-0.3809114966062036,-2.1497987048460705,2.581303914388021,0.06785074869791667,-2.171291775173611,-0.4965,-1.3492,1.639,0.01188,-0.03175,-0.0051,0.0009270289447158575,0.000999892596155405,0.0008846033597365022,0.0004495485045481473,0.0005001203389838338,0.0005064711440354586,0.011400585062801838,0.011200910434126854,0.011713732965290546,passive,0
2.9608,rehab,large_slow,-41.34850955057,-666.6335732011348,336.8855583658403,-177.38876853862863,0.1323427084602346,-149.9876194323688,-22.2992,0.0328,14.701,74.5979,0.9452,-37.3101,73.87654370600634,26.093936580242495,79.29538009190323,-17.137281629774304,-88.78120422363281,-46.1133066813151,-2.067836346012531,-0.3809114966062036,-2.082228707795096,2.4206373426649304,0.06785074869791667,-1.9677310519748263,-0.2526,-1.3562,1.7297,0.0188,-0.04375,-0.00296,0.0009270289447158575,0.000999892596155405,0.0008846033597365022,0.0004495485045481473,0.0005001203389838338,0.0005064711440354586,0.011400585062801838,0.011200910434126854,0.011713732965290546,passive,0
2.9807,rehab,large_slow,-41.90805470491711,-666.6281756718101,337.24999694768303,-177.38869771358105,0.13225669339845925,-149.98890050564881,-21.5099,0.0728,14.1282,77.8641,0.3913,-45.2252,73.82887283174118,26.085105367226177,79.24796076104192,-17.07956102159288,-88.77999199761284,-46.159049140082466,-1.9045846769125154,-0.32649653972965653,-1.9428056773572866,2.2570037841796875,0.13570149739583334,-1.7641703287760415,-0.2953,-1.2417,1.3048,0.02844,-0.01747,-0.0016,0.0009270289447158575,0.000999892596155405,0.0008846033597365022,0.0004495485045481473,0.0005001203389838338,0.0005064711440354586,0.011400585062801838,0.011200910434126854,0.011713732965290546,passive,0
3.0004,rehab,large_slow,-42.248800642084724,-666.6275616542777,337.4726456456337,-177.38872062854054,0.13222805772397905,-149.98934768609703,-20.423,0.0886,13.2452,85.8759,-0.1264,-52.6319,73.79991814641669,26.080128886912128,79.21832622868,-17.043982611762154,-88.77927992078993,-46.1871592203776,-1.7413330078125,-0.32649653972965653,-1.8206099708481591,2.1280415852864585,-0.0,-1.696319580078125,-0.363,-1.3502,1.2147,0.01311,-0.0403,-0.00337,0.0009270289447158575,0.000999892596155405,0.0008846033597365022,0.0004495485045481473,0.0005001203389838338,0.0005064711440354586,0.011400585062801838,0.011200910434126854,0.011713732965290546,passive,0
3.0203,rehab,large_slow,-42.72142209068597,-666.6287222650998,337.7762889465646,-177.38884959981317,0.1323494339359267,-149.99085868725703,-18.7278,0.0554,12.2182,93.0331,-0.5248,-56.1978,73.75981396967822,26.07377231711208,79.177195482915,-16.99500189887153,-88.77827962239583,-46.22520446777344,-1.5780813387124846,-0.2176666259765625,-1.6093950932568843,1.853052775065104,-0.0,-1.4927588568793402,-0.3722,-1.2694,1.8121,0.00018,-0.0401,-0.0049,0.0009270289447158575,0.000999892596155405,0.0008846033597365022,0.0004495485045481473,0.0005001203389838338,0.0005064711440354586,0.011400585062801838,0.011200910434126854,0.011713732965290546,passive,0
3.0403,rehab,large_slow,-42.99114802365503,-666.6281290581114,337.9508039207603,-177.3894982882645,0.13299403604209076,-149.99089166289048,-16.6519,0.0112,11.0508,101.0315,-0.9218,-58.6561,73.73689632604618,26.070101143109916,79.15329885954904,-16.965738932291668,-88.77770317925346,-46.247762044270836,-1.4148296696124691,-0.2176666259765625,-1.4258703855004642,1.6934712727864583,-0.0,-1.357057359483507,-0.5088,-1.3974,1.5687,-0.03029,-0.03263,-0.00829,0.0009270289447158575,0.000999892596155405,0.0008846033597365022,0.0004495485045481473,0.0005001203389838338,0.0005064711440354586,0.011400585062801838,0.011200910434126854,0.011713732965290546,passive,0
3.0606,rehab,large_slow,-43.40906176253763,-666.6276635068375,338.21937798026715,-177.3900547115308,0.13354369898085217,-149.99150239240203,-13.734,-0.0204,9.4265,112.1501,-1.2168,-63.272,73.70578652561301,26.06526063220336,79.12128486255608,-16.92727830674913,-88.7769063313802,-46.27764383951823,-1.1427480867593596,-0.10882991375309406,-1.1716415858504796,1.4917161729600694,-0.0,-1.0856458875868056,-0.5082,-1.3097,1.2527,-0.01085,-0.0101,-0.00137,0.0009270289447158575,0.000999892596155405,0.0008846033597365022,0.0004495485045481473,0.0005001203389838338,0.0005064711440354586,0.011400585062801838,0.011200910434126854,0.011713732965290546,passive,0
3.0805,rehab,large_slow,-43.592305388268045,-666.6261300124042,338.3495662775892,-177.39060167921488,0.13417134160843128,-149.99039385712584,-11.4565,-0.0209,8.2415,115.004,-1.1382,-65.4271,73.68579902271233,26.0615078765567,79.09919663230971,-16.899668375651043,-88.77633836534288,-46.29861619737413,-0.9250814607827971,-0.16324487062964108,-1.0386499083868348,1.3238440619574652,-0.0,-0.9499359130859375,-0.1963,-1.2181,1.5264,0.00686,-0.03661,-0.00907,0.0009270289447158575,0.000999892596155405,0.0008846033597365022,0.0004495485045481473,0.0005001203389838338,0.0005064711440354586,0.011400585062801838,0.011200910434126854,0.011713732965290546,passive,0
3.1007,rehab,large_slow,-43.824199941355864,-666.6292883316497,338.5338208640336,-177.3904011678936,0.13399033508208283,-149.98903809555023,-9.2396,-0.0177,7.0574,108.4546,-0.7262,-64.7223,73.66617863721187,26.05755116679881,79.07456577414334,-16.870634290907116,-88.77577887641058,-46.319266425238716,-0.7074148348062346,-0.16324487062964108,-0.9355579036297185,1.0860188802083333,-0.06785074869791667,-0.7463751898871528,-0.2978,-1.2691,1.7657,0.01121,-0.03302,-0.01232,0.0009270289447158575,0.000999892596155405,0.0008846033597365022,0.0004495485045481473,0.0005001203389838338,0.0005064711440354586,0.011400585062801838,0.011200910434126854,0.011713732965290546,passive,0
3.1204,rehab,large_slow,-43.95251169359578,-666.629906183658,338.64016399748795,-177.39018911793576,0.13379156041850598,-149.9883273311233,-7.3523,-0.0419,5.8938,98.5536,-0.4475,-62.1828,73.65529428614248,26.05504253123066,79.0607512823426,-16.854205661349827,-88.77546522352431,-46.33067660861545,-0.6529998779296875,-0.16324487062964108,-0.8074747217763768,0.9765370686848958,-0.0,-0.6106736924913194,-0.1008,-1.2985,0.6543,0.00907,-0.03664,-0.00529,0.0009270289447158575,0.000999892596155405,0.0008846033597365022,0.0004495485045481473,0.0005001203389838338,0.0005064711440354586,0.011400585062801838,0.011200910434126854,0.011713732965290546,passive,0
3.1404,rehab,large_slow,-44.06082574810836,-666.6294581994114,338.73231103177636,-177.38982755004758,0.13338748406128023,-149.98792681224822,-5.5179,-0.0662,4.6092,86.5751,-0.4725,-57.2153,73.64608915725557,26.05266986507,79.04919388270613,-16.840489705403645,-88.77523634168837,-46.340128580729164,-0.489748208829672,-0.10882991375309406,-0.6801801624864635,0.7467227511935763,-0.0,-0.5428229437934028,-0.2886,-1.2667,1.3433,-0.00794,-0.04098,-0.00729,0.0009270289447158575,0.000999892596155405,0.0008846033597365022,0.0004495485045481473,0.0005001203389838338,0.0005064711440354586,0.011400585062801838,0.011200910434126854,0.011713732965290546,passive,0
3.1603,rehab,large_slow,-44.18782076275727,-666.6306652825363,338.84135563966265,-177.38931840711868,0.13282578768657516,-149.98760118995878,-3.9723,-0.0731,3.4338,77.7064,-0.6277,-52.9671,73.63534077559368,26.05007284938699,79.03523662302753,-16.824315388997395,-88.7749735514323,-46.351021660698784,-0.3809114966062036,-0.05441495687654703,-0.5245699740872525,0.5767567952473959,-0.0,-0.4071129692925347,-0.1776,-1.4013,1.0448,-0.00734,-0.03813,-0.01212,0.0009270289447158575,0.000999892596155405,0.0008846033597365022,0.0004495485045481473,0.0005001203389838338,0.0005064711440354586,0.011400585062801838,0.011200910434126854,0.011713732965290546,passive,0
3.1807,rehab,large_slow,-44.247824676425815,-666.6316658101401,338.89360563271265,-177.38919379015377,0.13270814137357417,-149.9873433860419,-2.6014,-0.0692,2.4167,70.312,-0.6712,-48.079,73.63026911669438,26.04891031095297,79.02835657100866,-16.81626213921441,-88.7748294406467,-46.356260511610245,-0.2720815828531095,-0.05441495687654703,-0.3833657444113552,0.4435814751519097,0.06785074869791667,-0.20355224609375,-0.2051,-1.3097,1.6432,-0.01554,-0.02131,-0.01381,0.0009270289447158575,0.000999892596155405,0.0008846033597365022,0.0004495485045481473,0.0005001203389838338,0.0005064711440354586,0.011400585062801838,0.011200910434126854,0.011713732965290546,passive,0
3.2005,rehab,large_slow,-44.305730772498116,-666.6355690358425,338.93720317671455,-177.38977563666845,0.1333605076697766,-149.98690400509852,-1.1015,-0.0795,1.5018,61.5394,-0.4676,-40.487,73.62544220272858,26.048590782845373,79.02125216946743,-16.807785034179688,-88.77466837565105,-46.36143154568142,-0.16324487062964108,-0.0,-0.19334849744740099,0.24190266927083331,-0.0,-0.13570149739583334,-0.2642,-1.2773,1.4641,-0.01881,-0.01536,-0.00819,0.0009270289447158575,0.000999892596155405,0.0008846033597365022,0.0004495485045481473,0.0005001203389838338,0.0005064711440354586,0.011400585062801838,0.011200910434126854,0.011713732965290546,passive,0
3.2207,rehab,large_slow,-44.32497372401204,-666.636742450827,338.95079397256916,-177.39041205245263,0.13405481684151105,-149.9865330240207,0.0918,-0.1009,0.8324,50.8895,-0.1655,-30.9278,73.62383096524985,26.048604379786124,79.01862795990293,-16.80416531032986,-88.77460055881076,-46.363372802734375,0.05441495687654703,-0.0,-0.12212772180538366,0.17927381727430555,0.06785074869791667,-0.06785074869791667,-0.1312,-1.2875,1.5322,0.00971,-0.02426,-0.00903,0.0009270289447158575,0.000999892596155405,0.0008846033597365022,0.0004495485045481473,0.0005001203389838338,0.0005064711440354586,0.011400585062801838,0.011200910434126854,0.011713732965290546,passive,0
3.2404,rehab,large_slow,-44.288495933137774,-666.6379540349704,338.9538125286368,-177.39160871275195,0.1353300708745301,-149.98258411983403,1.1989,-0.1069,0.193,40.2101,0.1752,-22.2314,73.62692426927019,26.04861797672687,79.0174926153504,-16.801266140407986,-88.77456665039062,-46.364195081922745,0.2720815828531095,-0.0,0.0376567274036974,0.03741794162326389,-0.0,-0.0,-0.1542,-1.3107,0.8184,-0.00146,-0.03229,-0.00488,0.0009270289447158575,0.000999892596155405,0.0008846033597365022,0.0004495485045481473,0.0005001203389838338,0.0005064711440354586,0.011400585062801838,0.011200910434126854,0.011713732965290546,passive,0
3.2603,rehab,large_slow,-44.24520102437305,-666.638716324609,338.94987825698126,-177.3922362845479,0.1360158420952505,-149.97899687618502,1.7939,-0.1008,-0.1401,30.619,0.7022,-15.0749,73.63058864480197,26.04861797672687,79.01782574039875,-16.800672743055554,-88.77454969618056,-46.3641103108724,0.2176666259765625,-0.0,0.019096903281636757,0.009850396050347222,-0.0,-0.06785074869791667,-0.2161,-1.4357,0.2738,-0.00715,-0.02033,-0.00435,0.0009270289447158575,0.000999892596155405,0.0008846033597365022,0.0004495485045481473,0.0005001203389838338,0.0005064711440354586,0.011400585062801838,0.011200910434126854,0.011713732965290546,passive,0
3.2803,rehab,large_slow,-44.1751895506773,-666.6420493975016,338.94631278329496,-177.39239009846526,0.13620114256427282,-149.97447703021234,2.1972,-0.0798,-0.286,24.0232,1.3285,-10.2054,73.6365780972018,26.04859758131575,79.01838321496945,-16.80102030436198,-88.77457512749565,-46.362643771701386,0.16324487062964108,-0.0,0.002739783560875619,-0.033391316731770836,-0.0,0.20355224609375,-0.1241,-1.3749,1.2597,-0.00405,-0.03021,-0.01042,0.0009270289447158575,0.000999892596155405,0.0008846033597365022,0.0004495485045481473,0.0005001203389838338,0.0005064711440354586,0.011400585062801838,0.011200910434126854,0.011713732965290546,passive,0
3.3006,rehab,large_slow,-44.14932107997505,-666.6436729380598,338.9453291640108,-177.3920601996254,0.1359230337615278,-149.9753159104957,2.5436,-0.0482,-0.3981,22.3711,1.8107,-7.7876,73.63880799548461,26.04853639508238,79.01882511554378,-16.80193583170573,-88.77461751302083,-46.35958353678385,0.16324487062964108,-0.05441495687654703,0.05335439549814357,-0.1300387912326389,-0.06785074869791667,0.2714114718967014,-0.0619,-1.3938,1.5975,-0.00632,-0.03566,-0.01772,0.0009270289447158575,0.000999892596155405,0.0008846033597365022,0.0004495485045481473,0.0005001203389838338,0.0005064711440354586,0.011400585062801838,0.011200910434126854,0.011713732965290546,passive,0
3.3207,rehab,large_slow,-44.11069117880027,-666.6450416019366,338.9392062669418,-177.39113317898324,0.13518074396031823,-149.9804346869622,2.8551,-0.0044,-0.4992,25.7579,1.977,-7.2253,73.64211885055693,26.048359634852645,79.02061991172262,-16.805021497938366,-88.77470228407118,-46.35118272569444,0.16324487062964108,0.05441495687654703,0.10905426327544863,-0.20250108506944445,-0.06785074869791667,0.4071129692925347,-0.0726,-1.4354,0.86,-0.01001,-0.0275,-0.00773,0.0009270289447158575,0.000999892596155405,0.0008846033597365022,0.0004495485045481473,0.0005001203389838338,0.0005064711440354586,0.011400585062801838,0.011200910434126854,0.011713732965290546,passive,0
3.3407,rehab,large_slow,-44.0630522299685,-666.6449065452147,338.9286230435431,-177.39059902958394,0.13478504423637197,-149.98307056326829,3.4115,0.0502,-0.6754,32.9695,1.8473,-8.1553,73.64615034348894,26.04814888227104,79.02300617482402,-16.808081732855904,-88.7747785780165,-46.344545152452255,0.32649653972965653,-0.0,0.19803944200572401,-0.2262454562717014,-0.06785074869791667,0.4749637179904514,-0.0156,-1.1979,1.1871,0.00883,-0.02988,-0.01065,0.0009270289447158575,0.000999892596155405,0.0008846033597365022,0.0004495485045481473,0.0005001203389838338,0.0005064711440354586,0.011400585062801838,0.011200910434126854,0.011713732965290546,passive,0
3.3605,rehab,large_slow,-43.99622551601386,-666.6435942140954,338.9128155874322,-177.39029385270075,0.13465086777837879,-149.98498485362836,4.289,0.0907,-0.9142,40.8918,1.393,-9.5177,73.65177267848856,26.047842951104194,79.02629663448522,-16.811633639865452,-88.77486334906683,-46.33704291449653,0.3809114966062036,-0.0,0.2175306565690749,-0.2445644802517361,-0.06785074869791667,0.4749637179904514,-0.1316,-1.2749,1.4519,-0.01114,-0.03513,-0.01185,0.0009270289447158575,0.000999892596155405,0.0008846033597365022,0.0004495485045481473,0.0005001203389838338,0.0005064711440354586,0.011400585062801838,0.011200910434126854,0.011713732965290546,passive,0
3.3803,rehab,large_slow,-43.87233431703879,-666.6399496044268,338.88780176758456,-177.38976325895828,0.13434683892445295,-149.9867964250688,5.2336,0.1041,-1.1568,44.7039,0.6471,-9.4245,73.66216753969098,26.046972746896273,79.03213652053682,-16.81760999891493,-88.77503289116753,-46.32489522298177,0.489748208829672,-0.0,0.29417661156984837,-0.271055433485243,-0.0,0.5428229437934028,-0.0923,-1.197,1.4295,0.00419,-0.03782,-0.01188,0.0009270289447158575,0.000999892596155405,0.0008846033597365022,0.0004495485045481473,0.0005001203389838338,0.0005064711440354586,0.011400585062801838,0.011200910434126854,0.011713732965290546,passive,0
3.4005,rehab,large_slow,-43.77614619985707,-666.636600381151,338.8681052094722,-177.38968903028976,0.13439237222939754,-149.98777684475522,6.2363,0.1032,-1.3664,46.1234,-0.1342,-8.71,73.670230525555,26.046313295269957,79.03653513086904,-16.821679009331596,-88.77520243326823,-46.3158925374349,0.544163165706219,-0.05441495687654703,0.27879847158299814,-0.2682071261935764,-0.0,0.4749637179904514,-0.2321,-1.1803,1.1313,-0.00701,-0.02325,-0.00681,0.0009270289447158575,0.000999892596155405,0.0008846033597365022,0.0004495485045481473,0.0005001203389838338,0.0005064711440354586,0.011400585062801838,0.011200910434126854,0.011713732965290546,passive,0
3.4207,rehab,large_slow,-43.60862574602982,-666.6337063652637,338.8320739543047,-177.38989573920492,0.13472175124759267,-149.9881514453633,7.2066,0.1003,-1.5279,45.1264,-0.6556,-8.0244,73.68435094852259,26.045701432936262,79.0434967645324,-16.82814704047309,-88.77553304036458,-46.301464504665795,0.5985781225827661,-0.0,0.28679347274327044,-0.2823215060763889,-0.0,0.6106736924913194,-0.2362,-1.2577,1.5641,-0.00517,-0.02315,-0.00712,0.0009270289447158575,0.000999892596155405,0.0008846033597365022,0.0004495485045481473,0.0005001203389838338,0.0005064711440354586,0.011400585062801838,0.011200910434126854,0.011713732965290546,passive,0
3.4408,rehab,large_slow,-43.48353036915817,-666.6340918502593,338.8054149217909,-177.38989462625597,0.13475118812964182,-149.98790044536403,8.1081,0.0787,-1.6475,41.2144,-0.8153,-7.4897,73.694963360777,26.04554506811765,79.0482760892056,-16.833106146918404,-88.77580430772569,-46.29115634494357,0.6529998779296875,-0.0,0.3202555439259746,-0.3410424126519097,-0.06785074869791667,0.678524441189236,-0.0896,-1.3117,1.4577,0.0128,-0.02425,-0.00896,0.0009270289447158575,0.000999892596155405,0.0008846033597365022,0.0004495485045481473,0.0005001203389838338,0.0005064711440354586,0.011400585062801838,0.011200910434126854,0.011713732965290546,passive,0
3.4606,rehab,large_slow,-43.28934874050486,-666.6342977831968,338.7629368714184,-177.3896147069213,0.13447869829685338,-149.9881692011821,8.7504,0.0428,-1.7227,36.3601,-0.7865,-7.5867,73.71143605449411,26.045225540010055,79.05614871789913,-16.841625637478298,-88.77626207139757,-46.27450731065538,0.6529998779296875,-0.0,0.3081610651299505,-0.4029422336154514,-0.0,0.7463751898871528,-0.0888,-1.2752,1.3512,0.00821,-0.03518,-0.009,0.0009270289447158575,0.000999892596155405,0.0008846033597365022,0.0004495485045481473,0.0005001203389838338,0.0005064711440354586,0.011400585062801838,0.011200910434126854,0.011713732965290546,passive,0
3.4805,rehab,large_slow,-43.157684790046424,-666.6332230919248,338.73494459400297,-177.38934856182726,0.13415997520409706,-149.98895355795855,9.3175,0.0211,-1.8507,30.4947,-0.8105,-8.1734,73.7225855459081,26.044797236376468,79.06173706054688,-16.847610473632812,-88.77662658691406,-46.26263936360677,0.7074148348062346,-0.05441495687654703,0.35902042200069617,-0.4028659396701389,-0.06785074869791667,0.8142344156901041,-0.1418,-1.2864,1.437,-0.012,-0.03694,-0.00923,0.0009270289447158575,0.000999892596155405,0.0008846033597365022,0.0004495485045481473,0.0005001203389838338,0.0005064711440354586,0.011400585062801838,0.011200910434126854,0.011713732965290546,passive,0
3.5007,rehab,large_slow,-42.9053775212862,-666.6306936802007,338.68882563975325,-177.38886247757344,0.13350880129925216,-149.99013861998583,10.106,0.0236,-2.0993,25.5309,-0.8527,-9.082,73.7439463398244,26.043661891823948,79.07168322270459,-16.85800340440538,-88.77736409505208,-46.2402089436849,0.8162515470297029,-0.0,0.3529017986637531,-0.3540547688802083,-0.0,0.8142344156901041,-0.0259,-1.1905,1.517,0.00645,-0.01965,-0.00526,0.0009270289447158575,0.000999892596155405,0.0008846033597365022,0.0004495485045481473,0.0005001203389838338,0.0005064711440354586,0.011400585062801838,0.011200910434126854,0.011713732965290546,passive,0
3.5207,rehab,large_slow,-42.743102504304474,-666.6305390742631,338.6596655135531,-177.38873949883381,0.13326421397841387,-149.98996282738344,10.4812,0.0318,-2.2878,23.7612,-0.6436,-9.7258,73.75772004080291,26.043165603486617,79.07753670569694,-16.864089965820312,-88.777830335829,-46.22667948404948,0.87066650390625,-0.05441495687654703,0.3809114966062036,-0.3723992241753472,-0.13570149739583334,0.8820851643880208,-0.1094,-1.2067,1.1393,-0.0045,-0.01669,-0.01483,0.0009270289447158575,0.000999892596155405,0.0008846033597365022,0.0004495485045481473,0.0005001203389838338,0.0005064711440354586,0.011400585062801838,0.011200910434126854,0.011713732965290546,passive,0
3.5407,rehab,large_slow,-42.48707121676576,-666.6316762194266,338.606195799791,-177.38882723139469,0.1331628445651358,-149.98950867433174,10.9793,0.0186,-2.5005,23.5756,-0.2317,-8.985,73.77948874294168,26.042907261612392,79.08706136269144,-16.874101426866318,-88.77856784396701,-46.205478244357636,0.9250814607827971,-0.0,0.4364617980352723,-0.4739210340711805,-0.0,0.9499359130859375,-0.0456,-1.1993,1.21,-0.002,-0.01323,-0.00865,0.0009270289447158575,0.000999892596155405,0.0008846033597365022,0.0004495485045481473,0.0005001203389838338,0.0005064711440354586,0.011400585062801838,0.011200910434126854,0.011713732965290546,passive,0
3.5605,rehab,large_slow,-42.30691799023989,-666.6314283817369,338.56078758672925,-177.38919395225372,0.13338685188055627,-149.98926975197787,11.2978,-0.0129,-2.6634,21.1131,0.0127,-5.7696,73.79478530128404,26.04293445549389,79.09458726939589,-16.881756252712673,-88.7791019015842,-46.19050767686632,0.9250814607827971,0.05441495687654703,0.5136176383141243,-0.5166965060763888,-0.0,0.9499359130859375,0.0711,-1.2587,0.8871,0.01851,-0.04082,-0.00804,0.0009270289447158575,0.000999892596155405,0.0008846033597365022,0.0004495485045481473,0.0005001203389838338,0.0005064711440354586,0.011400585062801838,0.011200910434126854,0.011713732965290546,passive,0
3.581,rehab,large_slow,-42.01813472090493,-666.6297657827721,338.48407613374064,-177.3897406355752,0.13374161751083136,-149.98876571396679,11.7051,-0.0301,-2.7926,21.1348,0.0036,-1.7285,73.81927339157255,26.042954850905012,79.1073479982886,-16.894726223415798,-88.77992418077257,-46.16667005750868,1.0339181730062654,-0.0,0.5336799243889233,-0.5766381157769097,-0.0,1.0177951388888888,-0.2181,-1.2067,0.9211,0.00318,-0.03293,-0.00802,0.0009270289447158575,0.000999892596155405,0.0008846033597365022,0.0004495485045481473,0.0005001203389838338,0.0005064711440354586,0.011400585062801838,0.011200910434126854,0.011713732965290546,passive,0
3.6007,rehab,large_slow,-41.81846511207496,-666.6302966579428,338.43474134114007,-177.3895974608547,0.13350191401988035,-149.9882616331767,12.2824,-0.0124,-2.8384,27.0096,-0.0511,0.5411,73.83624237362702,26.042961649375385,79.11581209390471,-16.904034084743923,-88.78044976128471,-46.150309244791664,1.0339181730062654,-0.0,0.49180134688273514,-0.5972205268012153,-0.06785074869791667,1.0856458875868056,-0.0443,-1.1903,1.4313,0.00882,-0.03138,-0.01212,0.0009270289447158575,0.000999892596155405,0.0008846033597365022,0.0004495485045481473,0.0005001203389838338,0.0005064711440354586,0.011400585062801838,0.011200910434126854,0.011713732965290546,passive,0
