t,trajectory_type,trajectory_variant,x,y,z,rx,ry,rz,vx,vy,vz,ax,ay,az,j1,j2,j3,j4,j5,j6,dj1,dj2,dj3,dj4,dj5,dj6,fx,fy,fz,tx,ty,tz,Mx,My,Mz,Bx,By,Bz,Kx,Ky,Kz,mode,comfort
0.0008,rehab,small_fast,80.22336402378967,-666.6347100022771,262.4751955106724,-177.6519263632555,0.29203325202856983,-149.85173259801178,0.6389,0.1339,-0.6731,-23.6708,-4.1658,32.7257,84.42856514807976,30.063835370658648,85.69199968092512,-27.52301534016927,-89.1131591796875,-35.816684299045136,-0.0,-0.05441495687654703,0.004446199624845297,0.0003306070963541667,-0.0,-0.0,-1.1643,-2.1406,-0.6502,0.01907,0.00463,0.00734,0.0009044685866683722,0.0010022870264947414,0.0009730266174301505,0.0004208328318782151,0.0005016982322558761,0.0005914793582633138,0.011742024682462215,0.008622992783784866,0.008466513827443123,passive,1
0.0209,rehab,small_fast,80.22314601013109,-666.6346991974602,262.4754292468025,-177.65190488532224,0.29202856014348827,-149.85176110634688,0.4068,0.0842,-0.4032,-21.8353,-3.7322,27.6498,84.42854475266863,30.063814975247524,85.69199968092512,-27.52301534016927,-89.11315070258246,-35.8166758219401,-0.0,-0.05441495687654703,0.01991951819693688,0.032738579644097224,-0.0,-0.0,-1.0879,-2.0965,0.6643,0.0043,-0.00845,-0.00134,0.0009044685866683722,0.0010022870264947414,0.0009730266174301505,0.0004208328318782151,0.0005016982322558761,0.0005914793582633138,0.011742024682462215,0.008622992783784866,0.008466513827443123,passive,1
0.0409,rehab,small_fast,80.22307541534204,-666.6346145755048,262.4760691489949,-177.65185390076064,0.29199219042151825,-149.85177625859734,-0.0426,-0.0024,0.1009,-18.6438,-2.8521,18.8519,84.42853795419825,30.06376058748453,85.69199968092512,-27.523023817274304,-89.11315070258246,-35.81666734483507,0.05441495687654703,-0.0,-0.015242170579362623,0.0228118896484375,-0.0,-0.0,-0.9205,-2.1001,-0.4968,0.02762,-0.01484,0.00576,0.0009044685866683722,0.0010022870264947414,0.0009730266174301505,0.0004208328318782151,0.0005016982322558761,0.0005914793582633138,0.011742024682462215,0.008622992783784866,0.008466513827443123,passive,1
0.061,rehab,small_fast,80.2228216748266,-666.6344872746947,262.47671600359797,-177.6518196789517,0.2919466864889096,-149.85179702767266,-0.4651,-0.064,0.5376,-16.4774,-1.9558,12.7839,84.42851755878714,30.06369940125116,85.6920064793955,-27.523023817274304,-89.11316765679253,-35.81666734483507,-0.0,-0.05441495687654703,0.00025834187422648513,0.002856784396701389,-0.06785074869791667,-0.0,-1.1267,-2.0825,0.0134,0.01576,-0.01291,0.00652,0.0009044685866683722,0.0010022870264947414,0.0009730266174301505,0.0004208328318782151,0.0005016982322558761,0.0005914793582633138,0.011742024682462215,0.008622992783784866,0.008466513827443123,passive,1
0.0812,rehab,small_fast,80.2191924218816,-666.6343157741792,262.48173285216086,-177.65144677705226,0.29169991178365146,-149.85212287765418,-0.8793,-0.1023,0.9253,-15.7194,-1.07,9.7353,84.42819803067954,30.063291493028697,85.69195889010288,-27.52301534016927,-89.11315070258246,-35.816658867730034,-0.05441495687654703,-0.0,-0.019205678807626855,-0.03067864312065972,-0.0,-0.0,-1.1368,-1.8631,0.2368,0.02699,-0.00405,0.00448,0.0009044685866683722,0.0010022870264947414,0.0009730266174301505,0.0004208328318782151,0.0005016982322558761,0.0005914793582633138,0.011742024682462215,0.008622992783784866,0.008466513827443123,passive,1
0.1008,rehab,small_fast,80.20525370546024,-666.6346586289377,262.49665729026026,-177.65039632547365,0.29095591920855746,-149.85331869291585,-1.1449,-0.0962,1.0735,-14.7184,-0.1865,8.6896,84.42745699740873,30.06253686281714,85.69182971916577,-27.522930569118923,-89.11315070258246,-35.81666734483507,-0.10882991375309406,-0.10882991375309406,0.01613956866878094,0.024049546983506944,-0.06785074869791667,0.06785074869791667,-1.246,-1.7878,0.3095,0.01321,-0.00653,0.00818,0.0009044685866683722,0.0010022870264947414,0.0009730266174301505,0.0004208328318782151,0.0005016982322558761,0.0005914793582633138,0.011742024682462215,0.008622992783784866,0.008466513827443123,passive,1
0.1212,rehab,small_fast,80.17127842775824,-666.6383068441213,262.5306823284302,-177.648066699853,0.2892822536650668,-149.8561167052981,-1.4711,-0.0674,1.217,-15.2633,1.0943,11.0288,84.4240645606919,30.05985146701926,85.69051761438351,-27.522286309136284,-89.11314222547743,-35.81677754720052,-0.2176666259765625,-0.16324487062964108,-0.08606863493966584,0.07139417860243055,-0.0,-0.0,-1.2718,-1.8869,0.0187,0.01051,-0.0027,0.00418,0.0009044685866683722,0.0010022870264947414,0.0009730266174301505,0.0004208328318782151,0.0005016982322558761,0.0005914793582633138,0.011742024682462215,0.008622992783784866,0.008466513827443123,passive,1
0.1409,rehab,small_fast,80.11822619948668,-666.6441644698481,262.5802183645764,-177.6458174862183,0.28764107612737244,-149.8595691185796,-1.8175,-0.0587,1.4196,-19.4673,2.1811,18.6103,84.41949598860032,30.056662984413677,85.68803617269685,-27.51937018500434,-89.11314222547743,-35.81785413953993,-0.16324487062964108,-0.10882991375309406,-0.10620570418858293,0.1762813991970486,-0.0,-0.13570149739583334,-1.2995,-1.9527,-0.7928,0.01681,-0.00497,0.01166,0.0009044685866683722,0.0010022870264947414,0.0009730266174301505,0.0004208328318782151,0.0005016982322558761,0.0005914793582633138,0.011742024682462215,0.008622992783784866,0.008466513827443123,passive,1
0.1608,rehab,small_fast,80.0836880860789,-666.6447025688005,262.60831226296034,-177.64572241040182,0.2874925560310639,-149.86028163663215,-2.1446,-0.0388,1.7137,-26.946,2.4702,31.3987,84.41649106469485,30.054582652479116,85.6865405092145,-27.515894571940102,-89.11315070258246,-35.820109049479164,-0.16324487062964108,-0.10882991375309406,-0.07988202689897896,0.2727593315972222,-0.06785074869791667,-0.20355224609375,-1.3252,-1.8093,-0.6188,0.02921,-0.00202,0.01381,0.0009044685866683722,0.0010022870264947414,0.0009730266174301505,0.0004208328318782151,0.0005016982322558761,0.0005914793582633138,0.011742024682462215,0.008622992783784866,0.008466513827443123,passive,1
0.1808,rehab,small_fast,80.03474704162949,-666.6403833447142,262.63782243713723,-177.64834492412092,0.2892461413503537,-149.85907819568698,-2.5203,0.0231,2.2416,-36.5574,2.2197,46.2958,84.41217403600712,30.051924450562733,85.6844941696318,-27.50788370768229,-89.11311679416232,-35.82555135091146,-0.2176666259765625,-0.10882991375309406,-0.11920437954439975,0.4032050238715278,-0.0,-0.339262220594618,-1.2334,-1.8947,-0.1526,0.0207,-0.01825,0.01165,0.0009044685866683722,0.0010022870264947414,0.0009730266174301505,0.0004208328318782151,0.0005016982322558761,0.0005914793582633138,0.011742024682462215,0.008622992783784866,0.008466513827443123,passive,1
0.2014,rehab,small_fast,79.9962839597521,-666.6381031412703,262.6681169404198,-177.65041896548016,0.2906695497064058,-149.85754706395267,-3.4469,0.1165,3.4822,-49.3602,1.8016,62.9102,84.4087815992903,30.04956538134282,85.6820535187674,-27.50043233235677,-89.11304897732205,-35.83040025499132,-0.2720815828531095,-0.2176666259765625,-0.19039116283454516,0.5120340983072916,-0.0,-0.2714114718967014,-1.22,-1.799,0.1646,0.03063,-0.01407,0.00459,0.0009044685866683722,0.0010022870264947414,0.0009730266174301505,0.0004208328318782151,0.0005016982322558761,0.0005914793582633138,0.011742024682462215,0.008622992783784866,0.008466513827443123,passive,1
0.221,rehab,small_fast,79.90722907826236,-666.6378437147439,262.75789348900224,-177.65221247267309,0.29190321197836294,-149.8555332219022,-4.8747,0.1682,5.2791,-63.3595,1.3842,77.5009,84.40097015683014,30.043242803894646,85.6757105459081,-27.48531765407986,-89.11285400390625,-35.840064154730904,-0.3809114966062036,-0.2720815828531095,-0.35014161969175434,0.7489267985026041,-0.0,-0.4071129692925347,-0.94,-1.886,0.4314,0.05652,-0.01813,0.00537,0.0009044685866683722,0.0010022870264947414,0.0009730266174301505,0.0004208328318782151,0.0005016982322558761,0.0005914793582633138,0.011742024682462215,0.008622992783784866,0.008466513827443123,passive,1
0.2411,rehab,small_fast,79.82671293260267,-666.6375616837823,262.849543984552,-177.65260493787153,0.29222196459558664,-149.8540912930331,-6.1845,0.146,6.9435,-78.8576,0.6462,89.7209,84.39389974764077,30.03677745856861,85.66990465220839,-27.472305297851562,-89.11261664496527,-35.84843105740017,-0.435333251953125,-0.435333251953125,-0.35685850842164296,0.9039730495876735,0.06785074869791667,-0.6106736924913194,-1.2279,-1.9347,0.5341,0.0214,-0.01524,0.00726,0.0009044685866683722,0.0010022870264947414,0.0009730266174301505,0.0004208328318782151,0.0005016982322558761,0.0005914793582633138,0.011742024682462215,0.008622992783784866,0.008466513827443123,passive,1
0.2609,rehab,small_fast,79.67124609761902,-666.6314047056438,263.0342039056214,-177.65254207526542,0.29226930413778623,-149.85185627660059,-7.9103,0.1196,8.8735,-92.5155,-0.5143,96.5274,84.3802008298364,30.023071742293858,85.65973414052831,-27.448009914822048,-89.11215040418837,-35.86408827039931,-0.7074148348062346,-0.6529998779296875,-0.4871511931466584,1.1231486002604167,-0.0,-0.7463751898871528,-1.304,-1.8626,0.3163,0.02526,-0.00036,0.00937,0.0009044685866683722,0.0010022870264947414,0.0009730266174301505,0.0004208328318782151,0.0005016982322558761,0.0005914793582633138,0.011742024682462215,0.008622992783784866,0.008466513827443123,passive,1
0.2809,rehab,small_fast,79.495737513744,-666.6256319625345,263.23742909918536,-177.65171415777334,0.29172986884756597,-149.8505419775628,-9.6717,0.1112,10.594,-96.7296,-1.6819,91.7236,84.36476150361618,30.007972339592357,85.64893137110342,-27.42262946234809,-89.1116926405165,-35.88055080837673,-0.87066650390625,-0.8162515470297029,-0.59600830078125,1.4560275607638888,0.06785074869791667,-0.9499359130859375,-1.3007,-1.7532,-0.1769,0.04147,0.00876,0.01299,0.0009044685866683722,0.0010022870264947414,0.0009730266174301505,0.0004208328318782151,0.0005016982322558761,0.0005914793582633138,0.011742024682462215,0.008622992783784866,0.008466513827443123,passive,1
0.3013,rehab,small_fast,79.21941340518215,-666.624954989007,263.5339423635186,-177.65047939755033,0.290869859359249,-149.85012138823743,-11.9172,0.0924,12.6015,-105.7606,-2.2642,91.6838,84.34054535214264,29.986625142616802,85.6320575676342,-27.385228474934895,-89.11106533474393,-35.904761420355904,-1.0339181730062654,-0.979496417659344,-0.8190457183535736,1.7287868923611112,0.06785074869791667,-1.0856458875868056,-1.1695,-1.9379,0.3379,0.02711,0.00078,0.00575,0.0009044685866683722,0.0010022870264947414,0.0009730266174301505,0.0004208328318782151,0.0005016982322558761,0.0005914793582633138,0.011742024682462215,0.008622992783784866,0.008466513827443123,passive,1
0.3211,rehab,small_fast,79.00326510037634,-666.6277481863021,263.7573609262075,-177.65004255753598,0.29057163736261815,-149.8498086151312,-14.2847,0.0576,14.6457,-124.8129,-2.116,104.3705,84.3216320075611,29.970913877581605,85.61849461923731,-27.355948554144966,-89.11058213975694,-35.923656887478295,-1.251584798982828,-1.0339181730062654,-0.8856503326113861,1.9738430447048612,0.06785074869791667,-1.2892066107855902,-1.2986,-2.02,-0.3491,0.02812,-0.00597,0.01238,0.0009044685866683722,0.0010022870264947414,0.0009730266174301505,0.0004208328318782151,0.0005016982322558761,0.0005914793582633138,0.011742024682462215,0.008622992783784866,0.008466513827443123,passive,1
0.341,rehab,small_fast,78.7523331132518,-666.6268783352772,264.0043902977022,-177.65037185610237,0.29084874292300916,-149.84993601490325,-16.7936,-0.0074,16.637,-138.4775,-1.7428,116.3114,84.29963895589998,29.95299990814511,85.60402067581026,-27.322523328993054,-89.11001417371962,-35.94514634874132,-1.4148296696124691,-1.1971630436359066,-0.9499842577641553,2.13088141547309,-0.0,-1.4249081081814237,-1.2042,-1.9559,0.3131,0.02167,-0.00367,0.00488,0.0009044685866683722,0.0010022870264947414,0.0009730266174301505,0.0004208328318782151,0.0005016982322558761,0.0005914793582633138,0.011742024682462215,0.008622992783784866,0.008466513827443123,passive,1
0.3608,rehab,small_fast,78.31896550665776,-666.6227475352905,264.4237459782257,-177.6517359407436,0.2918492816703746,-149.84950862649427,-19.0255,-0.0684,18.3092,-143.4104,-1.298,124.2084,84.26163550650719,29.922311612875156,85.57954618246248,-27.264599270290798,-89.10905626085069,-35.98292880588107,-1.795747964689047,-1.305999755859375,-1.166726291769802,2.6839192708333335,0.06785074869791667,-1.7641703287760415,-1.3313,-2.0859,0.179,0.02335,0.00249,0.00499,0.0009044685866683722,0.0010022870264947414,0.0009730266174301505,0.0004208328318782151,0.0005016982322558761,0.0005914793582633138,0.011742024682462215,0.008622992783784866,0.008466513827443123,passive,1
0.3808,rehab,small_fast,77.98119804987691,-666.6272035565001,264.74989024783724,-177.65185559571393,0.2919535762221917,-149.85012824982834,-21.6795,-0.0884,20.5441,-141.4766,-0.506,127.5988,84.23208935426013,29.89932598453937,85.55949069485806,-27.220594618055554,-89.10833570692274,-36.011361016167534,-2.0134145906656093,-1.5236663818359375,-1.3303994660330292,2.8556399875217013,0.06785074869791667,-1.8998803032769096,-1.2781,-2.1372,0.5901,0.0186,-0.01573,0.00079,0.0009044685866683722,0.0010022870264947414,0.0009730266174301505,0.0004208328318782151,0.0005016982322558761,0.0005914793582633138,0.011742024682462215,0.008622992783784866,0.008466513827443123,passive,1
0.401,rehab,small_fast,77.41439991149026,-666.6279977347391,265.29609027678083,-177.65232870639835,0.292313068472079,-149.85030883574802,-26.0834,-0.0692,24.6902,-139.6096,0.3993,130.0502,84.1824469235864,29.860132802831064,85.52693961870553,-27.14687771267361,-89.1071065266927,-36.05999416775173,-2.2310880151125465,-1.686918050935953,-1.3747662836962407,3.254241943359375,0.06785074869791667,-2.171291775173611,-1.0724,-2.0174,1.1724,0.03425,-0.01988,0.0005,0.0009044685866683722,0.0010022870264947414,0.0009730266174301505,0.0004208328318782151,0.0005016982322558761,0.0005914793582633138,0.011742024682462215,0.008622992783784866,0.008466513827443123,passive,1
0.4209,rehab,small_fast,76.9879069560863,-666.6300678975017,265.6958444721071,-177.65278173899625,0.2926483958281771,-149.85070409095795,-28.8322,-0.0384,27.4413,-136.8412,1.1423,130.0255,84.1451097242903,29.831565630317915,85.50287303358022,-27.09264967176649,-89.10619099934895,-36.09632703993056,-2.448754641089109,-1.8501697200359684,-1.5728941058168318,3.524966769748264,0.06785074869791667,-2.4427032470703125,-1.2458,-2.1066,0.4221,0.01833,-0.0068,0.00536,0.0009044685866683722,0.0010022870264947414,0.0009730266174301505,0.0004208328318782151,0.0005016982322558761,0.0005914793582633138,0.011742024682462215,0.008622992783784866,0.008466513827443123,passive,1
0.4409,rehab,small_fast,76.28190664269863,-666.6329438020505,266.3480818011787,-177.65342046708383,0.29312151034004225,-149.85083528072641,-30.6365,-0.0146,29.3308,-124.6899,1.5543,119.0355,84.08329803164642,29.78490092966816,85.46374103810527,-27.004335191514755,-89.10465664333768,-36.15701463487413,-2.61199951171875,-2.122251302889078,-1.7066812043142792,3.871053059895833,0.06785074869791667,-2.6462639702690973,-1.3512,-2.164,0.2322,0.02991,-0.01522,0.00516,0.0009044685866683722,0.0010022870264947414,0.0009730266174301505,0.0004208328318782151,0.0005016982322558761,0.0005914793582633138,0.011742024682462215,0.008622992783784866,0.008466513827443123,passive,1
0.4611,rehab,small_fast,75.77408666513948,-666.6339750915193,266.832051591295,-177.65264826720122,0.2925427282514719,-149.85036181341,-32.8118,0.03,31.4766,-111.7819,1.4217,104.1623,84.0388292369276,29.75034430475518,85.4351806640625,-26.940926445855034,-89.10355461968315,-36.20123969184028,-2.884087893042234,-2.067836346012531,-1.7994123402208384,4.030083550347222,0.13570149739583334,-2.714114718967014,-1.1622,-2.1231,0.5977,0.04624,-0.00325,0.00018,0.0009044685866683722,0.0010022870264947414,0.0009730266174301505,0.0004208328318782151,0.0005016982322558761,0.0005914793582633138,0.011742024682462215,0.008622992783784866,0.008466513827443123,passive,1
0.4811,rehab,small_fast,74.82363636405371,-666.6308724761122,267.7533249031847,-177.651262346965,0.2915492229302428,-149.84904542059496,-34.9928,0.0543,33.3696,-98.5224,0.8006,87.2863,83.95554117637106,29.68446712682743,85.38095606435644,-26.82016160753038,-89.10144382052951,-36.284476386176216,-3.1017545190187965,-2.503169597965656,-2.0084245134108136,4.5482126871744795,0.06785074869791667,-3.2569376627604165,-1.228,-2.0659,0.6172,0.04606,-0.01564,0.00678,0.0009044685866683722,0.0010022870264947414,0.0009730266174301505,0.0004208328318782151,0.0005016982322558761,0.0005914793582633138,0.011742024682462215,0.008622992783784866,0.008466513827443123,passive,1
0.5012,rehab,small_fast,74.24399233736902,-666.6255169803486,268.3233928510624,-177.65008596840815,0.2907159458391262,-149.8478344333878,-37.4621,0.0518,35.4111,-93.1882,0.0321,78.9034,83.9047090133818,29.643547133644027,85.3478203197517,-26.746088663736977,-89.10012986924913,-36.33567810058594,-3.2650061881188117,-2.557584554842203,-2.0474069425375157,4.745474921332465,0.06785074869791667,-3.392647637261285,-1.2685,-1.9654,0.567,0.03448,-0.01044,0.00904,0.0009044685866683722,0.0010022870264947414,0.0009730266174301505,0.0004208328318782151,0.0005016982322558761,0.0005914793582633138,0.011742024682462215,0.008622992783784866,0.008466513827443123,passive,1
0.5208,rehab,small_fast,73.63289561624322,-666.6242930103878,268.9084280946363,-177.64979440594067,0.29050354755361907,-149.8469914362817,-38.9406,0.0559,36.5879,-101.0482,-0.4679,85.9787,83.85116426071318,29.602124053652922,85.31246147533454,-26.668141682942707,-89.09878200954861,-36.3891855875651,-3.5370877709719215,-2.557584554842203,-2.322160324247757,5.0645701090494795,0.06785074869791667,-3.4604983859592013,-1.5158,-2.1107,-0.1159,0.02032,-0.00135,0.00979,0.0009044685866683722,0.0010022870264947414,0.0009730266174301505,0.0004208328318782151,0.0005016982322558761,0.0005914793582633138,0.011742024682462215,0.008622992783784866,0.008466513827443123,passive,1
0.5413,rehab,small_fast,72.66142343651008,-666.6266425442167,269.81772745537376,-177.6501266328121,0.2907689176359631,-149.84692875331567,-40.4662,0.046,37.8153,-102.8736,-0.6964,90.2349,83.76608820244817,29.5383883938931,85.25609535746055,-26.545223659939236,-89.09666273328993,-36.47293938530816,-3.754754396948484,-2.7208362239422184,-2.4440093087677908,5.311177571614583,0.06785074869791667,-3.7319098578559027,-1.2985,-2.0568,-0.2431,0.03495,-0.01843,0.00635,0.0009044685866683722,0.0010022870264947414,0.0009730266174301505,0.0004208328318782151,0.0005016982322558761,0.0005914793582633138,0.011742024682462215,0.008622992783784866,0.008466513827443123,passive,1
0.5613,rehab,small_fast,71.96799565905626,-666.6267484487258,270.436751177166,-177.65165573518456,0.2918914086299284,-149.84813750231046,-43.1809,0.0112,40.2402,-98.6222,-0.6573,90.9104,83.70535746659382,29.49476940797107,85.21751403808594,-26.459452311197914,-89.09519619411893,-36.53149922688802,-3.918006066048499,-2.7208362239422184,-2.4943519818900834,5.4806772867838545,0.13570149739583334,-3.799769083658854,-1.2434,-2.0392,0.6254,0.04182,-0.01813,0.00275,0.0009044685866683722,0.0010022870264947414,0.0009730266174301505,0.0004208328318782151,0.0005016982322558761,0.0005914793582633138,0.011742024682462215,0.008622992783784866,0.008466513827443123,passive,1
0.5808,rehab,small_fast,70.89577823729316,-666.6284613225197,271.41526422762587,-177.65310200460502,0.2928943934425526,-149.84924361110592,-44.4484,-0.0238,41.5001,-90.1892,-0.4917,88.4839,83.61147059072363,29.426594347056774,85.15574993473469,-26.32514105902778,-89.0929667154948,-36.622772216796875,-3.8635911091719524,-2.884087893042234,-2.628390623791383,5.701200697157118,0.06785074869791667,-3.799769083658854,-1.2491,-2.0929,0.9207,0.04639,-0.01951,0.00664,0.0009044685866683722,0.0010022870264947414,0.0009730266174301505,0.0004208328318782151,0.0005016982322558761,0.0005914793582633138,0.011742024682462215,0.008622992783784866,0.008466513827443123,passive,1
0.6012,rehab,small_fast,70.16502362668928,-666.6261803300675,272.1084089838737,-177.65292817285084,0.2927571139123608,-149.84969382576423,-46.854,-0.0242,43.958,-78.4988,-0.5067,82.5727,83.5474425967377,29.37837279669129,85.112464073861,-26.23206244574653,-89.09141540527344,-36.68529934353298,-4.026835979801594,-3.1561694758953434,-2.706348683574412,5.892834133572048,0.13570149739583334,-4.0033213297526045,-1.4864,-2.4905,0.2565,0.01607,-0.01646,0.00898,0.0009044685866683722,0.0010022870264947414,0.0009730266174301505,0.0004208328318782151,0.0005016982322558761,0.0005914793582633138,0.011742024682462215,0.008622992783784866,0.008466513827443123,passive,1
0.6208,rehab,small_fast,69.03047868849215,-666.6254710871073,273.19488729706984,-177.65101520588257,0.29132901228171043,-149.8512095551031,-49.1363,-0.0025,46.3146,-64.1741,-0.4909,72.4894,83.44806935527536,29.30352843633973,85.04420063283183,-26.088578965928818,-89.08902486165364,-36.781531439887154,-4.135672692025062,-3.2650061881188117,-2.786502649288366,5.899471706814236,0.13570149739583334,-4.0033213297526045,-1.4979,-2.1903,0.5972,0.02355,-0.02158,0.0092,0.0009044685866683722,0.0010022870264947414,0.0009730266174301505,0.0004208328318782151,0.0005016982322558761,0.0005914793582633138,0.011742024682462215,0.008622992783784866,0.008466513827443123,passive,1
0.641,rehab,small_fast,68.26539669163347,-666.6253367182762,273.9327952302768,-177.65025708292234,0.2907962449974781,-149.85160967284935,-48.9777,0.0046,46.3972,-40.9625,-0.2416,51.4161,83.38105003432472,29.253192561687808,84.99679489891128,-25.989880032009548,-89.08737182617188,-36.84703403049045,-4.081257735148514,-2.938502849918781,-2.9536362449721536,6.262902153862847,0.06785074869791667,-4.139031304253472,-1.5156,-2.1395,-0.2964,0.02136,-0.01631,0.01602,0.0009044685866683722,0.0010022870264947414,0.0009730266174301505,0.0004208328318782151,0.0005016982322558761,0.0005914793582633138,0.011742024682462215,0.008622992783784866,0.008466513827443123,passive,1
0.6611,rehab,small_fast,67.10497293040889,-666.628389676159,275.03540340511313,-177.65083902661544,0.291178184269093,-149.85110178392875,-49.8999,-0.0102,47.5642,-23.1408,-0.1118,33.1035,83.27944009610923,29.1788648850847,84.92376573014967,-25.838936699761284,-89.08492194281683,-36.94745381673177,-4.190087648901609,-3.2105844327718907,-3.0778239033009744,6.374147203233507,0.06785074869791667,-4.206882052951388,-1.4277,-2.0264,0.3716,0.03384,-0.01822,0.01305,0.0009044685866683722,0.0010022870264947414,0.0009730266174301505,0.0004208328318782151,0.0005016982322558761,0.0005914793582633138,0.011742024682462215,0.008622992783784866,0.008466513827443123,passive,1
0.6808,rehab,small_fast,66.32427559674392,-666.6278560824289,275.7692876169238,-177.65242592818058,0.29238655479217396,-149.8510430772959,-50.0069,-0.0428,47.9364,-6.9996,-0.3211,15.784,83.22817962948639,29.14170444601833,84.88659849261293,-25.76216803656684,-89.08367580837674,-36.99780782063802,-4.462176030225093,-3.047339562142249,-3.0506776110960705,6.377156575520833,0.06785074869791667,-4.206882052951388,-1.7189,-1.9685,0.8341,0.01996,-0.00708,0.01229,0.0009044685866683722,0.0010022870264947414,0.0009730266174301505,0.0004208328318782151,0.0005016982322558761,0.0005914793582633138,0.011742024682462215,0.008622992783784866,0.008466513827443123,passive,1
0.701,rehab,small_fast,64.93059486997058,-666.6282383746807,277.07842924458737,-177.65484583840393,0.2942355065180379,-149.8520986611736,-49.8755,-0.0588,47.9954,12.2202,-0.5623,-3.128,83.08898094857093,29.042038870329904,84.78576358002012,-25.553690592447914,-89.08029344346788,-37.13371276855469,-4.353339318001624,-3.2105844327718907,-3.3101548298750774,6.670006646050347,0.06785074869791667,-4.274732801649305,-1.6365,-2.0061,0.0515,0.03216,-0.00695,0.02022,0.0009044685866683722,0.0010022870264947414,0.0009730266174301505,0.0004208328318782151,0.0005016982322558761,0.0005914793582633138,0.011742024682462215,0.008622992783784866,0.008466513827443123,passive,1
0.7208,rehab,small_fast,64.12596199806545,-666.627465727945,277.85393887931934,-177.65460261519814,0.29405789817399314,-149.8525795517584,-49.9542,-0.042,48.1034,15.7985,-0.3995,-6.6662,83.01850120619972,28.990554054184717,84.73351733519299,-25.44826931423611,-89.07859802246094,-37.20252143012153,-4.353339318001624,-3.2650061881188117,-3.2839195327003403,6.510399712456597,0.13570149739583334,-4.47829352484809,-1.636,-1.9644,0.3093,0.03731,-0.01303,0.0185,0.0009044685866683722,0.0010022870264947414,0.0009730266174301505,0.0004208328318782151,0.0005016982322558761,0.0005914793582633138,0.011742024682462215,0.008622992783784866,0.008466513827443123,passive,1
0.7409,rehab,small_fast,63.313957552098735,-666.6301754505815,278.6546442654874,-177.6523707616417,0.2923457621532096,-149.8533607076795,-49.4472,-0.0331,47.5718,10.9154,0.1363,-5.9325,82.94742319843557,28.938090258305614,84.67940151101291,-25.34250047471788,-89.07691955566406,-37.271618313259545,-4.4077542748781715,-3.373836101871906,-3.4010639757213026,6.546842787000868,0.13570149739583334,-4.342592027452257,-1.6578,-1.9118,0.0523,0.03577,-0.01355,0.02053,0.0009044685866683722,0.0010022870264947414,0.0009730266174301505,0.0004208328318782151,0.0005016982322558761,0.0005914793582633138,0.011742024682462215,0.008622992783784866,0.008466513827443123,passive,1
0.761,rehab,small_fast,62.11083622481711,-666.6320888284881,279.8478238094482,-177.64987356534658,0.29042385599103454,-149.8535285057292,-49.5077,-0.0489,47.7188,3.1943,0.6716,-6.5745,82.84208089998452,28.860383741926437,84.59766350170173,-25.183207194010414,-89.07440185546875,-37.37498813205295,-4.462176030225093,-3.2105844327718907,-3.3336299480778155,6.500795152452257,0.06785074869791667,-4.342592027452257,-1.7525,-1.7284,0.3451,0.02144,-0.00796,0.0135,0.0009044685866683722,0.0010022870264947414,0.0009730266174301505,0.0004208328318782151,0.0005016982322558761,0.0005914793582633138,0.011742024682462215,0.008622992783784866,0.008466513827443123,passive,1
0.7808,rehab,small_fast,61.309337749652826,-666.6336144722146,280.6187378892734,-177.64993394687252,0.29056974480587144,-149.85363150842403,-48.6944,-0.0553,47.0539,-7.4656,0.795,-5.2035,82.78948793316832,28.823134922745204,84.55710382744817,-25.10358174641927,-89.07308790418837,-37.42659674750434,-4.353339318001624,-3.1017545190187965,-3.345214541595761,6.73736572265625,0.13570149739583334,-4.206882052951388,-1.8134,-1.6908,0.1539,0.03356,-0.0108,0.02395,0.0009044685866683722,0.0010022870264947414,0.0009730266174301505,0.0004208328318782151,0.0005016982322558761,0.0005914793582633138,0.011742024682462215,0.008622992783784866,0.008466513827443123,passive,1
0.8011,rehab,small_fast,60.10776066991387,-666.6306371502299,281.7412630590092,-177.6522489001503,0.29230302084001863,-149.85328120502686,-48.5369,-0.0263,46.8519,-13.3882,0.5058,-8.7411,82.66663957350325,28.737671351668858,84.46412114813776,-24.918899536132812,-89.07010396321614,-37.54770067003038,-4.571005943978187,-2.938502849918781,-3.243754169728496,6.633648342556423,0.13570149739583334,-4.410442776150173,-1.9871,-1.8265,-0.0238,0.01462,-0.00932,0.02992,0.0009044685866683722,0.0010022870264947414,0.0009730266174301505,0.0004208328318782151,0.0005016982322558761,0.0005914793582633138,0.011742024682462215,0.008622992783784866,0.008466513827443123,passive,1
0.821,rehab,small_fast,59.30137259469459,-666.6325566203133,282.4864251734449,-177.65335980668846,0.29311421208232014,-149.85339498915482,-49.9905,0.0119,47.5953,-17.12,0.2526,-15.3171,82.59605785407642,28.689993678933323,84.4105356046469,-24.81424119737413,-89.06843397352431,-37.6169925265842,-4.462176030225093,-3.047339562142249,-3.322201719378481,6.592924329969618,0.13570149739583334,-4.342592027452257,-2.014,-2.043,0.2083,0.00517,-0.02136,0.02185,0.0009044685866683722,0.0010022870264947414,0.0009730266174301505,0.0004208328318782151,0.0005016982322558761,0.0005914793582633138,0.011742024682462215,0.008622992783784866,0.008466513827443123,passive,1
0.8412,rehab,small_fast,58.1144547491302,-666.6343126201731,283.6277014482675,-177.65167684730994,0.2918378056796636,-149.8523080204705,-50.7693,0.0318,47.1068,-16.7372,0.1864,-28.2288,82.49215003287438,28.61741320921643,84.32936186837678,-24.65958489312066,-89.06588236490886,-37.720235188802086,-4.298924361125077,-3.1017545190187965,-3.3573838035659036,6.314739651150173,0.06785074869791667,-4.342592027452257,-1.8516,-1.991,0.7281,0.02301,-0.01125,0.02589,0.0009044685866683722,0.0010022870264947414,0.0009730266174301505,0.0004208328318782151,0.0005016982322558761,0.0005914793582633138,0.011742024682462215,0.008622992783784866,0.008466513827443123,passive,1
0.8612,rehab,small_fast,57.335117266142866,-666.6343039191072,284.3818644306101,-177.649992295889,0.290585380009801,-149.85079441506377,-51.0039,0.0159,46.336,-13.1681,0.0136,-44.5854,82.42390698725634,28.56961996248453,84.27573553406366,-24.558258056640625,-89.06415303548177,-37.78884039984809,-4.4077542748781715,-3.047339562142249,-3.269595155621519,6.132558186848958,0.13570149739583334,-4.342592027452257,-1.9561,-1.814,-0.2424,0.03102,-0.0145,0.03397,0.0009044685866683722,0.0010022870264947414,0.0009730266174301505,0.0004208328318782151,0.0005016982322558761,0.0005914793582633138,0.011742024682462215,0.008622992783784866,0.008466513827443123,passive,1
0.881,rehab,small_fast,56.15719552984572,-666.6306821941166,285.46873091826325,-177.6495422812756,0.2901851171344103,-149.84876069584266,-50.7139,-0.018,45.0418,-1.7408,-0.3068,-63.4076,82.32074699779548,28.50045912336595,84.19803581615486,-24.40896775987413,-89.06162685818143,-37.892345852322045,-4.298924361125077,-2.8296661376953125,-3.2194088473178373,6.1958058675130205,0.06785074869791667,-4.274732801649305,-2.0394,-1.9031,0.3175,0.01789,-0.02044,0.02907,0.0009044685866683722,0.0010022870264947414,0.0009730266174301505,0.0004208328318782151,0.0005016982322558761,0.0005914793582633138,0.011742024682462215,0.008622992783784866,0.008466513827443123,passive,1
0.901,rehab,small_fast,55.351504291580284,-666.6295316807717,286.14801984922,-177.65121881474073,0.29142093773545313,-149.84938503598164,-50.3923,-0.0314,43.5301,18.622,-0.3237,-85.8028,82.25022646460202,28.45722765025526,84.14858374265161,-24.312184651692707,-89.05996534559462,-37.961154513888886,-4.353339318001624,-2.7208362239422184,-3.018486853873376,5.887858072916667,-0.0,-4.342592027452257,-1.9757,-1.7386,0.1118,0.03697,-0.02217,0.03377,0.0009044685866683722,0.0010022870264947414,0.0009730266174301505,0.0004208328318782151,0.0005016982322558761,0.0005914793582633138,0.011742024682462215,0.008622992783784866,0.008466513827443123,passive,1
0.9208,rehab,small_fast,53.944343618072175,-666.6313428274321,287.30346778076205,-177.65334226987952,0.29303324902346556,-149.84958246367356,-50.145,-0.0183,41.7375,30.4247,0.0647,-98.9379,82.12711296459236,28.38428006313815,84.06384760790532,-24.148279825846352,-89.05697292751736,-38.08222452799479,-4.4077542748781715,-2.503169597965656,-2.960332738290919,5.548909505208333,0.13570149739583334,-4.342592027452257,-1.9763,-1.74,-0.1434,0.03236,-0.01098,0.03564,0.0009044685866683722,0.0010022870264947414,0.0009730266174301505,0.0004208328318782151,0.0005016982322558761,0.0005914793582633138,0.011742024682462215,0.008622992783784866,0.008466513827443123,passive,1
0.9408,rehab,small_fast,53.13800716390564,-666.63407887023,287.94599274730564,-177.65351133505814,0.29325337501235205,-149.85082111545296,-49.6457,-0.0068,39.6508,26.4095,0.4844,-99.8928,82.0565924313989,28.343876753703203,84.01692456538134,-24.05867682562934,-89.05519273546007,-38.15049065483941,-4.298924361125077,-2.503169597965656,-2.9447710396039604,5.485441419813368,0.06785074869791667,-4.206882052951388,-2.0915,-1.9148,-0.3625,0.02521,-0.0186,0.03206,0.0009044685866683722,0.0010022870264947414,0.0009730266174301505,0.0004208328318782151,0.0005016982322558761,0.0005914793582633138,0.011742024682462215,0.008622992783784866,0.008466513827443123,passive,1
0.9608,rehab,small_fast,52.34311234776785,-666.6362311360033,288.5858984060496,-177.65197278719324,0.292162781501551,-149.8504102730796,-49.2031,-0.0057,37.727,7.0502,0.597,-91.3767,81.9870644748801,28.30363660755724,83.97098050259127,-23.97234598795573,-89.05336168077257,-38.21944342719184,-4.4077542748781715,-2.448754641089109,-2.819672386244972,5.1982879638671875,0.13570149739583334,-4.206882052951388,-2.1222,-1.8804,-0.4078,0.01139,-0.01008,0.02621,0.0009044685866683722,0.0010022870264947414,0.0009730266174301505,0.0004208328318782151,0.0005016982322558761,0.0005914793582633138,0.011742024682462215,0.008622992783784866,0.008466513827443123,passive,1
0.9809,rehab,small_fast,51.15478844359813,-666.6356322708674,289.50606035292435,-177.64965399626834,0.2903386852741159,-149.84965489041778,-48.3294,0.0157,35.5459,-12.3152,0.2933,-79.7884,81.88311586285582,28.245251343982055,83.90583076099358,-23.84871588812934,-89.05073377821181,-38.32273695203993,-4.298924361125077,-2.2855029719890934,-2.5998098543374843,5.17274644639757,0.13570149739583334,-4.342592027452257,-2.2065,-1.8568,-0.1584,0.01888,-0.00697,0.03279,0.0009044685866683722,0.0010022870264947414,0.0009730266174301505,0.0004208328318782151,0.0005016982322558761,0.0005914793582633138,0.011742024682462215,0.008622992783784866,0.008466513827443123,passive,1
1.0013,rehab,small_fast,50.36045410321141,-666.6329823474471,290.08714051683194,-177.64895214769984,0.28971408488811845,-149.84896429216846,-48.5117,0.0477,33.9275,-21.9674,-0.1308,-69.9968,81.8136218986889,28.208043315623065,83.86487677545831,-23.769446478949654,-89.04901292588976,-38.392020331488716,-4.353339318001624,-2.2310880151125465,-2.478606724503017,4.809934828016493,0.13570149739583334,-4.410442776150173,-2.1769,-1.7952,-0.3903,0.02582,-0.01632,0.03341,0.0009044685866683722,0.0010022870264947414,0.0009730266174301505,0.0004208328318782151,0.0005016982322558761,0.0005914793582633138,0.011742024682462215,0.008622992783784866,0.008466513827443123,passive,1
1.021,rehab,small_fast,49.15707095067788,-666.62941117685,290.89982812942344,-177.64943779206592,0.29007062380373966,-149.84919342010937,-49.3454,0.038,32.794,-29.0069,-0.1151,-56.3255,81.70836118188235,28.15574268303295,83.80728693291692,-23.655887179904514,-89.04635959201389,-38.49576314290365,-4.4077542748781715,-2.067836346012531,-2.2792959685372836,4.5201873779296875,0.13570149739583334,-4.274732801649305,-2.1684,-1.7744,-0.728,0.02884,-0.00375,0.04031,0.0009044685866683722,0.0010022870264947414,0.0009730266174301505,0.0004208328318782151,0.0005016982322558761,0.0005914793582633138,0.011742024682462215,0.008622992783784866,0.008466513827443123,passive,1
1.0411,rehab,small_fast,48.35373246640098,-666.6291480170065,291.4127907042898,-177.65032912366357,0.2908054903110015,-149.84958066492845,-51.2463,0.0108,32.535,-28.4518,0.4808,-42.9572,81.63812618444462,28.122912869595066,83.77034404490253,-23.582916259765625,-89.0445539686415,-38.56478373209635,-4.190087648901609,-2.0134145906656093,-2.30449109974474,4.542083740234375,0.13570149739583334,-4.206882052951388,-2.318,-1.7242,-0.0725,0.01041,-0.00444,0.0331,0.0009044685866683722,0.0010022870264947414,0.0009730266174301505,0.0004208328318782151,0.0005016982322558761,0.0005914793582633138,0.011742024682462215,0.008622992783784866,0.008466513827443123,passive,1
1.0608,rehab,small_fast,47.13838293683305,-666.630475450966,292.15780019021844,-177.651317525496,0.2916464084163316,-149.85087660777643,-52.527,-0.0063,31.8513,-18.9096,1.1215,-34.1077,81.53191368178565,28.075323576974398,83.71666332282642,-23.477274576822918,-89.04182434082031,-38.66850111219618,-4.462176030225093,-1.8501697200359684,-2.2060900395459466,4.362538655598958,0.06785074869791667,-4.274732801649305,-2.0879,-1.6536,0.0545,0.03305,-0.02282,0.0343,0.0009044685866683722,0.0010022870264947414,0.0009730266174301505,0.0004208328318782151,0.0005016982322558761,0.0005914793582633138,0.011742024682462215,0.008622992783784866,0.008466513827443123,passive,1
1.0808,rehab,small_fast,46.32772585655153,-666.6297098464385,292.63478127310253,-177.65245725226433,0.2925250584084063,-149.8517420811334,-51.3791,0.0065,30.4895,-5.0383,1.5253,-27.2628,81.46106682201423,28.04466927405631,83.68235824131729,-23.408821953667534,-89.04005262586806,-38.737708197699654,-4.353339318001624,-1.9589996337890625,-2.183743467425356,4.303961859809028,0.06785074869791667,-4.206882052951388,-2.3207,-1.6688,-0.355,3e-05,-0.00778,0.03748,0.0009044685866683722,0.0010022870264947414,0.0009730266174301505,0.0004208328318782151,0.0005016982322558761,0.0005914793582633138,0.011742024682462215,0.008622992783784866,0.008466513827443123,passive,1
1.1011,rehab,small_fast,45.1047219043486,-666.6332423699787,293.3449671401299,-177.65309900810786,0.2930688244636746,-149.85342209411957,-51.0468,0.066,30.1521,11.0544,1.7527,-25.1444,81.35425605396233,27.999683795589032,83.63070346341274,-23.30824957953559,-89.0373314751519,-38.84169684516059,-4.4077542748781715,-1.8501697200359684,-2.1289817885597153,4.091356065538195,0.20355224609375,-4.274732801649305,-2.4528,-1.6812,-0.6554,-0.00253,-0.0061,0.04226,0.0009044685866683722,0.0010022870264947414,0.0009730266174301505,0.0004208328318782151,0.0005016982322558761,0.0005914793582633138,0.011742024682462215,0.008622992783784866,0.008466513827443123,passive,1
1.1209,rehab,small_fast,44.29683001039558,-666.6333259281597,293.82723378122233,-177.65213810071737,0.29230300687648586,-149.8542080199709,-50.822,0.1528,29.9362,26.8652,1.4379,-27.677,81.28368113300589,27.969056686552445,83.59642557578512,-23.242518107096355,-89.03553432888455,-38.91073438856337,-4.298924361125077,-1.9045846769125154,-2.133863090288521,4.067069159613715,0.06785074869791667,-4.410442776150173,-2.482,-1.6834,-0.4359,0.00385,-0.01651,0.04058,0.0009044685866683722,0.0010022870264947414,0.0009730266174301505,0.0004208328318782151,0.0005016982322558761,0.0005914793582633138,0.011742024682462215,0.008622992783784866,0.008466513827443123,passive,1
1.1409,rehab,small_fast,42.889221842513415,-666.6272769113954,294.6589817843709,-177.65071603009054,0.29111187268740213,-149.85497628936878,-49.6951,0.2015,29.1598,34.4762,0.3475,-28.4664,81.16065601311108,27.915804268109916,83.53790434280245,-23.128992716471355,-89.03242323133681,-39.03169420030382,-4.4077542748781715,-1.795747964689047,-2.114691403832766,4.0799713134765625,0.13570149739583334,-4.139031304253472,-2.543,-1.6146,-0.8502,0.00048,-0.00153,0.04812,0.0009044685866683722,0.0010022870264947414,0.0009730266174301505,0.0004208328318782151,0.0005016982322558761,0.0005914793582633138,0.011742024682462215,0.008622992783784866,0.008466513827443123,passive,1
1.1612,rehab,small_fast,42.10390651797608,-666.6213645654268,295.1285750914283,-177.64999034655096,0.2905500192197317,-149.85364360965332,-49.7056,0.1754,28.8836,22.8743,-1.2437,-21.745,81.09197786538908,27.885761827525524,83.50478219513846,-23.064676920572918,-89.03060065375433,-39.10096910264757,-4.298924361125077,-1.8501697200359684,-2.1006457640392946,3.99672614203559,0.13570149739583334,-4.274732801649305,-2.6624,-1.5041,-0.9312,-8e-05,1e-05,0.04772,0.0009044685866683722,0.0010022870264947414,0.0009730266174301505,0.0004208328318782151,0.0005016982322558761,0.0005914793582633138,0.011742024682462215,0.008622992783784866,0.008466513827443123,passive,1
1.1809,rehab,small_fast,41.322580021087994,-666.6139128307838,295.6000034494676,-177.64936485869336,0.29004261061472447,-149.85180423594164,-49.7155,0.1232,28.6279,8.3099,-2.6219,-13.953,81.02363284271543,27.855658200707765,83.47140850407062,-22.999928792317707,-89.02879503038194,-39.17041354709201,-4.135672692025062,-1.8501697200359684,-2.057033576587639,3.9881473117404513,0.13570149739583334,-4.342592027452257,-2.792,-1.5794,-0.5592,-0.01467,-0.00556,0.0517,0.0009044685866683722,0.0010022870264947414,0.0009730266174301505,0.0004208328318782151,0.0005016982322558761,0.0005914793582633138,0.011742024682462215,0.008622992783784866,0.008466513827443123,passive,1
1.2009,rehab,small_fast,40.123033446374585,-666.6108956399261,296.28068300583584,-177.6502549545908,0.2908627097705398,-149.85261885172173,-49.1307,0.0419,27.9769,-1.681,-3.0593,-4.362,80.91884122036471,27.813242544042,83.42068511660736,-22.902501424153645,-89.02605692545573,-39.27328321668837,-4.462176030225093,-1.7413330078125,-2.272708250744508,4.094475640190972,0.13570149739583334,-4.139031304253472,-2.7767,-1.5308,-0.7444,-0.0042,-0.01481,0.05381,0.0009044685866683722,0.0010022870264947414,0.0009730266174301505,0.0004208328318782151,0.0005016982322558761,0.0005914793582633138,0.011742024682462215,0.008622992783784866,0.008466513827443123,passive,1
1.2208,rehab,small_fast,39.30887591504791,-666.6122397923277,296.72624412019053,-177.65160024479928,0.29193625016933145,-149.8538856818198,-48.4729,-0.0467,27.4304,-12.5119,-2.1791,8.9112,80.84779040648205,27.786028267133354,83.38626446110187,-22.83707512749566,-89.0242936876085,-39.34232923719618,-4.625420900854734,-1.6325030940594059,-2.17935845403388,4.243570963541667,0.13570149739583334,-4.47829352484809,-2.9224,-1.5635,-0.5592,-0.02764,-0.00452,0.05684,0.0009044685866683722,0.0010022870264947414,0.0009730266174301505,0.0004208328318782151,0.0005016982322558761,0.0005914793582633138,0.011742024682462215,0.008622992783784866,0.008466513827443123,passive,1
1.2411,rehab,small_fast,38.09247370535906,-666.6206556750676,297.40233899127423,-177.6524881349427,0.29259374623148915,-149.85522480608947,-49.0769,-0.1058,27.8878,-11.7856,-0.4772,15.6176,80.74174786558245,27.74586290416151,83.33280129007774,-22.739232381184895,-89.02168273925781,-39.44592793782552,-4.298924361125077,-1.7413330078125,-2.227709175336479,3.9993709988064237,0.13570149739583334,-4.47829352484809,-2.8748,-1.4159,-0.6823,-0.00609,-0.01097,0.05547,0.0009044685866683722,0.0010022870264947414,0.0009730266174301505,0.0004208328318782151,0.0005016982322558761,0.0005914793582633138,0.011742024682462215,0.008622992783784866,0.008466513827443123,passive,1
1.2608,rehab,small_fast,37.292457447596504,-666.6240420838593,297.8541444759342,-177.65317809396728,0.2931481530981942,-149.85486258701349,-50.4995,-0.1078,29.0011,-5.4213,0.8556,15.1525,80.67197516413019,27.719076930886448,83.29694615732325,-22.673619588216145,-89.01991102430556,-39.515321519639755,-4.4077542748781715,-1.6325030940594059,-2.3149539456509127,4.230770534939236,0.06785074869791667,-4.410442776150173,-2.9544,-1.4876,-0.6653,-0.00489,-0.01177,0.05966,0.0009044685866683722,0.0010022870264947414,0.0009730266174301505,0.0004208328318782151,0.0005016982322558761,0.0005914793582633138,0.011742024682462215,0.008622992783784866,0.008466513827443123,passive,1
1.2811,rehab,small_fast,36.10851961670589,-666.6240476353846,298.5509518925262,-177.65263253625807,0.29281562373747166,-149.85372952963496,-50.5234,-0.0382,29.469,-6.7483,1.4441,14.3301,80.56864521290996,27.67753827689898,83.24278274385055,-22.57543775770399,-89.01717291937933,-39.61866590711806,-4.298924361125077,-1.795747964689047,-2.284299642732828,4.1920216878255205,0.13570149739583334,-4.206882052951388,-2.9689,-1.4608,-1.0509,-0.00645,-0.00363,0.05663,0.0009044685866683722,0.0010022870264947414,0.0009730266174301505,0.0004208328318782151,0.0005016982322558761,0.0005914793582633138,0.011742024682462215,0.008622992783784866,0.008466513827443123,passive,1
1.3012,rehab,small_fast,35.31956520850986,-666.6230400058095,299.01251173642964,-177.65249989676437,0.29267544536192525,-149.85271327917033,-50.414,0.0596,29.7795,-1.2133,1.3386,5.4002,80.4997971034286,27.6501200458791,83.20667606769221,-22.510019938151043,-89.01542663574219,-39.68778822157118,-4.190087648901609,-1.7413330078125,-2.264488900061881,3.9677853054470487,0.13570149739583334,-4.342592027452257,-2.9789,-1.2316,-1.0396,0.00727,-0.00533,0.06508,0.0009044685866683722,0.0010022870264947414,0.0009730266174301505,0.0004208328318782151,0.0005016982322558761,0.0005914793582633138,0.011742024682462215,0.008622992783784866,0.008466513827443123,passive,1
1.321,rehab,small_fast,34.141801323278536,-666.6194928864894,299.72343364017473,-177.65099154253215,0.2912949347129456,-149.85129315312034,-49.7241,0.113,29.4118,18.6435,0.502,-15.1575,80.3970178283087,27.60801032038018,83.15154727142637,-22.411710951063366,-89.01289198133681,-39.790869818793404,-4.244502605778156,-1.686918050935953,-2.2282122621441833,3.903800116644965,0.13570149739583334,-4.274732801649305,-3.1636,-1.2675,-1.1672,-0.02601,0.00682,0.06665,0.0009044685866683722,0.0010022870264947414,0.0009730266174301505,0.0004208328318782151,0.0005016982322558761,0.0005914793582633138,0.011742024682462215,0.008622992783784866,0.008466513827443123,passive,1
1.3411,rehab,small_fast,33.360809780825946,-666.6187969872581,300.1882752835988,-177.65012774347554,0.2905569565433574,-149.85011179040433,-48.5334,0.0826,28.4061,42.8296,-0.8485,-38.3767,80.32889035668704,27.580864028175277,83.11481513599358,-22.34689500596788,-89.01115417480469,-39.85944112141927,-4.081257735148514,-1.686918050935953,-2.307074518487005,4.089313083224826,0.13570149739583334,-4.206882052951388,-3.1068,-1.3082,-0.6257,-0.00601,-0.00538,0.06035,0.0009044685866683722,0.0010022870264947414,0.0009730266174301505,0.0004208328318782151,0.0005016982322558761,0.0005914793582633138,0.011742024682462215,0.008622992783784866,0.008466513827443123,passive,1
1.3614,rehab,small_fast,32.010666919558275,-666.6133368478877,300.97557377801604,-177.64990821002922,0.290422756346877,-149.84895009321383,-48.7122,-0.0041,27.9261,54.6892,-2.1352,-53.6296,80.21106606662863,27.534783995977723,83.0521808284344,-22.23487006293403,-89.00811089409721,-39.97715420193142,-4.135672692025062,-1.6325030940594059,-2.2759443226427134,3.904936048719618,0.13570149739583334,-4.342592027452257,-3.0678,-1.4412,-1.6166,-0.0082,-0.01501,0.05971,0.0009044685866683722,0.0010022870264947414,0.0009730266174301505,0.0004208328318782151,0.0005016982322558761,0.0005914793582633138,0.011742024682462215,0.008622992783784866,0.008466513827443123,passive,1
1.3808,rehab,small_fast,31.243698062508116,-666.6132566350504,301.4049889839861,-177.6503907789169,0.2908205535049885,-149.84937510552186,-48.1972,-0.0736,27.091,49.0013,-2.5712,-54.6488,80.14420311049659,27.510166734752087,83.01692396107286,-22.172376844618054,-89.00644090440538,-40.04288567437066,-4.190087648901609,-1.5780813387124846,-2.2368531179900217,3.893118964301215,0.06785074869791667,-4.071180555555555,-3.1772,-1.3784,-0.3213,-0.01668,-0.012,0.05965,0.0009044685866683722,0.0010022870264947414,0.0009730266174301505,0.0004208328318782151,0.0005016982322558761,0.0005914793582633138,0.011742024682462215,0.008622992783784866,0.008466513827443123,passive,1
1.4008,rehab,small_fast,30.48202999280401,-666.6170727927491,301.8188787654619,-177.65122007651183,0.2914322952182466,-149.85013938767221,-45.9299,-0.119,25.2377,45.9356,-1.8543,-51.8236,80.0778840319945,27.48703154006807,82.98184385394106,-22.111163669162327,-89.00485568576389,-40.10775248209635,-4.081257735148514,-1.360414712735922,-2.124460805760752,3.7626393636067705,0.06785074869791667,-3.9354705810546875,-3.2226,-1.4283,-0.9562,-0.01941,-0.00986,0.06376,0.0009044685866683722,0.0010022870264947414,0.0009730266174301505,0.0004208328318782151,0.0005016982322558761,0.0005914793582633138,0.011742024682462215,0.008622992783784866,0.008466513827443123,passive,1
1.4208,rehab,small_fast,29.362452277537166,-666.6251719183573,302.42373453898006,-177.65165962245362,0.2918004475919957,-149.8514291770532,-44.4346,-0.1499,23.9317,52.3912,-0.3371,-52.9327,79.98044835458887,27.45368504288173,82.93018907603651,-22.022696601019966,-89.002439710829,-40.20289950900607,-3.9724210229250465,-1.360414712735922,-2.0705625326326578,3.6273871527777777,0.13570149739583334,-4.0033213297526045,-3.2666,-1.3773,-1.108,-0.02634,-0.00069,0.06232,0.0009044685866683722,0.0010022870264947414,0.0009730266174301505,0.0004208328318782151,0.0005016982322558761,0.0005914793582633138,0.011742024682462215,0.008622992783784866,0.008466513827443123,passive,1
1.4409,rehab,small_fast,28.63890302178005,-666.6277159005716,302.80407045645273,-177.65242664341068,0.292500293631288,-149.85141595671726,-43.1865,-0.1399,22.8469,64.0139,1.1098,-57.8518,79.91744013115911,27.432548598487777,82.89771958152846,-21.966154310438366,-89.00081210666232,-40.265282524956596,-3.918006066048499,-1.305999755859375,-2.060024903552367,3.4638214111328125,0.06785074869791667,-4.0033213297526045,-3.3276,-1.3401,-0.8226,-0.02462,-0.00837,0.06465,0.0009044685866683722,0.0010022870264947414,0.0009730266174301505,0.0004208328318782151,0.0005016982322558761,0.0005914793582633138,0.011742024682462215,0.008622992783784866,0.008466513827443123,passive,1
1.461,rehab,small_fast,27.596571795351675,-666.6301983895562,303.3584224282215,-177.65229584413527,0.29240805834958444,-149.8527359292802,-43.5175,-0.0847,22.5681,76.8335,1.8907,-65.5565,79.84160999260327,27.406782395768875,82.85847881052753,-21.899007161458332,-88.99894714355469,-40.33937242296007,-3.7003394400719367,-1.305999755859375,-1.877003282603651,3.327204386393229,0.06785074869791667,-3.4604983859592013,-3.3196,-1.3724,-1.7518,-0.02637,-0.00131,0.06329,0.0009044685866683722,0.0010022870264947414,0.0009730266174301505,0.0004208328318782151,0.0005016982322558761,0.0005914793582633138,0.011742024682462215,0.008622992783784866,0.008466513827443123,passive,1
1.4808,rehab,small_fast,26.93060108005915,-666.6272826259578,303.7077896889501,-177.65228037472568,0.29231324110927165,-149.85348827108783,-42.5316,-0.0213,21.7314,83.3805,2.251,-71.9694,79.76865560701577,27.3817776217319,82.82246051448406,-21.835929022894966,-88.99716695149739,-40.410520765516495,-3.482672814095374,-1.1427480867593596,-1.7546104204536666,2.912419637044271,0.13570149739583334,-3.528349134657118,-3.2827,-1.2918,-1.7433,-0.01818,-0.00547,0.06816,0.0009044685866683722,0.0010022870264947414,0.0009730266174301505,0.0004208328318782151,0.0005016982322558761,0.0005914793582633138,0.011742024682462215,0.008622992783784866,0.008466513827443123,passive,1
1.5011,rehab,small_fast,25.9857510526992,-666.6287452334736,304.18013532431837,-177.65247001388997,0.29253426182102826,-149.85336025491182,-39.1042,0.0378,19.249,98.4003,2.2501,-85.7648,79.68640091395613,27.35558311537941,82.78239712856784,-21.766891479492188,-88.99503919813368,-40.49212137858073,-3.373836101871906,-1.0883331298828125,-1.6339443697787748,2.6578182644314237,0.06785074869791667,-3.2569376627604165,-3.2963,-1.431,-1.7292,-0.03822,0.00066,0.05878,0.0009044685866683722,0.0010022870264947414,0.0009730266174301505,0.0004208328318782151,0.0005016982322558761,0.0005914793582633138,0.011742024682462215,0.008622992783784866,0.008466513827443123,passive,1
1.5211,rehab,small_fast,25.244840038855944,-666.6276775711642,304.548242713638,-177.65164438682135,0.2918512743173088,-149.85303016512992,-37.0188,0.0696,17.3426,125.1429,1.4886,-107.3831,79.63433822782913,27.338831684376935,82.75794303063118,-21.72483656141493,-88.99369981553819,-40.543831719292534,-3.047339562142249,-1.0339181730062654,-1.4415748520652847,2.5167168511284723,0.13570149739583334,-3.1890869140625,-3.3934,-1.4519,-1.8282,-0.04587,0.00963,0.06832,0.0009044685866683722,0.0010022870264947414,0.0009730266174301505,0.0004208328318782151,0.0005016982322558761,0.0005914793582633138,0.011742024682462215,0.008622992783784866,0.008466513827443123,passive,1
1.5411,rehab,small_fast,24.39576462387228,-666.6235077254435,304.9258055305597,-177.65151755919382,0.291724779493173,-149.85383621212333,-34.3034,0.0556,15.031,145.2012,0.2073,-124.6646,79.54792966937075,27.313072280128402,82.721530423306,-21.660580105251736,-88.99152119954427,-40.628907945421005,-3.1017545190187965,-0.87066650390625,-1.1971766405766553,2.0782894558376737,0.06785074869791667,-2.9176754421657987,-3.2311,-1.3155,-1.3967,-0.03181,-0.0044,0.06577,0.0009044685866683722,0.0010022870264947414,0.0009730266174301505,0.0004208328318782151,0.0005016982322558761,0.0005914793582633138,0.011742024682462215,0.008622992783784866,0.008466513827443123,passive,1
1.5612,rehab,small_fast,23.863518944037644,-666.6254538064753,305.14558993533404,-177.65091152097276,0.291182608252384,-149.85457036109156,-31.4067,0.0688,12.5397,145.2048,-0.8377,-128.7246,79.50165928000271,27.30078064569152,82.70332411964341,-21.62951151529948,-88.99036831325955,-40.67409091525607,-2.8296661376953125,-0.7618297916827815,-1.0542320024849166,1.7962561713324652,0.06785074869791667,-2.714114718967014,-3.2162,-1.3804,-1.7437,-0.02298,0.00748,0.06611,0.0009044685866683722,0.0010022870264947414,0.0009730266174301505,0.0004208328318782151,0.0005016982322558761,0.0005914793582633138,0.011742024682462215,0.008622992783784866,0.008466513827443123,passive,1
1.5813,rehab,small_fast,23.359713261884504,-666.6254727672479,305.3302906485247,-177.65079227430178,0.2910650191668419,-149.8560192707891,-28.6913,0.0795,9.9234,138.7085,-1.4709,-125.405,79.45784313843981,27.290113845674117,82.6883334924679,-21.602732340494793,-88.98928324381511,-40.71615431043837,-2.557584554842203,-0.6529998779296875,-0.8153541489402847,1.560516357421875,-0.06785074869791667,-2.4427032470703125,-3.3282,-1.3615,-2.0865,-0.04363,0.01166,0.06649,0.0009044685866683722,0.0010022870264947414,0.0009730266174301505,0.0004208328318782151,0.0005016982322558761,0.0005914793582633138,0.011742024682462215,0.008622992783784866,0.008466513827443123,passive,1
1.6008,rehab,small_fast,22.685784459238356,-666.6215450209965,305.5455713448247,-177.65067559025374,0.2909885753946547,-149.85712237744715,-25.2368,0.0177,7.0481,141.8295,-1.5561,-121.5985,79.39917233910892,27.27688402232557,82.67201716356938,-21.571570502387154,-88.98775736490886,-40.77336629231771,-2.2310880151125465,-0.489748208829672,-0.5718465370706992,1.0723792182074652,0.06785074869791667,-2.307001749674479,-3.2651,-1.3612,-1.9752,-0.0445,0.00523,0.06693,0.0009044685866683722,0.0010022870264947414,0.0009730266174301505,0.0004208328318782151,0.0005016982322558761,0.0005914793582633138,0.011742024682462215,0.008622992783784866,0.008466513827443123,passive,1
1.6213,rehab,small_fast,22.29121931478552,-666.621983748347,305.6544897523843,-177.65001304926184,0.2904178423493929,-149.8568487124391,-22.2673,-0.0569,4.5336,152.3979,-1.0928,-118.0779,79.36487405607016,27.27022152135868,82.66394058076462,-21.556650797526043,-88.98684183756511,-40.80776638454861,-2.122251302889078,-0.32649653972965653,-0.4083433245668317,0.8480411105685763,0.06785074869791667,-2.103441026475694,-3.2791,-1.2844,-1.8638,-0.03773,0.01456,0.0675,0.0009044685866683722,0.0010022870264947414,0.0009730266174301505,0.0004208328318782151,0.0005016982322558761,0.0005914793582633138,0.011742024682462215,0.008622992783784866,0.008466513827443123,passive,1
1.6409,rehab,small_fast,21.778062283036277,-666.6229189142466,305.7504051008363,-177.64972034155943,0.290230839738517,-149.85631320571207,-20.4129,-0.0712,2.8348,163.2258,-0.6189,-113.4578,79.32027609041421,27.263837757677134,82.6573392660311,-21.54262966579861,-88.98557874891493,-40.85273742675781,-1.6325030940594059,-0.16324487062964108,-0.029450973661819306,0.3820885552300347,0.06785074869791667,-1.7641703287760415,-3.2725,-1.3302,-2.9287,-0.02868,0.02135,0.07597,0.0009044685866683722,0.0010022870264947414,0.0009730266174301505,0.0004208328318782151,0.0005016982322558761,0.0005914793582633138,0.011742024682462215,0.008622992783784866,0.008466513827443123,passive,1
1.6608,rehab,small_fast,21.485483262570966,-666.6178241902497,305.7564160267386,-177.65133333733394,0.29162299791242186,-149.85626391980716,-17.4069,-0.0575,0.9368,172.78,0.0793,-106.4091,79.29476822956954,27.262008969146425,82.65818227635752,-21.53873019748264,-88.98487514919705,-40.87825351291232,-1.4692514249593904,0.05441495687654703,0.017988752610612623,0.11629740397135416,-0.0,-1.4927588568793402,-3.3557,-1.2657,-1.8666,-0.04615,0.01793,0.06825,0.0009044685866683722,0.0010022870264947414,0.0009730266174301505,0.0004208328318782151,0.0005016982322558761,0.0005914793582633138,0.011742024682462215,0.008622992783784866,0.008466513827443123,passive,1
1.6808,rehab,small_fast,21.12986828847108,-666.6309151853006,305.7257081061604,-177.6524767726899,0.29265784087111785,-149.8558894633489,-12.7961,-0.045,-1.6895,182.5517,1.1371,-102.1004,79.26408673276995,27.26391254085125,82.65952837349164,-21.53948465983073,-88.98397657606337,-40.909322102864586,-1.0883331298828125,0.05441495687654703,0.12779764609761757,-0.22633870442708331,0.06785074869791667,-1.0856458875868056,-3.4213,-1.4452,-2.4515,-0.04418,0.01761,0.07183,0.0009044685866683722,0.0010022870264947414,0.0009730266174301505,0.0004208328318782151,0.0005016982322558761,0.0005914793582633138,0.011742024682462215,0.008622992783784866,0.008466513827443123,passive,1
1.7009,rehab,small_fast,20.937606621199574,-666.6327830139436,305.69508787817506,-177.65177704731556,0.29205097579901473,-149.85665768172967,-8.8482,0.0001,-3.6824,194.4976,1.585,-102.9275,79.24743048035272,27.264680768003558,82.66368903736077,-21.544850667317707,-88.9835188123915,-40.9252675374349,-0.9250814607827971,0.10882991375309406,0.34312559826539296,-0.5328114827473959,-0.0,-0.8820851643880208,-3.4017,-1.4008,-2.6737,-0.05059,0.00754,0.06663,0.0009044685866683722,0.0010022870264947414,0.0009730266174301505,0.0004208328318782151,0.0005016982322558761,0.0005914793582633138,0.011742024682462215,0.008622992783784866,0.008466513827443123,passive,1
1.7209,rehab,small_fast,20.746843403869445,-666.628596748298,305.61116571977027,-177.6488726277435,0.2895057517722726,-149.85746772516072,-4.8793,0.0327,-5.6702,206.0161,0.9785,-106.8209,79.23082861569848,27.266720309115872,82.67596027638652,-21.56253390842014,-88.98304409450955,-40.941246880425346,-0.435333251953125,0.16324487062964108,0.6172603191715655,-0.9501224093967013,-0.0,-0.4071129692925347,-3.4019,-1.3745,-2.7234,-0.05751,0.01608,0.07271,0.0009044685866683722,0.0010022870264947414,0.0009730266174301505,0.0004208328318782151,0.0005016982322558761,0.0005914793582633138,0.011742024682462215,0.008622992783784866,0.008466513827443123,passive,1
1.7409,rehab,small_fast,20.69533220883916,-666.6243340171259,305.51846100226464,-177.64725170791527,0.28810931961852443,-149.85720102358235,-0.9411,0.0423,-7.6948,203.1751,-0.0175,-105.2565,79.22630763289952,27.269915590191832,82.68740890049698,-21.579165988498264,-88.98284912109375,-40.94621446397569,0.05441495687654703,0.2720815828531095,0.8056323363049196,-1.1326260036892362,-0.0,-0.13570149739583334,-3.3638,-1.4137,-2.819,-0.05904,0.01174,0.06829,0.0009044685866683722,0.0010022870264947414,0.0009730266174301505,0.0004208328318782151,0.0005016982322558761,0.0005914793582633138,0.011742024682462215,0.008622992783784866,0.008466513827443123,passive,1
1.7609,rehab,small_fast,20.782608926581222,-666.6217067912338,305.26557809536206,-177.64662081858611,0.28755384745738344,-149.84995082846052,3.006,0.0734,-9.8123,188.8739,-0.8514,-98.5828,79.23386753195584,27.281357415831916,82.71270600876005,-21.616744995117188,-88.9827389187283,-40.94632466634115,0.435333251953125,0.544163165706219,1.0515466066870358,-1.5376366509331596,0.06785074869791667,0.13570149739583334,-3.5072,-1.3334,-3.3719,-0.05463,0.02616,0.06916,0.0009044685866683722,0.0010022870264947414,0.0009730266174301505,0.0004208328318782151,0.0005016982322558761,0.0005914793582633138,0.011742024682462215,0.008622992783784866,0.008466513827443123,passive,1
1.7808,rehab,small_fast,20.880512930819688,-666.6208841563487,305.0723747633483,-177.64729067458487,0.2882042713495959,-149.84687318965595,6.8721,0.0378,-11.9602,177.2692,-1.3582,-94.2527,79.24237241839418,27.29058294012995,82.73076954454478,-21.643261379665798,-88.98274739583333,-40.941196017795136,0.6529998779296875,0.6529998779296875,1.2135541557085396,-1.7714097764756944,-0.06785074869791667,0.5428229437934028,-3.4555,-1.4803,-2.7012,-0.06029,0.01804,0.07128,0.0009044685866683722,0.0010022870264947414,0.0009730266174301505,0.0004208328318782151,0.0005016982322558761,0.0005914793582633138,0.011742024682462215,0.008622992783784866,0.008466513827443123,passive,1
1.8009,rehab,small_fast,21.013217605220916,-666.6217275281826,304.85388878016664,-177.64813864799575,0.28918829643485805,-149.84813451032733,10.5602,-0.05,-14.0094,176.711,-1.3543,-96.4998,79.25392981803063,27.301358515673343,82.75064827191947,-21.673016018337673,-88.98281521267361,-40.928709242078995,0.7618297916827815,0.7074148348062346,1.2596069940245977,-2.000139024522569,-0.06785074869791667,0.8820851643880208,-3.299,-1.4951,-2.0799,-0.03621,0.01001,0.06446,0.0009044685866683722,0.0010022870264947414,0.0009730266174301505,0.0004208328318782151,0.0005016982322558761,0.0005914793582633138,0.011742024682462215,0.008622992783784866,0.008466513827443123,passive,1
1.8209,rehab,small_fast,21.28843501577204,-666.626946321228,304.4857648627011,-177.64900410109166,0.2904942208642525,-149.85173685140344,13.8132,-0.0898,-15.695,181.4675,-0.8953,-100.9238,79.27794201539294,27.32015628625851,82.78343049606474,-21.72392103407118,-88.98299323187933,-40.90165879991319,1.1971630436359066,0.8162515470297029,1.482426860544941,-2.295557657877604,-0.0,1.2892066107855902,-3.4503,-1.5179,-2.1927,-0.04691,0.00381,0.07307,0.0009044685866683722,0.0010022870264947414,0.0009730266174301505,0.0004208328318782151,0.0005016982322558761,0.0005914793582633138,0.011742024682462215,0.008622992783784866,0.008466513827443123,passive,1
1.8413,rehab,small_fast,21.532513678913407,-666.6258803404914,304.21448593447957,-177.64971535309854,0.2915024901778189,-149.85343860158122,16.827,-0.0961,-17.2721,184.4602,-0.2748,-103.2133,79.29913964602027,27.33358326524791,82.80826530834236,-21.761678059895832,-88.9832051595052,-40.87917751736111,1.4148296696124691,0.87066650390625,1.551302163907797,-2.45284186469184,-0.0,1.4927588568793402,-3.4135,-1.4549,-2.4075,-0.06157,0.01958,0.06962,0.0009044685866683722,0.0010022870264947414,0.0009730266174301505,0.0004208328318782151,0.0005016982322558761,0.0005914793582633138,0.011742024682462215,0.008622992783784866,0.008466513827443123,passive,1
1.861,rehab,small_fast,22.002548751585874,-666.6307781779549,303.7777683613955,-177.6494983689673,0.2918014378538949,-149.85389660806,20.3486,-0.0704,-19.3124,181.0633,0.5856,-101.8184,79.34008683308517,27.356208574653852,82.84737690840618,-21.824637518988716,-88.98378160264757,-40.838470458984375,1.9045846769125154,1.0339181730062654,1.7444399087735922,-2.8460269504123263,-0.0,1.832029554578993,-3.3693,-1.3983,-2.0658,-0.04649,0.02347,0.06995,0.0009044685866683722,0.0010022870264947414,0.0009730266174301505,0.0004208328318782151,0.0005016982322558761,0.0005914793582633138,0.011742024682462215,0.008622992783784866,0.008466513827443123,passive,1
1.881,rehab,small_fast,22.362431154629373,-666.6305247236727,303.45484482744115,-177.64968938613455,0.2921207922821152,-149.85458584291715,24.2968,-0.0281,-21.6301,168.7967,1.384,-96.3846,79.37140058762957,27.372599686726485,82.87673950195312,-21.871007283528645,-88.98440043131511,-40.806986490885414,1.9589996337890625,1.0339181730062654,1.906073541924505,-2.9267120361328125,-0.06785074869791667,1.9677310519748263,-3.3686,-1.3872,-2.3064,-0.04074,0.01585,0.06412,0.0009044685866683722,0.0010022870264947414,0.0009730266174301505,0.0004208328318782151,0.0005016982322558761,0.0005914793582633138,0.011742024682462215,0.008622992783784866,0.008466513827443123,passive,1
1.9012,rehab,small_fast,22.97467819662226,-666.6293967503443,302.9286806221011,-177.6491830287363,0.29172813759045596,-149.85584544323987,29.0368,0.0085,-24.4162,158.399,1.4772,-93.918,79.42469379689433,27.399297279886678,82.9250698278446,-21.948326958550346,-88.98562961154514,-40.75330098470052,2.2310880151125465,1.1971630436359066,2.145209737343363,-3.4547254774305554,-0.06785074869791667,2.4427032470703125,-3.3004,-1.3083,-2.1765,-0.01898,0.00659,0.07357,0.0009044685866683722,0.0010022870264947414,0.0009730266174301505,0.0004208328318782151,0.0005016982322558761,0.0005914793582633138,0.011742024682462215,0.008622992783784866,0.008466513827443123,passive,1
1.9208,rehab,small_fast,23.427191386038217,-666.6292707274721,302.53879132350005,-177.64958459249988,0.2918191938892643,-149.85664971360416,31.7721,0.0228,-25.9599,145.2366,1.0167,-90.7036,79.46413172353613,27.419386759842975,82.96010914415416,-22.004309760199654,-88.98675706651476,-40.713695949978295,2.503169597965656,1.305999755859375,2.2859380740930537,-3.611789279513889,-0.06785074869791667,2.5784132215711804,-3.2895,-1.3932,-1.671,-0.04939,0.01026,0.06197,0.0009044685866683722,0.0010022870264947414,0.0009730266174301505,0.0004208328318782151,0.0005016982322558761,0.0005914793582633138,0.011742024682462215,0.008622992783784866,0.008466513827443123,passive,1
1.9408,rehab,small_fast,24.182164867468476,-666.6288851144247,301.9203453869132,-177.64927273506768,0.29111973509718275,-149.8564433271573,33.4959,0.036,-26.9913,119.0048,0.2594,-77.896,79.52992731981938,27.451414353776688,83.01592458592783,-22.094828287760418,-88.98861355251736,-40.64913431803385,2.8296661376953125,1.360414712735922,2.401994761854115,-3.84841071234809,-0.0,2.8498246934678817,-3.3719,-1.5721,-2.32,-0.04672,0.00089,0.06634,0.0009044685866683722,0.0010022870264947414,0.0009730266174301505,0.0004208328318782151,0.0005016982322558761,0.0005914793582633138,0.011742024682462215,0.008622992783784866,0.008466513827443123,passive,1
1.961,rehab,small_fast,24.874674167489793,-666.626708724438,301.3659537345295,-177.64908871764203,0.29077595450160115,-149.85596990636319,35.372,0.0419,-28.3099,90.1374,-0.5725,-61.9969,79.59022975204014,27.480178681930692,83.06581856000541,-22.17565748426649,-88.99015638563368,-40.590218438042534,3.2105844327718907,1.5236663818359375,2.390716099503017,-4.179390801323785,-0.06785074869791667,3.0533854166666665,-3.4138,-1.4629,-1.6414,-0.058,0.01022,0.06571,0.0009044685866683722,0.0010022870264947414,0.0009730266174301505,0.0004208328318782151,0.0005016982322558761,0.0005914793582633138,0.011742024682462215,0.008622992783784866,0.008466513827443123,passive,1
1.9811,rehab,small_fast,25.775612767433312,-666.6281163005309,300.67155475903155,-177.64821643478143,0.2897555039343535,-149.85414975866829,37.1097,0.018,-29.5979,69.4508,-1.1294,-50.1198,79.66875888333462,27.517060383711712,83.12731752301207,-22.277679443359375,-88.99217393663194,-40.51466200086806,3.319421144995359,1.5780813387124846,2.5919780164661974,-4.386461046006945,-0.13570149739583334,3.1890869140625,-3.3501,-1.4893,-2.3351,-0.04776,0.00896,0.07064,0.0009044685866683722,0.0010022870264947414,0.0009730266174301505,0.0004208328318782151,0.0005016982322558761,0.0005914793582633138,0.011742024682462215,0.008622992783784866,0.008466513827443123,passive,1
2.0012,rehab,small_fast,26.40464181853326,-666.6274474792049,300.17366799141246,-177.6485771763613,0.289887341129319,-149.8530118142479,39.1119,-0.0057,-31.1579,68.1249,-1.201,-47.4809,79.72356815149288,27.543554022760674,83.17087532270072,-22.348988850911457,-88.99357265896268,-40.46179877387153,3.5370877709719215,1.7413330078125,2.7953066684231898,-4.60158454047309,-0.06785074869791667,3.324796888563368,-3.3796,-1.4818,-2.5258,-0.04677,-0.00829,0.07087,0.0009044685866683722,0.0010022870264947414,0.0009730266174301505,0.0004208328318782151,0.0005016982322558761,0.0005914793582633138,0.011742024682462215,0.008622992783784866,0.008466513827443123,passive,1
2.0208,rehab,small_fast,27.044308816508586,-666.6272689175142,299.66677884241824,-177.64866885968993,0.28993847419280677,-149.85331314279642,40.2783,-0.0377,-31.9414,82.147,-0.8158,-50.5898,79.77930881009243,27.570700314965578,83.21507217860457,-22.421917385525173,-88.99492051866319,-40.406578911675346,3.5915027278484684,1.6325030940594059,3.002136532622989,-4.59930419921875,-0.06785074869791667,3.4604983859592013,-3.2928,-1.4719,-2.0187,-0.03332,0.01566,0.06893,0.0009044685866683722,0.0010022870264947414,0.0009730266174301505,0.0004208328318782151,0.0005016982322558761,0.0005914793582633138,0.011742024682462215,0.008622992783784866,0.008466513827443123,passive,1
2.041,rehab,small_fast,28.03174903067353,-666.6270652289985,298.86379961479923,-177.6501730000292,0.29114044171381165,-149.854615699866,40.9764,-0.0725,-32.1569,91.3015,-0.1019,-47.0511,79.8653774450321,27.614115346776376,83.2838251095007,-22.5347900390625,-88.9970482720269,-40.32048543294271,3.754754396948484,1.8501697200359684,2.891117511409344,-4.83428955078125,-0.06785074869791667,3.664059109157986,-3.2545,-1.502,-2.4434,-0.04327,0.01071,0.06728,0.0009044685866683722,0.0010022870264947414,0.0009730266174301505,0.0004208328318782151,0.0005016982322558761,0.0005914793582633138,0.011742024682462215,0.008622992783784866,0.008466513827443123,passive,1
2.0611,rehab,small_fast,28.718444569978082,-666.6288193757383,298.3185590015377,-177.65098075403716,0.29170175254118036,-149.85555304631143,42.8676,-0.075,-33.1499,96.1959,0.7359,-40.3729,79.92527876750077,27.64410339959777,83.32985755240563,-22.61166042751736,-88.99859110514323,-40.260518391927086,3.64592448319539,1.9589996337890625,2.9615088736656867,-4.874513414171007,-0.06785074869791667,3.9354705810546875,-3.3446,-1.5196,-2.0103,-0.05589,0.00984,0.06148,0.0009044685866683722,0.0010022870264947414,0.0009730266174301505,0.0004208328318782151,0.0005016982322558761,0.0005914793582633138,0.011742024682462215,0.008622992783784866,0.008466513827443123,passive,1
2.0808,rehab,small_fast,29.80064223117576,-666.6318592792829,297.4836153939687,-177.6522089476496,0.29267944455254274,-149.8563010876989,45.1032,-0.0406,-34.1001,96.1306,1.2569,-33.5547,80.01967552864906,27.69059134001779,83.39948068750967,-22.72905985514323,-89.00091383192274,-40.16670227050781,4.081257735148514,1.9589996337890625,2.8628018823000465,-4.9665578206380205,-0.13570149739583334,4.139031304253472,-3.2158,-1.5023,-2.2859,-0.02815,0.00484,0.06776,0.0009044685866683722,0.0010022870264947414,0.0009730266174301505,0.0004208328318782151,0.0005016982322558761,0.0005914793582633138,0.011742024682462215,0.008622992783784866,0.008466513827443123,passive,1
2.1011,rehab,small_fast,30.553032642438822,-666.6334133794227,296.92778848036113,-177.65257768215017,0.292968270757615,-149.8553035789709,47.969,0.0147,-35.2388,85.7686,1.2578,-24.6982,80.08529436470258,27.72183031138807,83.44560830899985,-22.807896931966145,-89.00248209635417,-40.10297139485677,4.081257735148514,1.8501697200359684,2.9337643160678373,-4.68978034125434,-0.13570149739583334,4.206882052951388,-3.2966,-1.3196,-2.2406,-0.03739,0.00753,0.07042,0.0009044685866683722,0.0010022870264947414,0.0009730266174301505,0.0004208328318782151,0.0005016982322558761,0.0005914793582633138,0.011742024682462215,0.008622992783784866,0.008466513827443123,passive,1
2.1211,rehab,small_fast,31.700574800186182,-666.6345331492901,296.1111667081262,-177.65119043014036,0.2916945041216438,-149.85430308484965,50.1107,0.0587,-35.831,68.0364,0.7866,-15.85,80.1853882440246,27.767876351233756,83.5141368903736,-22.927322387695312,-89.00495741102431,-40.005221896701386,4.244502605778156,1.8501697200359684,2.92214573019802,-5.093087090386285,-0.06785074869791667,4.139031304253472,-3.1931,-1.4289,-2.5942,-0.03737,0.01317,0.07019,0.0009044685866683722,0.0010022870264947414,0.0009730266174301505,0.0004208328318782151,0.0005016982322558761,0.0005914793582633138,0.011742024682462215,0.008622992783784866,0.008466513827443123,passive,1
2.1413,rehab,small_fast,32.47681862581937,-666.6317486695813,295.5644618964881,-177.65048963573483,0.2910461390731105,-149.8539270085041,50.3662,0.0748,-35.3585,38.6781,-0.1127,-2.3496,80.25305341966082,27.798585041914837,83.5601285424563,-23.00699022081163,-89.00663587782118,-39.93882921006944,4.298924361125077,1.9045846769125154,2.918596928662593,-4.928860134548611,-0.06785074869791667,4.274732801649305,-3.21,-1.5289,-2.8278,-0.0427,-0.00346,0.06965,0.0009044685866683722,0.0010022870264947414,0.0009730266174301505,0.0004208328318782151,0.0005016982322558761,0.0005914793582633138,0.011742024682462215,0.008622992783784866,0.008466513827443123,passive,1
2.1613,rehab,small_fast,33.65771857146139,-666.6271811760731,294.73764737959345,-177.65022837594304,0.29080915898859266,-149.85370002064272,51.0934,0.0547,-35.5011,1.196,-0.9851,15.1826,80.35599585806969,27.845542076790686,83.62852115442257,-23.125762939453125,-89.0091535780165,-39.8374515109592,4.244502605778156,2.0134145906656093,2.842692006932627,-4.916314019097222,-0.06785074869791667,4.206882052951388,-3.3066,-1.5101,-2.3138,-0.0665,0.00558,0.06221,0.0009044685866683722,0.0010022870264947414,0.0009730266174301505,0.0004208328318782151,0.0005016982322558761,0.0005914793582633138,0.011742024682462215,0.008622992783784866,0.008466513827443123,passive,1
2.1808,rehab,small_fast,34.65998656936943,-666.6227203776099,294.047887200978,-177.65053252138668,0.2910449364875375,-149.85300784403412,50.4632,0.0037,-34.952,-27.9986,-1.2175,27.1897,80.44336979932125,27.885183957543703,83.68462893042233,-23.22371588812934,-89.01128980848524,-39.75187513563368,4.353339318001624,2.0134145906656093,2.7757882599783414,-4.67667473687066,-0.13570149739583334,4.206882052951388,-3.3665,-1.5654,-2.819,-0.06279,-0.00641,0.06369,0.0009044685866683722,0.0010022870264947414,0.0009730266174301505,0.0004208328318782151,0.0005016982322558761,0.0005914793582633138,0.011742024682462215,0.008622992783784866,0.008466513827443123,passive,1
2.201,rehab,small_fast,35.85308303170889,-666.6240679663317,293.21810060033727,-177.6511992165557,0.2915912722633037,-149.8534534530422,49.3607,-0.0449,-34.3091,-36.4312,-0.6932,27.3276,80.54750197004563,27.93413294423925,83.75000982001276,-23.340301513671875,-89.0138668484158,-39.64861551920573,4.353339318001624,2.0134145906656093,2.741979466806544,-4.941897922092013,-0.06785074869791667,4.274732801649305,-3.1519,-1.3938,-2.8361,-0.05915,0.01959,0.05951,0.0009044685866683722,0.0010022870264947414,0.0009730266174301505,0.0004208328318782151,0.0005016982322558761,0.0005914793582633138,0.011742024682462215,0.008622992783784866,0.008466513827443123,passive,1
2.2209,rehab,small_fast,36.64746608325888,-666.6289517576137,292.6628286040147,-177.6515008196367,0.2917627882464996,-149.8538430949925,49.0426,-0.071,-34.174,-24.0163,0.1597,15.2425,80.61691435256807,27.9676086123627,83.79271101243425,-23.418214586046005,-89.01564704047308,-39.57969665527344,4.353339318001624,2.067836346012531,2.606241207311649,-4.888203938802083,-0.13570149739583334,4.410442776150173,-3.1843,-1.4515,-2.9982,-0.05669,0.01821,0.06668,0.0009044685866683722,0.0010022870264947414,0.0009730266174301505,0.0004208328318782151,0.0005016982322558761,0.0005914793582633138,0.011742024682462215,0.008622992783784866,0.008466513827443123,passive,1
2.2409,rehab,small_fast,37.437086554904674,-666.6331038990571,292.1133956758356,-177.65120195910697,0.2914923949855917,-149.85455124063645,48.0417,-0.0573,-33.5548,-2.9539,0.8693,-5.1371,80.68590522992729,28.00078514778968,83.83516745992226,-23.496322631835938,-89.0173848470052,-39.51087951660156,4.244502605778156,2.122251302889078,2.6238560440516707,-4.85136244032118,-0.06785074869791667,4.342592027452257,-3.2567,-1.4015,-2.911,-0.08246,0.02638,0.06,0.0009044685866683722,0.0010022870264947414,0.0009730266174301505,0.0004208328318782151,0.0005016982322558761,0.0005914793582633138,0.011742024682462215,0.008622992783784866,0.008466513827443123,passive,1
2.2612,rehab,small_fast,38.626422242289195,-666.6359508886987,291.2776273995763,-177.65162681815943,0.29181971697030645,-149.85602761382415,47.5648,0.0049,-33.2459,20.0673,1.1606,-30.5631,80.78978585724784,28.051250193378714,83.89936541566755,-23.613577948676216,-89.02000427246094,-39.40684848361545,4.353339318001624,2.067836346012531,2.648582080803295,-4.912889268663195,-0.13570149739583334,4.342592027452257,-3.0628,-1.3328,-3.0862,-0.06015,0.02868,0.06305,0.0009044685866683722,0.0010022870264947414,0.0009730266174301505,0.0004208328318782151,0.0005016982322558761,0.0005914793582633138,0.011742024682462215,0.008622992783784866,0.008466513827443123,passive,1
2.2813,rehab,small_fast,39.419589284161155,-666.6335620118326,290.71243292277006,-177.65205865422374,0.29214262324793516,-149.8564352272946,48.8985,0.0725,-34.3197,37.4312,0.8984,-54.8336,80.85901468107016,28.085031792669014,83.94327673581567,-23.692796495225693,-89.02174207899306,-39.338107638888886,4.298924361125077,2.2310880151125465,2.7797449697362313,-5.011478000217013,-0.13570149739583334,4.342592027452257,-3.0609,-1.3731,-3.1192,-0.06971,0.01368,0.06234,0.0009044685866683722,0.0010022870264947414,0.0009730266174301505,0.0004208328318782151,0.0005016982322558761,0.0005914793582633138,0.011742024682462215,0.008622992783784866,0.008466513827443123,passive,1
2.3008,rehab,small_fast,40.62527789159516,-666.6289188872506,289.8611228179813,-177.65151370608112,0.29171764137857614,-149.8559434803715,50.4561,0.095,-35.9244,38.8066,0.165,-68.6399,80.96424140552483,28.136088305180614,84.00971138831413,-23.814078436957466,-89.02430216471355,-39.23473782009548,4.353339318001624,2.176666259765625,2.7655361666537748,-5.044547186957465,-0.13570149739583334,4.342592027452257,-3.0097,-1.2541,-2.9001,-0.07219,0.02383,0.05552,0.0009044685866683722,0.0010022870264947414,0.0009730266174301505,0.0004208328318782151,0.0005016982322558761,0.0005914793582633138,0.011742024682462215,0.008622992783784866,0.008466513827443123,passive,1
2.3208,rehab,small_fast,41.43845926588667,-666.6243005449595,289.28355220543114,-177.6509760230031,0.29118977341403385,-149.85407825717775,51.6065,0.0618,-37.8799,29.505,-0.7196,-73.4138,81.035210637763,28.170753705619585,84.05484643312964,-23.896670871310764,-89.02606540256076,-39.16656494140625,4.462176030225093,2.2310880151125465,2.7934438875406093,-5.23591783311632,-0.06785074869791667,4.47829352484809,-2.9617,-1.2852,-2.6411,-0.08191,0.01447,0.05052,0.0009044685866683722,0.0010022870264947414,0.0009730266174301505,0.0004208328318782151,0.0005016982322558761,0.0005914793582633138,0.011742024682462215,0.008622992783784866,0.008466513827443123,passive,1
2.3409,rehab,small_fast,42.66801309593692,-666.621166316345,288.3945143853691,-177.64993579182922,0.2903363687893117,-149.85182996913295,52.326,0.0074,-39.9514,14.1247,-1.3308,-70.9343,81.1425788803856,28.224849134388535,84.12323224662553,-24.02359856499566,-89.02865091959636,-39.06287299262153,4.462176030225093,2.3399179288656407,2.7994129445293163,-5.2329254150390625,-0.13570149739583334,4.410442776150173,-3.0421,-1.2471,-3.3884,-0.08221,0.03209,0.06046,0.0009044685866683722,0.0010022870264947414,0.0009730266174301505,0.0004208328318782151,0.0005016982322558761,0.0005914793582633138,0.011742024682462215,0.008622992783784866,0.008466513827443123,passive,1
2.3608,rehab,small_fast,43.47554975890052,-666.6228809386312,287.7789102394076,-177.6494306045355,0.28997077593156934,-149.85124867023322,51.7361,-0.037,-40.8322,-7.8942,-1.2341,-57.3944,81.21316059981243,28.26277780060721,84.16971338857519,-24.110692342122395,-89.03032938639323,-38.99385240342882,4.298924361125077,2.3399179288656407,3.063560712455523,-5.606740315755208,-0.13570149739583334,4.274732801649305,-3.0013,-1.3553,-3.0103,-0.08358,0.02134,0.05421,0.0009044685866683722,0.0010022870264947414,0.0009730266174301505,0.0004208328318782151,0.0005016982322558761,0.0005914793582633138,0.011742024682462215,0.008622992783784866,0.008466513827443123,passive,1
2.3808,rehab,small_fast,44.65807677163152,-666.6299909110301,286.8183894331533,-177.64912386500146,0.28973194002281166,-149.85251653186498,50.8527,-0.0641,-41.4732,-28.0528,-0.3979,-37.6646,81.31661972196976,28.32240038579053,84.24130808008779,-24.245376586914062,-89.03287251790364,-38.89064364963107,4.244502605778156,2.557584554842203,3.0907002061900526,-5.7479604085286455,-0.13570149739583334,4.274732801649305,-2.8962,-1.3288,-3.4002,-0.07624,0.02775,0.05263,0.0009044685866683722,0.0010022870264947414,0.0009730266174301505,0.0004208328318782151,0.0005016982322558761,0.0005914793582633138,0.011742024682462215,0.008622992783784866,0.008466513827443123,passive,1
2.4008,rehab,small_fast,45.62930133025689,-666.6335275627953,285.978869682256,-177.6501935123531,0.290593824902488,-149.8554389023943,49.9204,-0.0596,-41.8243,-38.0957,0.5286,-21.2539,81.40158700470877,28.37425911780631,84.30367724730236,-24.360809326171875,-89.03500027126736,-38.80405849880642,4.298924361125077,2.7208362239422184,3.184233561600789,-6.059095594618055,-0.06785074869791667,4.342592027452257,-2.767,-1.2954,-3.6513,-0.05965,0.03091,0.06155,0.0009044685866683722,0.0010022870264947414,0.0009730266174301505,0.0004208328318782151,0.0005016982322558761,0.0005914793582633138,0.011742024682462215,0.008622992783784866,0.008466513827443123,passive,1
2.421,rehab,small_fast,46.82762594136768,-666.63344013493,284.946056123327,-177.6516245598888,0.29174336321581323,-149.85535849498746,49.3568,-0.0262,-42.2576,-36.5851,0.9087,-14.2714,81.50635823164836,28.43806276226988,84.38036399312539,-24.50252956814236,-89.03751797146268,-38.700968424479164,4.462176030225093,2.7208362239422184,3.310508350334545,-6.070997450086805,-0.13570149739583334,4.47829352484809,-2.8418,-1.3541,-3.4273,-0.0891,0.0278,0.05191,0.0009044685866683722,0.0010022870264947414,0.0009730266174301505,0.0004208328318782151,0.0005016982322558761,0.0005914793582633138,0.011742024682462215,0.008622992783784866,0.008466513827443123,passive,1
2.441,rehab,small_fast,47.63475726039702,-666.6295095489394,284.2547485227688,-177.65171562947253,0.29188318461988716,-149.8551632142916,49.1992,0.0207,-42.8077,-23.4721,0.6453,-19.7154,81.57687876484182,28.48051920975789,84.43252185783764,-24.599041408962673,-89.03915405273438,-38.63172743055556,4.462176030225093,2.6664212670656715,3.242088544486773,-6.13004896375868,-0.06785074869791667,4.342592027452257,-2.6424,-1.4831,-3.5306,-0.06161,0.03736,0.05148,0.0009044685866683722,0.0010022870264947414,0.0009730266174301505,0.0004208328318782151,0.0005016982322558761,0.0005914793582633138,0.011742024682462215,0.008622992783784866,0.008466513827443123,passive,1
2.461,rehab,small_fast,48.44139138673282,-666.6264639142331,283.5620943053371,-177.6511779999077,0.29148381391441286,-149.8542877806425,48.7499,0.0609,-42.9966,-2.4073,0.1297,-34.9561,81.64737890262415,28.523322379234994,84.48467292407952,-24.696697658962673,-89.04079861111111,-38.56319851345486,4.516590987101639,2.7752511808187657,3.1964300174524287,-6.202256944444445,-0.06785074869791667,4.274732801649305,-2.7339,-1.4695,-3.232,-0.07006,0.01839,0.05297,0.0009044685866683722,0.0010022870264947414,0.0009730266174301505,0.0004208328318782151,0.0005016982322558761,0.0005914793582633138,0.011742024682462215,0.008622992783784866,0.008466513827443123,passive,1
2.4811,rehab,small_fast,49.64806982125889,-666.6267866793204,282.5099426768566,-177.649640875233,0.29028167819739203,-149.8540224331727,48.2646,0.051,-43.372,18.3364,-0.3317,-53.0201,81.75293195365678,28.589185960222,84.56290972114789,-24.84581841362847,-89.04330783420139,-38.45958285861545,4.4077542748781715,2.884087893042234,3.2946407204807393,-6.475931803385416,-0.13570149739583334,4.206882052951388,-2.886,-1.4655,-3.3698,-0.06803,0.01581,0.05508,0.0009044685866683722,0.0010022870264947414,0.0009730266174301505,0.0004208328318782151,0.0005016982322558761,0.0005914793582633138,0.011742024682462215,0.008622992783784866,0.008466513827443123,passive,1
2.5011,rehab,small_fast,50.458378851059,-666.6264738231199,281.785050320983,-177.64941170957823,0.29009777940919396,-149.85299353590668,48.6667,-0.005,-44.5982,30.0088,-0.6966,-64.1397,81.8238128057801,28.634756107141477,84.61612814723856,-24.94693332248264,-89.04497782389323,-38.390867445203995,4.462176030225093,2.8296661376953125,3.3637811641881963,-6.43721686469184,-0.06785074869791667,4.274732801649305,-2.9379,-1.4861,-2.5518,-0.07595,0.02763,0.05528,0.0009044685866683722,0.0010022870264947414,0.0009730266174301505,0.0004208328318782151,0.0005016982322558761,0.0005914793582633138,0.011742024682462215,0.008622992783784866,0.008466513827443123,passive,1
2.5208,rehab,small_fast,51.65866307270362,-666.6280903008454,280.6663686109522,-177.6503904665689,0.29090553834879906,-149.85298603686164,49.6746,-0.0573,-46.2489,30.7875,-0.8666,-64.1594,81.92884917306428,28.705575773031406,84.69685998293433,-25.100267198350693,-89.04745313856337,-38.28756544325087,4.298924361125077,2.938502849918781,3.376677862488397,-6.2667592366536455,-0.13570149739583334,4.410442776150173,-2.7911,-1.3867,-2.7299,-0.04455,0.0231,0.05909,0.0009044685866683722,0.0010022870264947414,0.0009730266174301505,0.0004208328318782151,0.0005016982322558761,0.0005914793582633138,0.011742024682462215,0.008622992783784866,0.008466513827443123,passive,1
2.5409,rehab,small_fast,52.453203950879946,-666.629357026647,279.90247311320496,-177.65144204700283,0.2917662512158689,-149.85319470878056,50.8618,-0.0675,-47.9767,28.4485,-0.6914,-59.7156,81.99839072652382,28.754116851504484,84.7515332816851,-25.20414564344618,-89.04908074273003,-38.218985663519966,4.190087648901609,3.047339562142249,3.485895289052831,-6.3741302490234375,-0.13570149739583334,4.274732801649305,-2.8923,-1.4393,-2.4821,-0.07203,0.01016,0.0514,0.0009044685866683722,0.0010022870264947414,0.0009730266174301505,0.0004208328318782151,0.0005016982322558761,0.0005914793582633138,0.011742024682462215,0.008622992783784866,0.008466513827443123,passive,1
2.5612,rehab,small_fast,53.6468357358669,-666.6305674424686,278.7477442772136,-177.65246629357523,0.29248351480721574,-149.85340310922575,52.0277,-0.0398,-49.8643,22.0388,-0.1158,-50.9279,82.10288321617806,28.827778278010907,84.83405991355971,-25.362116495768227,-89.05162387424045,-38.116065131293404,4.244502605778156,3.1017545190187965,3.4562811521020267,-6.704440646701388,-0.13570149739583334,4.342592027452257,-2.7997,-1.4756,-2.3522,-0.05222,0.01092,0.05841,0.0009044685866683722,0.0010022870264947414,0.0009730266174301505,0.0004208328318782151,0.0005016982322558761,0.0005914793582633138,0.011742024682462215,0.008622992783784866,0.008466513827443123,passive,1
2.581,rehab,small_fast,54.44011543746726,-666.6325125377916,277.9790135323925,-177.6524360568889,0.2924555859384197,-149.85346086159853,51.8465,-0.0179,-50.2236,3.5032,0.6291,-31.6519,82.17234318799312,28.877203157632657,84.88872641384012,-25.468258327907986,-89.05326843261719,-38.04773966471354,4.4077542748781715,2.884087893042234,3.4122474594871597,-6.783175998263888,-0.06785074869791667,4.071180555555555,-2.8052,-1.3145,-1.9719,-0.03832,0.01679,0.05317,0.0009044685866683722,0.0010022870264947414,0.0009730266174301505,0.0004208328318782151,0.0005016982322558761,0.0005914793582633138,0.011742024682462215,0.008622992783784866,0.008466513827443123,passive,1
2.6011,rehab,small_fast,55.64123493681514,-666.6329716312482,276.84481200579023,-177.64989938142335,0.2904760836774681,-149.85350225493679,50.9174,-0.0154,-49.8159,-24.3893,1.0809,-5.6338,82.27749512927367,28.950320706509128,84.97030125986231,-25.62920464409722,-89.05576070149739,-37.944344414605034,4.516590987101639,3.047339562142249,3.413838301554765,-6.7417653401692705,-0.13570149739583334,4.342592027452257,-2.7307,-1.5684,-2.8491,-0.04651,0.01046,0.05279,0.0009044685866683722,0.0010022870264947414,0.0009730266174301505,0.0004208328318782151,0.0005016982322558761,0.0005914793582633138,0.011742024682462215,0.008622992783784866,0.008466513827443123,passive,1
2.6212,rehab,small_fast,56.65272663470427,-666.6313624125445,275.87546167016376,-177.64842813142198,0.28939748142741323,-149.85251733653845,50.3002,-0.0097,-49.7404,-51.3875,0.9155,19.2888,82.36601801201849,29.012995804890547,85.03941450968827,-25.765338473849827,-89.05777825249565,-37.85832722981771,4.571005943978187,3.2650061881188117,3.453792911945003,-6.74790276421441,-0.13570149739583334,4.206882052951388,-2.7739,-1.4952,-2.6192,-0.05009,0.01808,0.0484,0.0009044685866683722,0.0010022870264947414,0.0009730266174301505,0.0004208328318782151,0.0005016982322558761,0.0005914793582633138,0.011742024682462215,0.008622992783784866,0.008466513827443123,passive,1
2.6412,rehab,small_fast,57.8629236655679,-666.6292164909084,274.6545943537174,-177.65078764298252,0.2911689558344479,-149.85132594522727,49.9511,0.0086,-49.9991,-60.4116,0.4171,28.2341,82.47195177739209,29.092422334274442,85.12376313162322,-25.929175482855904,-89.06028747558594,-37.75543212890625,4.190087648901609,3.373836101871906,3.4791784003229425,-6.965662638346354,-0.06785074869791667,4.139031304253472,-2.6688,-1.4276,-2.4428,-0.03859,0.01047,0.04835,0.0009044685866683722,0.0010022870264947414,0.0009730266174301505,0.0004208328318782151,0.0005016982322558761,0.0005914793582633138,0.011742024682462215,0.008622992783784866,0.008466513827443123,passive,1
2.6608,rehab,small_fast,58.65921157660507,-666.6302029586036,273.8306882184218,-177.65271976798044,0.2926140329625113,-149.8506078263035,48.5578,0.0307,-49.3003,-41.8502,0.0593,11.7168,82.5416904864925,29.14653135998414,85.17972813974512,-26.038818359375,-89.0619405110677,-37.68764919704861,4.4077542748781715,3.482672814095374,3.633816407458617,-6.743664211697048,-0.13570149739583334,4.139031304253472,-2.7526,-1.5933,-2.1861,-0.05663,0.01036,0.04502,0.0009044685866683722,0.0010022870264947414,0.0009730266174301505,0.0004208328318782151,0.0005016982322558761,0.0005914793582633138,0.011742024682462215,0.008622992783784866,0.008466513827443123,passive,1
2.6811,rehab,small_fast,59.44025673930294,-666.6319727868112,273.0202459565334,-177.65338759195353,0.2932415053327338,-149.85118110173224,46.9485,0.0452,-48.4747,-17.5601,-0.1492,-8.6539,82.61009669539952,29.19996733712678,85.23501330082959,-26.148605346679688,-89.06346638997395,-37.61990017361111,4.298924361125077,3.373836101871906,3.4600814970413056,-6.8221791585286455,-0.06785074869791667,4.206882052951388,-2.6135,-1.6488,-2.2855,-0.04505,0.00237,0.05131,0.0009044685866683722,0.0010022870264947414,0.0009730266174301505,0.0004208328318782151,0.0005016982322558761,0.0005914793582633138,0.011742024682462215,0.008622992783784866,0.008466513827443123,passive,1
2.7011,rehab,small_fast,60.58055656744002,-666.6330247911383,271.8391385266301,-177.65196944364985,0.29215798683162075,-149.85383688822634,45.8252,0.0245,-47.9451,-7.2382,-0.3487,-14.6383,82.70999341908067,29.27788460608756,85.31673771320003,-26.312967936197914,-89.06586541069878,-37.51918368869357,4.135672692025062,3.2105844327718907,3.3956184009514234,-6.756625705295138,-0.06785074869791667,4.139031304253472,-2.7573,-1.5611,-1.6933,-0.04684,0.01497,0.04898,0.0009044685866683722,0.0010022870264947414,0.0009730266174301505,0.0004208328318782151,0.0005016982322558761,0.0005914793582633138,0.011742024682462215,0.008622992783784866,0.008466513827443123,passive,1
2.7211,rehab,small_fast,61.33619753236618,-666.6289660107979,271.0601590725578,-177.65050674285231,0.2909899864893255,-149.85524456107618,46.1734,-0.0098,-48.5436,-0.2086,-0.505,-18.2111,82.77614933429378,29.32899550636216,85.37139061653968,-26.422534518771702,-89.06748453776042,-37.45284186469184,4.081257735148514,3.2105844327718907,3.438972246528852,-6.836802164713541,-0.06785074869791667,4.0033213297526045,-2.6613,-1.4687,-2.0689,-0.0403,0.01777,0.04796,0.0009044685866683722,0.0010022870264947414,0.0009730266174301505,0.0004208328318782151,0.0005016982322558761,0.0005914793582633138,0.011742024682462215,0.008622992783784866,0.008466513827443123,passive,1
2.7409,rehab,small_fast,62.47939046864638,-666.6278872697485,269.86219016134646,-177.65041713127872,0.2908997200471818,-149.8555400314525,48.4698,-0.0178,-51.0514,9.525,-0.5288,-25.3758,82.87627720596767,29.408829943968517,85.45243518187267,-26.586405436197914,-89.06984965006511,-37.35425313313802,4.190087648901609,3.319421144995359,3.4066795122505416,-6.80296156141493,-0.13570149739583334,4.139031304253472,-2.6721,-1.4262,-2.4522,-0.03743,0.02082,0.05261,0.0009044685866683722,0.0010022870264947414,0.0009730266174301505,0.0004208328318782151,0.0005016982322558761,0.0005914793582633138,0.011742024682462215,0.008622992783784866,0.008466513827443123,passive,1
2.7611,rehab,small_fast,63.25002207658649,-666.627242185063,269.04549251792156,-177.6516785378411,0.2919070918860954,-149.8541407123896,49.1905,-0.0171,-51.8988,9.8975,-0.3582,-23.1949,82.94375882290377,29.463693599889773,85.50636064888226,-26.695463392469616,-89.07135009765625,-37.28939480251736,4.081257735148514,3.482672814095374,3.4233425631381498,-6.818873087565104,-0.13570149739583334,4.0033213297526045,-2.7062,-1.5749,-2.2978,-0.06317,0.01746,0.04534,0.0009044685866683722,0.0010022870264947414,0.0009730266174301505,0.0004208328318782151,0.0005016982322558761,0.0005914793582633138,0.011742024682462215,0.008622992783784866,0.008466513827443123,passive,1
2.7808,rehab,small_fast,64.3856557248481,-666.6297341158088,267.8291375528348,-177.6529017604175,0.29285999322018147,-149.85371802400977,47.7357,-0.0203,-50.6967,-6.062,0.0684,-5.4801,83.04326123530322,29.546138650119893,85.58584836449954,-26.85866461859809,-89.07363891601562,-37.19214545355903,4.135672692025062,3.319421144995359,3.3572614310991646,-6.806369357638888,-0.13570149739583334,4.139031304253472,-2.5337,-1.6588,-2.3849,-0.05264,0.00599,0.04291,0.0009044685866683722,0.0010022870264947414,0.0009730266174301505,0.0004208328318782151,0.0005016982322558761,0.0005914793582633138,0.011742024682462215,0.008622992783784866,0.008466513827443123,passive,1
2.8012,rehab,small_fast,65.13102590827815,-666.6343444033567,267.0339171598186,-177.65231019776812,0.2923761634267511,-149.85371038131618,46.8871,-0.0104,-50.3121,-27.7914,0.5457,15.1727,83.10861493101214,29.600614793229813,85.63756432863745,-26.967476738823784,-89.07519022623698,-37.12801615397135,3.918006066048499,3.373836101871906,3.262599529606281,-6.935662163628472,-0.06785074869791667,3.7319098578559027,-2.6268,-1.3212,-1.7643,-0.04458,0.00949,0.04215,0.0009044685866683722,0.0010022870264947414,0.0009730266174301505,0.0004208328318782151,0.0005016982322558761,0.0005914793582633138,0.011742024682462215,0.008622992783784866,0.008466513827443123,passive,1
2.8211,rehab,small_fast,66.42994974405218,-666.6334036224775,265.6525234436983,-177.65083103403688,0.29122565179590904,-149.85316472755596,46.7942,-0.0011,-50.6452,-45.9166,0.6703,30.62,83.22240772813853,29.694780406385366,85.72844628060218,-27.157609727647568,-89.07785203721788,-37.01688978407118,4.081257735148514,3.319421144995359,3.2161863723603807,-6.799935234917535,-0.13570149739583334,4.071180555555555,-2.6157,-1.4859,-1.9725,-0.05145,0.01209,0.04487,0.0009044685866683722,0.0010022870264947414,0.0009730266174301505,0.0004208328318782151,0.0005016982322558761,0.0005914793582633138,0.011742024682462215,0.008622992783784866,0.008466513827443123,passive,1
2.8409,rehab,small_fast,67.17554111087658,-666.6314084457503,264.8538502314331,-177.65086220777818,0.29126919461000134,-149.85177730460043,45.9434,0.0061,-49.9742,-47.9689,0.5708,31.8255,83.28770023761409,29.749460503606514,85.78020983403272,-27.265811496310764,-89.07931857638889,-36.954193115234375,4.026835979801594,3.428251058748453,3.3020986424814356,-6.762025621202257,-0.06785074869791667,3.9354705810546875,-2.5643,-1.4786,-1.9539,-0.04233,0.01509,0.05074,0.0009044685866683722,0.0010022870264947414,0.0009730266174301505,0.0004208328318782151,0.0005016982322558761,0.0005914793582633138,0.011742024682462215,0.008622992783784866,0.008466513827443123,passive,1
2.8608,rehab,small_fast,67.91066713611647,-666.6299371869505,264.04510606338033,-177.6516745172428,0.2918991083812381,-149.85135475346814,44.4867,0.0243,-48.5744,-26.2022,0.4088,11.7745,83.35208855052986,29.805017603505956,85.83198018593363,-27.373920016818577,-89.08078511555989,-36.89143710666232,3.8635911091719524,3.5915027278484684,3.2255886568881498,-6.774393717447916,-0.06785074869791667,3.8676198323567705,-2.5228,-1.493,-2.1488,-0.03195,0.0246,0.04437,0.0009044685866683722,0.0010022870264947414,0.0009730266174301505,0.0004208328318782151,0.0005016982322558761,0.0005914793582633138,0.011742024682462215,0.008622992783784866,0.008466513827443123,passive,1
2.8813,rehab,small_fast,68.99657191093183,-666.6274599213848,262.82697754534695,-177.65317962452656,0.29303045518358906,-149.85202391733694,43.9376,0.0472,-48.3185,-4.7714,0.1257,-6.0933,83.4472127480082,29.88893792180732,85.90948954667195,-27.53617180718316,-89.08299763997395,-36.7974599202474,3.8635911091719524,3.428251058748453,3.182989441522277,-6.718529595269097,-0.06785074869791667,3.596208360460069,-2.4361,-1.3972,-1.4315,-0.03199,0.02369,0.04396,0.0009044685866683722,0.0010022870264947414,0.0009730266174301505,0.0004208328318782151,0.0005016982322558761,0.0005914793582633138,0.011742024682462215,0.008622992783784866,0.008466513827443123,passive,1
2.9012,rehab,small_fast,69.71181251416499,-666.6266683697578,262.03434480573407,-177.65279630820308,0.29274807911073525,-149.8527612764854,44.3944,0.0416,-49.2935,4.5638,-0.1235,-13.1869,83.50988104791925,29.943923950195312,85.95997498767211,-27.643907335069443,-89.08446417914496,-36.7352549235026,4.026835979801594,3.5370877709719215,3.045531169022664,-6.626044379340278,-0.06785074869791667,3.9354705810546875,-2.4049,-1.6132,-1.9219,-0.03534,0.0224,0.04623,0.0009044685866683722,0.0010022870264947414,0.0009730266174301505,0.0004208328318782151,0.0005016982322558761,0.0005914793582633138,0.011742024682462215,0.008622992783784866,0.008466513827443123,passive,1
2.9208,rehab,small_fast,70.78182924026349,-666.6319915147355,260.86704391585164,-177.64984541675884,0.29053302394133323,-149.8537032589529,44.0815,0.0227,-49.204,13.4498,-0.2922,-22.8158,83.60370673755608,30.02611745702158,86.03348004935991,-27.805964152018227,-89.08668518066406,-36.64228651258681,3.8635911091719524,3.373836101871906,3.0358705426206685,-6.829291449652778,-0.13570149739583334,3.9354705810546875,-2.4213,-1.5421,-2.0732,-0.04167,0.01412,0.04169,0.0009044685866683722,0.0010022870264947414,0.0009730266174301505,0.0004208328318782151,0.0005016982322558761,0.0005914793582633138,0.011742024682462215,0.008622992783784866,0.008466513827443123,passive,1
2.9411,rehab,small_fast,71.5053056815133,-666.6295109403518,260.0761026113879,-177.64905192617962,0.2899592464460361,-149.85354490814828,45.0599,0.0132,-50.1597,16.3192,-0.4738,-26.4046,83.6670752799157,30.081504595161665,86.08325844944113,-27.91388617621528,-89.08814324273003,-36.58027648925781,4.026835979801594,3.482672814095374,3.080631671565594,-6.586651272243923,-0.06785074869791667,3.9354705810546875,-2.5243,-1.5321,-1.8623,-0.0391,0.02325,0.04352,0.0009044685866683722,0.0010022870264947414,0.0009730266174301505,0.0004208328318782151,0.0005016982322558761,0.0005914793582633138,0.011742024682462215,0.008622992783784866,0.008466513827443123,passive,1
2.9611,rehab,small_fast,72.59033210892623,-666.6281551065814,258.8551434112981,-177.65072470625398,0.2911761512796905,-149.8522345014136,46.5185,-0.0024,-51.6699,8.5061,-0.5809,-16.5128,83.76213149269029,30.167722796449567,86.15759292451462,-28.075002034505207,-89.090330335829,-36.488333808051216,4.026835979801594,3.7003394400719367,3.0145233456451113,-6.785176595052083,-0.06785074869791667,3.8676198323567705,-2.4664,-1.5299,-1.8867,-0.04562,0.01525,0.04162,0.0009044685866683722,0.0010022870264947414,0.0009730266174301505,0.0004208328318782151,0.0005016982322558761,0.0005914793582633138,0.011742024682462215,0.008622992783784866,0.008466513827443123,passive,1
2.9808,rehab,small_fast,73.30880023851701,-666.6258663473124,258.033414098125,-177.6526033407242,0.29254357083330085,-149.85205419634298,45.7885,-0.0095,-50.9974,-2.9236,-0.5638,-2.253,83.82506493294593,30.22584291968015,86.20715377354385,-28.182118733723957,-89.091796875,-36.426781548394096,3.9724210229250465,3.7003394400719367,3.1111907958984375,-6.8723297119140625,-0.13570149739583334,3.799769083658854,-2.469,-1.4518,-2.0195,-0.03807,0.01308,0.04808,0.0009044685866683722,0.0010022870264947414,0.0009730266174301505,0.0004208328318782151,0.0005016982322558761,0.0005914793582633138,0.011742024682462215,0.008622992783784866,0.008466513827443123,passive,1
3.0011,rehab,small_fast,74.37689383873304,-666.627434853019,256.8331213012694,-177.65257217365468,0.292515653296004,-149.8519161138602,45.2482,-0.0077,-50.8408,-13.496,-0.6086,8.0327,83.91867307153079,30.311768786741954,86.27917676869005,-28.342725965711804,-89.09396701388889,-36.33510165744357,3.8635911091719524,3.428251058748453,2.911254580658261,-6.756074693467882,-0.13570149739583334,3.8676198323567705,-2.355,-1.5441,-1.9856,-0.02704,0.006,0.04626,0.0009044685866683722,0.0010022870264947414,0.0009730266174301505,0.0004208328318782151,0.0005016982322558761,0.0005914793582633138,0.011742024682462215,0.008622992783784866,0.008466513827443123,passive,1
3.0208,rehab,small_fast,75.09727714976884,-666.6275881464634,256.05154600850653,-177.65114508678724,0.29150701738099105,-149.85125536059786,44.6469,-0.021,-50.5106,-25.8995,-0.6904,18.1663,83.98179007048654,30.368114509204826,86.3261066096844,-28.44949510362413,-89.09539116753471,-36.2738291422526,3.918006066048499,3.5370877709719215,2.820331837871287,-6.629392835828993,-0.06785074869791667,3.9354705810546875,-2.2478,-1.393,-2.0015,-0.02096,-0.00036,0.04318,0.0009044685866683722,0.0010022870264947414,0.0009730266174301505,0.0004208328318782151,0.0005016982322558761,0.0005914793582633138,0.011742024682462215,0.008622992783784866,0.008466513827443123,passive,1
3.0411,rehab,small_fast,76.33322979855242,-666.6303658447134,254.67779192625588,-177.64896287544386,0.2898855304031504,-149.8512648498599,43.734,-0.033,-49.4985,-37.4974,-0.4928,30.169,84.0901236959023,30.467684906308012,86.40762026947324,-28.636322021484375,-89.09793429904514,-36.16756015353732,3.918006066048499,3.5370877709719215,2.9192699772296566,-6.670701768663195,-0.13570149739583334,3.8676198323567705,-2.3585,-1.4788,-1.7418,-0.0444,0.01638,0.04355,0.0009044685866683722,0.0010022870264947414,0.0009730266174301505,0.0004208328318782151,0.0005016982322558761,0.0005914793582633138,0.011742024682462215,0.008622992783784866,0.008466513827443123,passive,1
3.0611,rehab,small_fast,77.02797729293358,-666.6312373446752,253.8711513805252,-177.64942747638645,0.2902210055441237,-149.8525616711688,43.8321,-0.047,-49.5973,-29.1072,-0.0503,25.2428,84.15101759504563,30.52616534846844,86.45467248293433,-28.74301486545139,-89.09938388400607,-36.106558905707466,3.809169353825031,3.7003394400719367,2.946946550123762,-6.61346435546875,-0.13570149739583334,3.7319098578559027,-2.275,-1.3623,-2.0018,-0.02669,0.00544,0.04484,0.0009044685866683722,0.0010022870264947414,0.0009730266174301505,0.0004208328318782151,0.0005016982322558761,0.0005914793582633138,0.011742024682462215,0.008622992783784866,0.008466513827443123,passive,1
3.0809,rehab,small_fast,77.7243437126447,-666.6315568723325,253.05622240753502,-177.65076147789054,0.29110670033179337,-149.85352912657464,43.3852,-0.066,-49.3004,-5.9308,0.3508,6.6785,84.21205426206683,30.585448010133046,86.50150714534344,-28.849258422851562,-89.10089280870226,-36.04574415418837,3.754754396948484,3.7003394400719367,2.9354435382503095,-6.381827460394965,-0.06785074869791667,3.7319098578559027,-2.4643,-1.3588,-1.7823,-0.04045,0.01944,0.04637,0.0009044685866683722,0.0010022870264947414,0.0009730266174301505,0.0004208328318782151,0.0005016982322558761,0.0005914793582633138,0.011742024682462215,0.008622992783784866,0.008466513827443123,passive,1
3.101,rehab,small_fast,78.77362679829204,-666.6313330206639,251.84817407336106,-177.65154980191596,0.2916792448578424,-149.85454837503104,42.8343,-0.0663,-48.9427,12.8345,0.5273,-9.212,84.30399677540996,30.673834923470373,86.57066798446202,-29.00841606987847,-89.10305447048611,-35.95455593532986,3.754754396948484,3.5915027278484684,2.739144504660427,-6.660359700520833,-0.06785074869791667,3.799769083658854,-2.5133,-1.3295,-1.8768,-0.03631,0.01259,0.04276,0.0009044685866683722,0.0010022870264947414,0.0009730266174301505,0.0004208328318782151,0.0005016982322558761,0.0005914793582633138,0.011742024682462215,0.008622992783784866,0.008466513827443123,passive,1
3.1211,rehab,small_fast,79.48352563056348,-666.6302838977726,251.06315150049252,-177.6502974349651,0.29081084127330703,-149.85431080896268,42.5954,-0.0285,-48.61,23.9813,0.5626,-20.725,84.36618238392442,30.731689906356358,86.61576223845529,-29.114608764648438,-89.1044701470269,-35.89378356933594,3.809169353825031,3.5370877709719215,2.779493426332379,-6.753531561957465,-0.06785074869791667,3.8676198323567705,-2.3624,-1.2845,-1.8619,-0.03456,0.00345,0.04016,0.0009044685866683722,0.0010022870264947414,0.0009730266174301505,0.0004208328318782151,0.0005016982322558761,0.0005914793582633138,0.011742024682462215,0.008622992783784866,0.008466513827443123,passive,1
3.1414,rehab,small_fast,80.54726220776975,-666.6333170818415,249.8741430550471,-177.64935017713034,0.2900952663230343,-149.8538225438972,43.3021,0.0196,-48.9528,29.1011,0.6936,-24.986,84.45940980816832,30.82028077380492,86.68205412307589,-29.273249308268227,-89.1066657172309,-35.802807278103295,4.026835979801594,3.9724210229250465,2.763041128026377,-6.534305148654513,-0.20355224609375,3.7319098578559027,-2.3055,-1.3547,-2.7219,-0.03132,0.00824,0.05096,0.0009044685866683722,0.0010022870264947414,0.0009730266174301505,0.0004208328318782151,0.0005016982322558761,0.0005914793582633138,0.011742024682462215,0.008622992783784866,0.008466513827443123,passive,1
3.1614,rehab,small_fast,81.25823262744233,-666.637521634049,249.05545301834513,-177.65074137564957,0.291109489254568,-149.85414654732946,45.4619,0.0304,-50.9143,29.5669,0.6259,-21.2911,84.52173138609027,30.881752542930073,86.72596544322401,-29.37864515516493,-89.10812377929688,-35.74133978949653,3.918006066048499,3.8635911091719524,2.7948919617303525,-6.521860758463541,-0.06785074869791667,3.799769083658854,-2.2384,-1.2414,-1.8819,-0.02958,0.01451,0.04478,0.0009044685866683722,0.0010022870264947414,0.0009730266174301505,0.0004208328318782151,0.0005016982322558761,0.0005914793582633138,0.011742024682462215,0.008622992783784866,0.008466513827443123,passive,1
3.1812,rehab,small_fast,82.3377414620065,-666.6357800234563,247.82940559863616,-177.6528972022748,0.29267489986311584,-149.85368800553954,46.5015,0.0077,-51.8743,25.2402,0.0115,-13.5812,84.61627771358678,30.97354548992497,86.79218934314086,-29.53659905327691,-89.11031087239583,-35.64901563856337,3.8635911091719524,3.5915027278484684,2.697075569983756,-6.589753892686632,-0.13570149739583334,3.9354705810546875,-2.2512,-1.2912,-2.2334,-0.03209,0.01756,0.04099,0.0009044685866683722,0.0010022870264947414,0.0009730266174301505,0.0004208328318782151,0.0005016982322558761,0.0005914793582633138,0.011742024682462215,0.008622992783784866,0.008466513827443123,passive,1
3.2011,rehab,small_fast,83.06771395513574,-666.6311383471309,247.02307164255657,-177.65358456845232,0.2931992929035162,-149.85218657138307,45.847,-0.0194,-51.2146,15.6427,-0.7416,-4.1766,84.68016973816522,31.034038279316214,86.83590350764813,-29.641664293077255,-89.1117435031467,-35.5877939860026,4.135672692025062,3.64592448319539,2.8431339075069615,-6.636386447482638,-0.06785074869791667,3.8676198323567705,-2.2,-1.3919,-1.5282,-0.03337,0.01264,0.0395,0.0009044685866683722,0.0010022870264947414,0.0009730266174301505,0.0004208328318782151,0.0005016982322558761,0.0005914793582633138,0.011742024682462215,0.008622992783784866,0.008466513827443123,passive,1
3.2212,rehab,small_fast,84.14761561213403,-666.6267514336286,245.8365195442045,-177.65253972622673,0.29251747639333414,-149.85235754403453,45.7636,-0.0006,-50.9681,3.806,-0.8704,6.1306,84.77472286413212,31.123703305083925,86.9001558511564,-29.799440171983505,-89.11392211914062,-35.49481709798177,3.8635911091719524,3.7003394400719367,2.6499961626411666,-6.599434746636285,-0.06785074869791667,3.799769083658854,-2.2136,-1.2705,-1.8653,-0.04304,0.0101,0.04155,0.0009044685866683722,0.0010022870264947414,0.0009730266174301505,0.0004208328318782151,0.0005016982322558761,0.0005914793582633138,0.011742024682462215,0.008622992783784866,0.008466513827443123,passive,1
3.241,rehab,small_fast,84.86043966107252,-666.6306920005959,245.0581226771739,-177.65060938440482,0.2911211755694378,-149.85280476614733,45.674,0.0028,-50.3612,-7.993,-0.1613,19.2286,84.83720080687267,31.183597829082224,86.94110983669168,-29.904403686523438,-89.11543104383681,-35.433052910698784,3.8635911091719524,3.754754396948484,2.5358838374071784,-6.5039825439453125,-0.06785074869791667,3.8676198323567705,-2.1873,-1.2369,-2.2408,-0.03942,0.00554,0.03962,0.0009044685866683722,0.0010022870264947414,0.0009730266174301505,0.0004208328318782151,0.0005016982322558761,0.0005914793582633138,0.011742024682462215,0.008622992783784866,0.008466513827443123,passive,1
3.2611,rehab,small_fast,86.11293401580934,-666.6352789517306,243.66023536206305,-177.65038270140695,0.2909189868351176,-149.85499832985306,45.2249,-0.0486,-49.4962,-13.0412,0.6968,28.387,84.94695531259669,31.291346786045793,87.01287448996365,-30.087297227647568,-89.11812676323784,-35.32313876681857,3.918006066048499,3.9724210229250465,2.673716025777382,-6.581666734483507,-0.13570149739583334,4.0033213297526045,-2.1986,-1.3107,-1.8642,-0.04952,0.01142,0.04145,0.0009044685866683722,0.0010022870264947414,0.0009730266174301505,0.0004208328318782151,0.0005016982322558761,0.0005914793582633138,0.011742024682462215,0.008622992783784866,0.008466513827443123,passive,1
3.2812,rehab,small_fast,86.84058460828794,-666.6385807105323,242.84886375965513,-177.65109861260567,0.29139979100749774,-149.85552686945937,45.4159,-0.065,-49.6112,-4.5319,0.9835,22.7956,85.01071136776764,31.35440259876818,87.05327779939859,-30.191658867730034,-89.1196780734592,-35.260018242730034,4.026835979801594,3.9724210229250465,2.508805529906018,-6.62901136610243,-0.06785074869791667,3.8676198323567705,-2.217,-1.2803,-1.679,-0.046,0.0075,0.04208,0.0009044685866683722,0.0010022870264947414,0.0009730266174301505,0.0004208328318782151,0.0005016982322558761,0.0005914793582633138,0.011742024682462215,0.008622992783784866,0.008466513827443123,passive,1
3.3011,rehab,small_fast,87.58489626048144,-666.6351970241449,242.0407218379808,-177.65190214462456,0.29200139352463106,-149.85490716317642,45.8006,-0.0096,-49.8159,11.1915,0.719,7.3567,85.07585431089495,31.416975720093983,87.09388506294476,-30.295605129665798,-89.12118699815538,-35.19665188259548,4.081257735148514,3.8635911091719524,2.4860782434444615,-6.694810655381945,-0.06785074869791667,3.9354705810546875,-2.1336,-1.2483,-1.7098,-0.03664,0.00804,0.03777,0.0009044685866683722,0.0010022870264947414,0.0009730266174301505,0.0004208328318782151,0.0005016982322558761,0.0005914793582633138,0.011742024682462215,0.008622992783784866,0.008466513827443123,passive,1
3.321,rehab,small_fast,88.70843626844398,-666.632356037521,240.855844471263,-177.65081117650308,0.29128665600645537,-149.85408482175873,45.9956,0.0731,-49.5626,25.4512,0.4861,-7.4047,85.17420098333075,31.509740848352415,87.15279380873878,-30.451253255208332,-89.1234842936198,-35.10085211859809,4.190087648901609,3.918006066048499,2.397568957640393,-6.508856879340278,-0.06785074869791667,4.071180555555555,-2.1212,-1.1317,-2.1854,-0.03879,0.01548,0.03588,0.0009044685866683722,0.0010022870264947414,0.0009730266174301505,0.0004208328318782151,0.0005016982322558761,0.0005914793582633138,0.011742024682462215,0.008622992783784866,0.008466513827443123,passive,1
3.3409,rehab,small_fast,89.45647176009965,-666.6365282174488,240.05367236711646,-177.65055194962642,0.2910984144279726,-149.85359201993157,45.7923,0.1001,-48.6856,36.0596,0.4191,-15.2446,85.23972464079904,31.57343571728999,87.19094682447981,-30.555199517144096,-89.12505255805121,-35.03697713216146,4.026835979801594,3.8635911091719524,2.402402670076578,-6.330515543619791,-0.06785074869791667,4.071180555555555,-2.0768,-1.2228,-2.4735,-0.03824,0.02067,0.04226,0.0009044685866683722,0.0010022870264947414,0.0009730266174301505,0.0004208328318782151,0.0005016982322558761,0.0005914793582633138,0.011742024682462215,0.008622992783784866,0.008466513827443123,passive,1
3.3611,rehab,small_fast,90.58215350085219,-666.6328409137354,238.83216932347017,-177.65259981209945,0.29246717540151584,-149.85400582312025,46.2996,0.0531,-48.7068,42.6811,-0.0769,-15.2134,85.33825487193495,31.669715654731977,87.24916892476601,-30.709940592447914,-89.12748548719618,-34.93976169162326,4.244502605778156,4.081257735148514,2.45840846902073,-6.534907023111979,-0.13570149739583334,4.0033213297526045,-2.0972,-1.1434,-1.3139,-0.04844,0.02108,0.03232,0.0009044685866683722,0.0010022870264947414,0.0009730266174301505,0.0004208328318782151,0.0005016982322558761,0.0005914793582633138,0.011742024682462215,0.008622992783784866,0.008466513827443123,passive,1
3.3811,rehab,small_fast,91.35312070887623,-666.6263193971696,238.02642010421812,-177.65349669191409,0.2930773421677248,-149.85281181449233,48.3284,0.0032,-50.4636,42.7797,-0.7454,-10.4773,85.40568889957844,31.7334785083733,87.28737632827003,-30.81263224283854,-89.12909613715277,-34.87466600206163,4.4077542748781715,4.081257735148514,2.295802654606281,-6.467776828342013,-0.06785074869791667,4.206882052951388,-2.0719,-1.1981,-1.3888,-0.03984,0.00429,0.033,0.0009044685866683722,0.0010022870264947414,0.0009730266174301505,0.0004208328318782151,0.0005016982322558761,0.0005914793582633138,0.011742024682462215,0.008622992783784866,0.008466513827443123,passive,1
3.4011,rehab,small_fast,92.50503023381899,-666.6259880054631,236.84250814077663,-177.65207189212987,0.29210245478706065,-149.85275747379336,49.8462,-0.011,-51.3742,36.5107,-0.6901,-2.4015,85.5065102152305,31.828813458433245,87.34201563466894,-30.967076619466145,-89.13153754340277,-34.775611029730904,4.190087648901609,4.026835979801594,2.154659611163753,-6.251780192057291,-0.06785074869791667,4.206882052951388,-1.8664,-1.0777,-1.7519,-0.01705,0.01002,0.03476,0.0009044685866683722,0.0010022870264947414,0.0009730266174301505,0.0004208328318782151,0.0005016982322558761,0.0005914793582633138,0.011742024682462215,0.008622992783784866,0.008466513827443123,passive,1
3.421,rehab,small_fast,93.27575963680405,-666.6304938703878,236.06422886539812,-177.65023542028422,0.29077363804669865,-149.85304476913967,49.888,0.0029,-50.5973,30.231,0.1135,6.6675,85.57400542910736,31.89250152890045,87.37664704275603,-31.069505479600693,-89.1332499186198,-34.708964029947914,4.190087648901609,3.8635911091719524,2.1819214773650217,-6.42044915093316,-0.13570149739583334,4.274732801649305,-2.0363,-1.1392,-1.7225,-0.04709,0.02973,0.03422,0.0009044685866683722,0.0010022870264947414,0.0009730266174301505,0.0004208328318782151,0.0005016982322558761,0.0005914793582633138,0.011742024682462215,0.008622992783784866,0.008466513827443123,passive,1
3.4411,rehab,small_fast,94.45348308627827,-666.6357136500064,234.8731977778706,-177.65034942636072,0.29086365594300934,-149.85371339943703,50.2282,-0.0014,-49.8407,20.8542,0.8678,21.9868,85.67709743386447,31.990467486995282,87.4274180195119,-31.220915052625866,-89.13581000434027,-34.60689120822482,4.298924361125077,4.081257735148514,2.192826223845529,-6.309093899197048,-0.13570149739583334,4.410442776150173,-2.0185,-1.1892,-2.1876,-0.0518,0.02028,0.02787,0.0009044685866683722,0.0010022870264947414,0.0009730266174301505,0.0004208328318782151,0.0005016982322558761,0.0005914793582633138,0.011742024682462215,0.008622992783784866,0.008466513827443123,passive,1
3.4609,rehab,small_fast,95.25129766053504,-666.6345135718809,234.07507186065035,-177.65147727640525,0.29166818827621027,-149.85349394248487,50.3624,0.006,-49.1718,-2.4987,0.8578,49.8957,85.7468837322575,32.0561135169303,87.46096167233911,-31.320605807834202,-89.13751390245226,-34.53843858506944,4.298924361125077,4.026835979801594,2.061438985390238,-6.097954644097222,-0.13570149739583334,4.342592027452257,-1.6799,-1.1389,-1.9709,-0.02468,0.01113,0.03317,0.0009044685866683722,0.0010022870264947414,0.0009730266174301505,0.0004208328318782151,0.0005016982322558761,0.0005914793582633138,0.011742024682462215,0.008622992783784866,0.008466513827443123,passive,1
3.481,rehab,small_fast,96.64319253306789,-666.6291260689101,232.72144054642925,-177.65187305086044,0.2919432289397076,-149.85418809535443,49.7157,0.066,-47.7976,-22.3246,0.0975,69.838,85.8686103443108,32.16817950258161,87.51736858103534,-31.491911146375866,-89.1405741373698,-34.417928059895836,4.462176030225093,3.9724210229250465,1.9237971541905168,-6.000256008572048,-0.06785074869791667,4.274732801649305,-1.819,-1.1341,-1.6463,-0.03588,0.00451,0.03008,0.0009044685866683722,0.0010022870264947414,0.0009730266174301505,0.0004208328318782151,0.0005016982322558761,0.0005914793582633138,0.011742024682462215,0.008622992783784866,0.008466513827443123,passive,1
3.5013,rehab,small_fast,97.45051331263484,-666.6280020052343,231.9721093794894,-177.65094410150496,0.2913459366166987,-149.85361286207745,49.621,0.1063,-46.6867,-19.5422,-0.9262,66.7407,85.93920566067837,32.23130330000774,87.54726825374188,-31.587931315104164,-89.1423119439019,-34.348975287543404,4.571005943978187,3.9724210229250465,1.8224523563196162,-5.995068020290798,-0.13570149739583334,4.274732801649305,-1.8109,-1.1292,-1.6598,-0.03018,0.01646,0.03202,0.0009044685866683722,0.0010022870264947414,0.0009730266174301505,0.0004208328318782151,0.0005016982322558761,0.0005914793582633138,0.011742024682462215,0.008622992783784866,0.008466513827443123,passive,1
3.5213,rehab,small_fast,98.26736218879985,-666.6264972910978,231.2294808710878,-177.65067558918997,0.2911346709945293,-149.8520000994,50.1162,0.0596,-45.8978,-8.6063,-1.7748,61.9261,86.01062359196125,32.29439990355237,87.57568585990678,-31.681671142578125,-89.14410909016927,-34.28021748860677,4.462176030225093,3.918006066048499,1.694729493396117,-5.853983561197917,-0.06785074869791667,4.342592027452257,-1.7561,-1.0208,-1.6933,-0.03185,0.01118,0.03156,0.0009044685866683722,0.0010022870264947414,0.0009730266174301505,0.0004208328318782151,0.0005016982322558761,0.0005914793582633138,0.011742024682462215,0.008622992783784866,0.008466513827443123,passive,1
3.5408,rehab,small_fast,99.47558031426779,-666.6245353386629,230.12113538807716,-177.6526408736639,0.29242168134341207,-149.85148009107277,49.1043,-0.0256,-43.8536,0.9596,-2.0486,62.6081,86.116251426168,32.389048208104505,87.61617754945661,-31.817296346028645,-89.14683871799045,-34.1766357421875,4.353339318001624,3.8635911091719524,1.6587179958230198,-5.57814704047309,-0.13570149739583334,4.206882052951388,-1.8254,-1.0171,-1.9319,-0.03606,0.01126,0.02379,0.0009044685866683722,0.0010022870264947414,0.0009730266174301505,0.0004208328318782151,0.0005016982322558761,0.0005914793582633138,0.011742024682462215,0.008622992783784866,0.008466513827443123,passive,1
3.5612,rehab,small_fast,100.27071268113886,-666.6232052940026,229.4021620432184,-177.6541792341567,0.29346214440032325,-149.85171121405372,47.6102,-0.0955,-41.4273,8.6203,-1.6281,65.0776,86.18575218880531,32.45094148239287,87.6414678592493,-31.904500325520832,-89.14863586425781,-34.107886420355904,4.353339318001624,3.7003394400719367,1.5062554992071473,-5.25053236219618,-0.13570149739583334,4.206882052951388,-1.926,-0.9813,-1.2794,-0.04805,0.02197,0.02875,0.0009044685866683722,0.0010022870264947414,0.0009730266174301505,0.0004208328318782151,0.0005016982322558761,0.0005914793582633138,0.011742024682462215,0.008622992783784866,0.008466513827443123,passive,1
3.5811,rehab,small_fast,101.44419472158395,-666.6275900867498,228.40763374119354,-177.65197921078993,0.29202610581464783,-149.8543313138094,49.0172,-0.137,-41.4159,9.504,-0.6786,71.8842,86.28835470369546,32.538628153281635,87.674929930432,-32.03110588921441,-89.15134853786893,-34.00407579210069,4.135672692025062,3.64592448319539,1.3454580779122833,-5.188844468858507,-0.13570149739583334,4.274732801649305,-1.5714,-0.9792,-1.6215,-0.02712,0.01137,0.02578,0.0009044685866683722,0.0010022870264947414,0.0009730266174301505,0.0004208328318782151,0.0005016982322558761,0.0005914793582633138,0.011742024682462215,0.008622992783784866,0.008466513827443123,passive,1
