t,trajectory_type,trajectory_variant,x,y,z,rx,ry,rz,vx,vy,vz,ax,ay,az,j1,j2,j3,j4,j5,j6,dj1,dj2,dj3,dj4,dj5,dj6,fx,fy,fz,tx,ty,tz,Mx,My,Mz,Bx,By,Bz,Kx,Ky,Kz,mode,comfort
0.0005,rehab,mild_large_slow,86.0396214379,-666.7981823377,256.3484938359,-177.3865177921,0.1423199919,-149.9831186133,97.3268,3.0961,-109.3959,-59.1778,-128.7973,144.2535,79.6069367773,27.8735800195,82.7528681134,-23.5138630424,-89.0015628935,-39.350092401,-4.2494440444,-3.9445432406,-5.5140429802,8.3834487708,-2.8236028068,-6.0432400954,1.4035,-0.9871,4.2487,-0.02598,0.02219,0.01358,0.00115,0.0011,0.0012,0.0007,0.00074,0.00068,0.0145,0.0152,0.0158,passive,1
0.0205,rehab,mild_large_slow,87.9716068907,-666.7595305113,254.1819656761,-177.390169736,0.1426765393,-149.9862724401,95.8718,0.769,-107.2569,-86.3265,-103.9133,69.651,79.5045154423,27.8001624915,82.6512334513,-23.3545543404,-89.0281309343,-39.4504239123,-5.9926894538,-3.397209558,-4.6494232273,7.5474214211,0.1667987211,-3.989911036,1.4881,-1.0438,3.9556,-0.02396,0.02004,0.01106,0.00115,0.0011,0.0012,0.0007,0.00074,0.00068,0.0145,0.0152,0.0158,passive,1
0.0405,rehab,mild_large_slow,89.874491474,-666.7674207968,252.0582184246,-177.3882228094,0.1446253154,-149.9834206747,93.8737,-1.0604,-106.6099,-39.9239,8.112,-19.4875,79.3672291992,27.7376916371,82.5668911843,-23.2119661855,-88.9948909446,-39.5096888425,-5.333230575,-2.0066904808,-3.8254374589,6.6206976744,-0.219372624,-5.6774056533,1.5867,-1.0216,4.5634,-0.02989,0.02424,0.0162,0.00115,0.0011,0.0012,0.0007,0.00074,0.00068,0.0145,0.0152,0.0158,passive,1
0.0605,rehab,mild_large_slow,91.726556251,-666.801946038,249.9175700989,-177.3875264413,0.144730922,-149.9935329022,94.2748,1.0935,-108.0364,-60.9555,45.7357,0.9011,79.2911862193,27.7198948722,82.4982159529,-23.0897264335,-89.0369058393,-39.6775201385,-5.6181352276,-2.7618990949,-4.1024625896,5.3715978728,-1.1142606774,-6.3641491762,1.633,-1.3221,4.4848,-0.02966,0.02309,0.01394,0.00115,0.0011,0.0012,0.0007,0.00074,0.00068,0.0145,0.0152,0.0158,passive,1
0.0805,rehab,mild_large_slow,93.6454833291,-666.7236801168,247.7367629608,-177.3880260838,0.1434497971,-149.9863980726,91.4355,0.769,-106.5738,-128.5194,-48.5245,16.0612,79.1425037901,27.6272156733,82.4027926807,-22.9971022706,-89.0394613717,-39.7642548095,-6.7847310099,-3.1711116132,-4.6664783332,6.7344937721,-0.0230719059,-5.7140192114,1.3213,-0.8925,3.7428,-0.02039,0.01875,0.00775,0.00115,0.0011,0.0012,0.0007,0.00074,0.00068,0.0145,0.0152,0.0158,passive,1
0.1005,rehab,mild_large_slow,95.3839767848,-666.771184415,245.6546162816,-177.3935304624,0.146378582,-149.991309243,89.134,-0.8475,-107.3939,-109.3979,-2.6606,-28.8852,79.0197969789,27.5930504077,82.3115568196,-22.8203466826,-89.0378287155,-39.9060809069,-6.7797900559,-3.1469462743,-4.1306056343,6.8793417611,0.7824415834,-6.119992881,1.7219,-1.1283,4.5245,-0.03175,0.02404,0.01253,0.00115,0.0011,0.0012,0.0007,0.00074,0.00068,0.0145,0.0152,0.0158,passive,1
0.1205,rehab,mild_large_slow,97.2108442019,-666.7575787124,243.4410054394,-177.3894955486,0.1419082133,-149.9847113668,87.0596,0.6626,-107.7293,-47.003,28.1535,34.0746,78.8713121878,27.5013378224,82.2375684553,-22.7219286002,-89.0081637084,-40.0090545248,-6.0633644251,-4.2668497787,-3.7645051429,6.8412587521,0.230968224,-4.7789045797,2.0261,-1.376,4.7093,-0.03606,0.02222,0.01641,0.00115,0.0011,0.0012,0.0007,0.00074,0.00068,0.0145,0.0152,0.0158,passive,1
0.1405,rehab,mild_large_slow,98.8663607276,-666.7446797244,241.3454461512,-177.3905123083,0.1460076544,-149.98065456,87.2539,0.2787,-106.031,-40.6082,-26.4811,14.0443,78.7772624019,27.4223764166,82.1609766139,-22.5466963325,-89.0285899866,-40.0972370901,-5.6896137392,-3.7153695313,-3.5924111589,6.9166333027,-1.1650606766,-5.2953347884,1.8617,-1.172,4.5448,-0.03274,0.02245,0.01704,0.00115,0.0011,0.0012,0.0007,0.00074,0.00068,0.0145,0.0152,0.0158,passive,1
0.1605,rehab,mild_large_slow,100.7010002707,-666.7464316755,239.1997672464,-177.386356514,0.1410774621,-149.9832934968,85.4353,-0.3966,-107.1675,-200.1496,11.9684,-4.6461,78.6437276383,27.3527230411,82.093872009,-22.4452632681,-89.0547661355,-40.2208679163,-6.0435901802,-3.9582795575,-4.4732022431,6.1929764265,-0.3647388487,-5.8311403366,1.8445,-1.185,4.4655,-0.02796,0.02521,0.01547,0.00115,0.0011,0.0012,0.0007,0.00074,0.00068,0.0145,0.0152,0.0158,passive,1
0.1805,rehab,mild_large_slow,102.2837715231,-666.7605447971,237.0587468785,-177.3909007104,0.1417442245,-149.9866795881,79.2479,0.7574,-106.2168,-126.8576,16.2832,42.7096,78.5355187947,27.2640452343,81.9820485242,-22.2989772754,-89.0431795405,-40.3304827036,-5.7218960455,-2.7860138836,-4.8978919822,5.8745730981,0.5280640039,-4.7329257627,1.8591,-1.261,4.5295,-0.03269,0.0211,0.01332,0.00115,0.0011,0.0012,0.0007,0.00074,0.00068,0.0145,0.0152,0.0158,passive,1
0.2005,rehab,mild_large_slow,103.870916954,-666.7161352648,234.9510953189,-177.3865783894,0.1451386392,-149.9806274566,80.361,0.2547,-105.4591,17.0917,-46.4082,29.7089,78.4148517964,27.2412824858,81.8979563297,-22.2102803441,-89.0336435753,-40.4101849468,-6.0677622088,-2.2948079745,-4.3542268006,5.9255175583,-0.0733364946,-4.6164177425,1.9245,-1.1696,4.2685,-0.02844,0.02123,0.01682,0.00115,0.0011,0.0012,0.0007,0.00074,0.00068,0.0145,0.0152,0.0158,passive,1
0.2205,rehab,mild_large_slow,105.4982101921,-666.7503568109,232.8403828957,-177.3892521186,0.1439980885,-149.9855464782,79.9316,-1.0989,-105.0284,-86.2158,17.6536,-10.9922,78.2928083064,27.1722529153,81.8078794522,-22.0619565731,-89.0461130003,-40.5151394133,-5.66941659,-2.7017459283,-3.0212333404,6.3899788382,-0.2904719066,-4.4508070303,2.0818,-1.4099,4.7408,-0.03178,0.02165,0.01873,0.00115,0.0011,0.0012,0.0007,0.00074,0.00068,0.0145,0.0152,0.0158,passive,1
0.2405,rehab,mild_large_slow,107.0681804201,-666.7600919095,230.7499576067,-177.3848093763,0.1440975875,-149.9874858015,76.9123,0.9608,-105.8988,-113.2942,46.6846,32.2257,78.1880751328,27.1332126486,81.7771069961,-21.9546811906,-89.0452624516,-40.588217228,-5.7523896889,-2.5156372175,-3.9807362472,6.1577747865,-0.9845677133,-5.0599120883,2.0593,-1.2256,4.3321,-0.02674,0.01889,0.01559,0.00115,0.0011,0.0012,0.0007,0.00074,0.00068,0.0145,0.0152,0.0158,passive,1
0.2605,rehab,mild_large_slow,108.5747036368,-666.7119230356,228.6044313941,-177.3929787568,0.1410532724,-149.9817341503,75.3998,0.7685,-103.7394,-76.0782,-35.0877,107.5651,78.0627127188,27.0716274266,81.6486500023,-21.8156455816,-89.0854957088,-40.7175358968,-5.6717259915,-4.0570872821,-4.4724808692,7.6946290102,-0.3059742327,-5.5379956207,2.0109,-1.1963,4.1535,-0.02787,0.01649,0.01027,0.00115,0.0011,0.0012,0.0007,0.00074,0.00068,0.0145,0.0152,0.0158,passive,1
0.2805,rehab,mild_large_slow,110.084173224,-666.7293531667,226.6003810192,-177.390969765,0.1408925325,-149.9769136295,73.8692,-0.4427,-101.5962,-77.5643,-9.2776,26.2956,77.9612060932,26.9709291574,81.5982077613,-21.6468960302,-89.0575014209,-40.8097370528,-5.2626001749,-3.0892543371,-2.7826515096,6.7686631565,0.445550625,-5.1943929264,2.2335,-1.3143,4.446,-0.03026,0.02046,0.0167,0.00115,0.0011,0.0012,0.0007,0.00074,0.00068,0.0145,0.0152,0.0158,passive,1
0.3005,rehab,mild_large_slow,111.5294719078,-666.7296295849,224.5405840065,-177.3895340687,0.1460980671,-149.9813685261,72.2972,0.3974,-102.6876,-134.1331,31.179,-33.9136,77.8522087118,26.9480572531,81.5373439419,-21.5448990554,-89.0676736838,-40.9253116139,-6.5339747331,-1.8945748963,-4.3180474892,4.0915410905,0.2240491643,-5.178368403,2.1133,-1.1796,4.1638,-0.0291,0.02067,0.01553,0.00115,0.0011,0.0012,0.0007,0.00074,0.00068,0.0145,0.0152,0.0158,passive,1
0.3205,rehab,mild_large_slow,112.9760632053,-666.7134586288,222.4928773981,-177.3868509041,0.1422222431,-149.9876983999,68.5039,0.8045,-102.9527,-144.2002,12.6551,30.7729,77.6998471039,26.8951461615,81.4254858617,-21.4832343866,-89.0485394543,-41.016871789,-5.279632346,-3.028236237,-3.9646616192,4.5345993557,-0.654102424,-4.8136221479,2.3713,-1.3996,4.6908,-0.03107,0.01998,0.02041,0.00115,0.0011,0.0012,0.0007,0.00074,0.00068,0.0145,0.0152,0.0158,passive,1
0.3405,rehab,mild_large_slow,114.2696272157,-666.6974497974,220.4224747845,-177.3874123023,0.1437985773,-149.9873302645,66.5292,0.9036,-101.4567,-54.7266,2.7673,92.2941,77.641023418,26.8269278036,81.3787574771,-21.3635150812,-89.0938377808,-41.1178564998,-4.4989413253,-3.4097961032,-3.0007694786,6.4167044737,-0.3035827437,-4.1777305046,2.3277,-1.2805,4.4748,-0.0294,0.01944,0.01708,0.00115,0.0011,0.0012,0.0007,0.00074,0.00068,0.0145,0.0152,0.0158,passive,1
0.3605,rehab,mild_large_slow,115.6372328415,-666.6773159793,218.4346104603,-177.3906346964,0.1451208947,-149.9819607961,66.3148,0.9152,-99.261,-86.1762,-31.3625,69.8517,77.5198894508,26.7587543174,81.3054550826,-21.2265662076,-89.0606827641,-41.1839810091,-5.299110672,-3.586028806,-3.3492545544,5.9404730755,-0.3000802955,-4.1514698062,2.2505,-1.1414,4.2622,-0.0267,0.01949,0.01275,0.00115,0.0011,0.0012,0.0007,0.00074,0.00068,0.0145,0.0152,0.0158,passive,1
0.3805,rehab,mild_large_slow,116.9222198971,-666.660842342,216.4520360939,-177.3872652856,0.1416923816,-149.980651676,63.0822,-0.3509,-98.6626,-104.7126,-25.0047,33.0635,77.4290589911,26.6834866514,81.2447872949,-21.1258961581,-89.1058409926,-41.283915292,-4.5096021882,-2.3252534705,-2.5379658948,6.4517242545,-0.0773896528,-5.1140225297,2.3635,-1.2668,4.7362,-0.0303,0.01948,0.01599,0.00115,0.0011,0.0012,0.0007,0.00074,0.00068,0.0145,0.0152,0.0158,passive,1
0.4005,rehab,mild_large_slow,118.160520616,-666.6913532877,214.4881062236,-177.3873217881,0.1407864168,-149.9823122989,62.1263,-0.085,-97.9384,-77.7843,20.2978,73.9271,77.3395053633,26.6657441786,81.2039364468,-20.9684972374,-89.0637783502,-41.3885419103,-5.3081408237,-1.9532303555,-3.7989881522,6.3415704211,0.111920701,-4.9154111995,2.2393,-1.1304,4.2709,-0.02642,0.01446,0.01665,0.00115,0.0011,0.0012,0.0007,0.00074,0.00068,0.0145,0.0152,0.0158,passive,1
0.4205,rehab,mild_large_slow,119.4072723472,-666.6642424286,212.5344990018,-177.3944842259,0.140640402,-149.9822658861,59.9708,0.461,-95.7055,-93.436,3.4323,88.8047,77.2167333582,26.6053574372,81.0928277688,-20.8722333413,-89.1013641646,-41.48053174,-5.7955195804,-2.4101226237,-4.6302488512,5.1770584736,-1.5155366534,-4.1816803006,2.5169,-1.4122,4.7878,-0.03206,0.02261,0.01874,0.00115,0.0011,0.0012,0.0007,0.00074,0.00068,0.0145,0.0152,0.0158,passive,1
0.4405,rehab,mild_large_slow,120.5593535492,-666.6729141585,210.6598854107,-177.3913147163,0.1383815059,-149.9763813113,58.3889,0.0523,-94.3862,-54.1201,11.8381,17.6656,77.1076845801,26.5693392736,81.0187264927,-20.7614148985,-89.1243998163,-41.5558091224,-4.9788532498,-2.5310513142,-3.6577293765,5.0528406903,0.1083823748,-4.844224419,2.6307,-1.2947,4.2221,-0.02993,0.01548,0.01723,0.00115,0.0011,0.0012,0.0007,0.00074,0.00068,0.0145,0.0152,0.0158,passive,1
0.4605,rehab,mild_large_slow,121.7428271502,-666.6621508025,208.7590494185,-177.387574486,0.143828308,-149.9876241397,57.806,0.9345,-94.9989,-68.8439,2.9058,-16.1488,77.0175792282,26.5041153846,80.9465185938,-20.6701197137,-89.0970288696,-41.6743007168,-4.0099572597,-2.7087260754,-2.6865949077,5.1576859241,-0.4772573546,-4.1030527594,2.4373,-1.2181,4.3096,-0.02992,0.01631,0.01963,0.00115,0.0011,0.0012,0.0007,0.00074,0.00068,0.0145,0.0152,0.0158,passive,1
0.4805,rehab,mild_large_slow,122.8715942765,-666.6355340102,206.8599296262,-177.3840353807,0.1434209507,-149.9878129183,55.6351,0.1685,-95.0322,-94.3294,-53.9659,106.2362,76.9472862897,26.4609902306,80.9112626964,-20.5551074615,-89.1434901105,-41.7199312327,-3.1607537666,-2.0725092579,-2.3210495092,4.1410141476,-1.1282754189,-4.0096157041,2.6547,-1.2376,4.7775,-0.02865,0.0187,0.01809,0.00115,0.0011,0.0012,0.0007,0.00074,0.00068,0.0145,0.0152,0.0158,passive,1
0.5005,rehab,mild_large_slow,123.9682317628,-666.6554098649,204.9577617696,-177.3841911073,0.1401975337,-149.9785528873,54.0328,-1.2241,-90.7494,-87.065,-0.4954,142.7509,76.8911490775,26.4212150143,80.8536766134,-20.5044791478,-89.1421598863,-41.8346853449,-5.036964189,-2.4038802061,-3.4252397238,3.5040882356,0.4607818599,-4.6356630879,2.6213,-1.5034,4.6189,-0.03648,0.02019,0.02093,0.00115,0.0011,0.0012,0.0007,0.00074,0.00068,0.0145,0.0152,0.0158,passive,1
0.5205,rehab,mild_large_slow,125.0329079979,-666.6844993782,203.2299517659,-177.3850648009,0.1439018724,-149.9826721748,52.1525,0.1487,-89.3222,-82.1654,61.2765,-8.3653,76.7458077222,26.3648350224,80.7742531075,-20.4149439321,-89.1250588361,-41.9053577563,-5.2685643813,-3.5685587192,-4.0203433894,5.5373298735,-0.0238456791,-3.322203114,2.5711,-1.2283,4.082,-0.02873,0.02066,0.01778,0.00115,0.0011,0.0012,0.0007,0.00074,0.00068,0.0145,0.0152,0.0158,passive,1
0.5405,rehab,mild_large_slow,126.0543324361,-666.6494616445,201.384875639,-177.3873493784,0.1380385672,-149.9839675657,50.7462,1.2269,-91.0841,-87.3886,12.1783,-0.7937,76.6804065022,26.2784726655,80.6928628778,-20.2829859528,-89.1431137135,-41.9675734695,-3.5898884473,-2.8142460933,-3.5066859398,5.7086222715,0.7812814533,-4.1491875355,2.7599,-1.418,4.4493,-0.03538,0.01775,0.0208,0.00115,0.0011,0.0012,0.0007,0.00074,0.00068,0.0145,0.0152,0.0158,passive,1
0.5605,rehab,mild_large_slow,127.06275707,-666.63542233,199.5865894248,-177.3884312039,0.141616818,-149.9839821429,48.657,0.6358,-89.3539,-112.9803,-25.2937,128.8713,76.6022121843,26.2522651786,80.6339856699,-20.1865990413,-89.093807578,-42.0713252577,-4.2626060393,-0.8863498298,-2.2175487106,5.0005838403,-0.0231018507,-5.043328448,2.8402,-1.4004,4.5729,-0.03238,0.02051,0.01599,0.00115,0.0011,0.0012,0.0007,0.00074,0.00068,0.0145,0.0152,0.0158,passive,1
0.5805,rehab,mild_large_slow,128.0006112836,-666.6240281206,197.8107195364,-177.3874885882,0.1431350983,-149.9866227581,46.227,0.2152,-85.9292,-634.524,1.3194,1241.5806,76.5099022607,26.2430186723,80.6041609294,-20.0829625992,-89.1440377875,-42.1693066074,-4.7665794699,-2.2165559814,-2.7100973003,3.88104899,-1.4855398191,-3.5707503623,2.6952,-1.2802,4.5168,-0.02997,0.02021,0.01663,0.00115,0.0011,0.0012,0.0007,0.00074,0.00068,0.0145,0.0152,0.0158,passive,1
0.6005,rehab,mild_large_slow,128.9118376144,-666.6268152252,196.1494211279,-177.3871587899,0.1415151199,-149.9820393432,23.276,0.6886,-39.6907,-650.0589,10.1098,1230.2728,76.4115490055,26.1636029394,80.5255817779,-20.0313570816,-89.1532291707,-42.2141552722,-2.5160645793,-1.7522839132,-1.7409375534,1.8580472735,0.3143512466,-1.1675730822,2.7834,-1.4073,4.3115,-0.03224,0.01288,0.01842,0.00115,0.0011,0.0012,0.0007,0.00074,0.00068,0.0145,0.0152,0.0158,passive,1
0.6205,rehab,mild_large_slow,128.9316518053,-666.5964836177,196.2230924033,-177.3870744624,0.1448462928,-149.9795778482,20.2247,0.6196,-36.7183,433.1019,-15.7318,-924.4046,76.4092596775,26.1729273158,80.5345234273,-20.0086407083,-89.1314637377,-42.2160095307,-1.0520943593,-1.8435241142,-0.7234648883,3.3086109265,-0.0447618799,-2.2445183144,2.4921,-1.2257,3.9499,-0.02778,0.0178,0.01451,0.00115,0.0011,0.0012,0.0007,0.00074,0.00068,0.0145,0.0152,0.0158,passive,1
0.6405,rehab,mild_large_slow,129.7208239897,-666.6020324874,194.680689268,-177.3898146901,0.1423961473,-149.9772181691,40.6001,0.0593,-76.6669,487.1425,-6.203,-965.3,76.3694652311,26.0898619748,80.4966431823,-19.8990126446,-89.1550196459,-42.3039360047,-3.7148082921,-2.7090385519,-2.2732484566,4.5270741978,-0.8192106559,-3.3567363222,2.9901,-1.339,4.6505,-0.0297,0.01895,0.01804,0.00115,0.0011,0.0012,0.0007,0.00074,0.00068,0.0145,0.0152,0.0158,passive,1
0.6605,rehab,mild_large_slow,130.55565541,-666.5941099152,193.1564179268,-177.3895714946,0.1444895178,-149.9850079212,39.7104,0.3714,-75.3303,-22.2482,11.9453,48.2544,76.2606673458,26.0645657737,80.443593489,-19.8275577404,-89.1642321639,-42.3502789836,-4.3102104706,-0.2866885452,-2.7000360195,3.2685301689,-0.8364478222,-2.8239664281,2.8098,-1.3729,4.1994,-0.0277,0.01831,0.01865,0.00115,0.0011,0.0012,0.0007,0.00074,0.00068,0.0145,0.0152,0.0158,passive,1
0.6805,rehab,mild_large_slow,131.3092383672,-666.5871745512,191.6674773593,-177.3887504554,0.1433944894,-149.9768671218,39.7102,0.5372,-74.7367,-55.1174,27.4662,48.6741,76.1970568123,26.078394433,80.3886417416,-19.7682714378,-89.1884775588,-42.4168946619,-3.116717688,-0.8610493193,-2.685224738,3.3430550398,0.54111373,-3.3536806535,3.0887,-1.292,4.4908,-0.03247,0.01798,0.0169,0.00115,0.0011,0.0012,0.0007,0.00074,0.00068,0.0145,0.0152,0.0158,passive,1
0.7005,rehab,mild_large_slow,132.1440618939,-666.5726237529,190.1669504846,-177.3853811798,0.1400500625,-149.9812366234,37.5057,1.4701,-73.3833,-118.4709,-15.777,102.15,76.1359986383,26.0301238009,80.3361844995,-19.6938355388,-89.1425876147,-42.4844262097,-4.5657546336,-3.0980684704,-1.8072040724,3.432031257,0.2617959677,-2.6527960016,2.8777,-1.2082,4.6096,-0.03105,0.0147,0.01888,0.00115,0.0011,0.0012,0.0007,0.00074,0.00068,0.0145,0.0152,0.0158,passive,1
0.7205,rehab,mild_large_slow,132.8094648597,-666.5283706409,188.7321440403,-177.3900338884,0.1400353618,-149.9901318168,34.9713,-0.0939,-70.6507,-51.024,-53.049,103.1458,76.0144266269,25.9544716942,80.3163535787,-19.6309901876,-89.1780057201,-42.5230065019,-3.2503937746,-1.8853867645,-2.7370191368,3.5773173085,-0.8840515437,-2.8085819197,3.2747,-1.3869,4.6367,-0.03133,0.02075,0.02297,0.00115,0.0011,0.0012,0.0007,0.00074,0.00068,0.0145,0.0152,0.0158,passive,1
0.7405,rehab,mild_large_slow,133.5429149451,-666.5763808345,187.3409230525,-177.3864308101,0.1422594831,-149.9808991372,35.4647,-0.6519,-69.2575,-34.2203,5.4218,45.4667,76.0059828873,25.9547083304,80.226703734,-19.5507428464,-89.1779496765,-42.5967694865,-1.8588101847,-1.5370147573,-2.5409923142,4.3760506273,-0.1866492502,-3.638137582,2.8846,-1.446,4.4318,-0.03322,0.01753,0.02168,0.00115,0.0011,0.0012,0.0007,0.00074,0.00068,0.0145,0.0152,0.0158,passive,1
0.7605,rehab,mild_large_slow,134.2280529699,-666.5544450708,185.9618440811,-177.3828752465,0.1452414781,-149.9782387303,33.6025,0.1229,-68.832,-89.4743,18.754,44.5066,75.9400742195,25.8929911039,80.2147138861,-19.4559481625,-89.1854716901,-42.6685320052,-3.9917159645,-2.4148421319,-1.9630487293,4.6542571149,-0.0898857617,-3.2149059366,3.1959,-1.3468,4.5362,-0.03327,0.01894,0.02348,0.00115,0.0011,0.0012,0.0007,0.00074,0.00068,0.0145,0.0152,0.0158,passive,1
0.7805,rehab,mild_large_slow,134.887015454,-666.5714630826,184.5876423874,-177.3861695244,0.1427094723,-149.9803569786,31.8857,0.0983,-67.4772,-74.9007,-10.0615,107.6941,75.8463142487,25.8581146451,80.1481817849,-19.3645725618,-89.1815451069,-42.725365724,-4.1747289424,-1.917007322,-2.6336657262,3.585292095,-0.2429992747,-2.7530396996,3.3419,-1.4792,4.7831,-0.03821,0.01739,0.0222,0.00115,0.0011,0.0012,0.0007,0.00074,0.00068,0.0145,0.0152,0.0158,passive,1
0.8005,rehab,mild_large_slow,135.5034821283,-666.5505130293,183.2627546931,-177.3825923321,0.1413538882,-149.9782735348,30.6065,-0.2795,-64.5243,-45.1645,15.872,67.9826,75.7730850618,25.816310811,80.1093672571,-19.3125364787,-89.1951916611,-42.7786535932,-3.1990202449,-1.1051698853,-1.4889784208,2.0592863815,-0.4693608466,-2.5025747883,3.4766,-1.387,4.7457,-0.02906,0.0197,0.02349,0.00115,0.0011,0.0012,0.0007,0.00074,0.00068,0.0145,0.0152,0.0158,passive,1
0.8205,rehab,mild_large_slow,136.1112748707,-666.5826437622,182.0066722279,-177.3875103144,0.1420183282,-149.9812424083,30.0791,0.7332,-64.7579,-9.7945,37.9543,11.4697,75.7183534389,25.8139078497,80.088622648,-19.2822011066,-89.2003195408,-42.8254687155,-2.5588121212,-2.2108872996,-1.5982929315,3.2847294228,0.5876054705,-1.8831584799,3.2069,-1.3613,4.1716,-0.02972,0.01217,0.0215,0.00115,0.0011,0.0012,0.0007,0.00074,0.00068,0.0145,0.0152,0.0158,passive,1
0.8405,rehab,mild_large_slow,136.7066481082,-666.5211858379,180.672437445,-177.3825935924,0.1393113211,-149.9753578015,30.2147,1.2387,-64.0655,-16.0756,-34.6891,142.0358,75.670732577,25.727875319,80.0454355398,-19.1811473017,-89.1716874423,-42.8539799324,-2.7778450262,-2.1633995138,-2.4650955629,3.6768977719,1.1012390093,-3.4370709228,3.0778,-1.2717,4.3458,-0.03322,0.01573,0.02194,0.00115,0.0011,0.0012,0.0007,0.00074,0.00068,0.0145,0.0152,0.0158,passive,1
0.8605,rehab,mild_large_slow,137.3198631269,-666.533097627,179.444053584,-177.3890351206,0.1449519276,-149.9812763828,29.4361,-0.6544,-59.0765,-88.7065,-27.6545,132.1074,75.6072396379,25.7273718691,79.9900188255,-19.1351251957,-89.1562699804,-42.9629515524,-2.7975339284,-0.7209785998,-2.6888538809,2.8930535129,-0.53332337,-3.2360233719,3.1602,-1.3032,4.3024,-0.02744,0.01556,0.02054,0.00115,0.0011,0.0012,0.0007,0.00074,0.00068,0.0145,0.0152,0.0158,passive,1
0.8805,rehab,mild_large_slow,137.884093116,-666.547361163,178.3093774181,-177.3817746752,0.143269927,-149.9811665555,26.6664,0.1325,-58.7812,-120.9798,30.0961,6.6026,75.5588312199,25.699036175,79.9378813846,-19.0654251612,-89.1930203771,-42.9834208673,-2.8960574555,-1.3465545351,-2.4162249256,3.2312797886,-0.3562525244,-1.9692214971,2.9145,-1.231,4.0452,-0.02604,0.01284,0.0172,0.00115,0.0011,0.0012,0.0007,0.00074,0.00068,0.0145,0.0152,0.0158,passive,1
0.9005,rehab,mild_large_slow,138.3865209098,-666.5277986396,177.0928067725,-177.3836265494,0.1433135889,-149.9795545871,24.5969,0.5495,-58.8124,-23.8861,4.2645,45.4235,75.4913973397,25.6735096877,79.8933698285,-19.0058740042,-89.1705200814,-43.0417204123,-2.8851569578,-1.2210551102,-1.1243630777,2.3688303757,-0.2161354278,-1.008939874,3.1346,-1.408,4.0868,-0.02789,0.01782,0.02287,0.00115,0.0011,0.0012,0.0007,0.00074,0.00068,0.0145,0.0152,0.0158,passive,1
0.9205,rehab,mild_large_slow,138.867970451,-666.5253827469,175.9568814805,-177.3827226505,0.1449901659,-149.9787925589,25.711,0.3031,-56.9642,18.8439,-20.5696,80.0981,75.4434249415,25.6501939706,79.8929068614,-18.9706719462,-89.2016657942,-43.0237784622,-2.7084526154,-2.6316224069,-1.4120664897,2.7987773026,-1.28715636,-1.9185272094,3.3511,-1.4293,4.3441,-0.02747,0.01658,0.02104,0.00115,0.0011,0.0012,0.0007,0.00074,0.00068,0.0145,0.0152,0.0158,passive,1
0.9405,rehab,mild_large_slow,139.4149609282,-666.5156764022,174.8142375714,-177.3872603554,0.1421220777,-149.9860040425,25.3507,-0.2733,-55.6085,-58.0483,-15.0393,86.6999,75.3830592351,25.5682447914,79.8368871689,-18.8939229121,-89.2220063358,-43.1184615007,-2.677102635,-2.7625352298,-2.1403370385,3.6610904033,0.8609233883,-4.6422288578,3.5255,-1.3733,4.4545,-0.0296,0.01652,0.02092,0.00115,0.0011,0.0012,0.0007,0.00074,0.00068,0.0145,0.0152,0.0158,passive,1
0.9605,rehab,mild_large_slow,139.881998083,-666.5363156231,173.7325425383,-177.3842330138,0.1435855288,-149.9794142808,23.3891,-0.2985,-53.4962,-60.7456,18.6086,93.931,75.3363408361,25.5396925614,79.8072933799,-18.8242283301,-89.1672288587,-43.2094676165,-2.5227146648,0.2277826913,-1.6526964735,2.5353730574,1.14423628,-2.3358006766,3.3722,-1.4134,4.3763,-0.03359,0.01461,0.0235,0.00115,0.0011,0.0012,0.0007,0.00074,0.00068,0.0145,0.0152,0.0158,passive,1
0.9805,rehab,mild_large_slow,140.3505237343,-666.5276169971,172.6743882886,-177.3819240233,0.1384699988,-149.982356517,22.9209,0.471,-51.8512,-27.2604,32.4505,29.6279,75.2821506485,25.5773560991,79.77077931,-18.7925079898,-89.1762368846,-43.2118935278,-2.234487588,-0.9683133753,-2.1849664338,2.5854338283,-0.8832216559,-1.2440207016,3.6683,-1.5791,4.6587,-0.03512,0.01543,0.02246,0.00115,0.0011,0.0012,0.0007,0.00074,0.00068,0.0145,0.0152,0.0158,passive,1
1.0005,rehab,mild_large_slow,140.7988328233,-666.5174747229,171.658493206,-177.3811328089,0.1392915423,-149.979257492,22.2987,0.9995,-52.3111,-50.9637,-2.2499,18.5162,75.2469613326,25.5009600264,79.7198947226,-18.7208109769,-89.2025577249,-43.2592284446,-2.9721709464,-2.7565214669,-2.276956522,3.0294809873,-0.6046110771,-2.217440243,3.1927,-1.3545,4.2689,-0.03071,0.01549,0.01883,0.00115,0.0011,0.0012,0.0007,0.00074,0.00068,0.0145,0.0152,0.0158,passive,1
1.0205,rehab,mild_large_slow,141.2424699613,-666.4876368682,170.5819437066,-177.3835530956,0.1455161762,-149.9778210469,20.8823,0.381,-51.1106,-51.7341,-7.8954,109.2453,75.1632638106,25.4670952404,79.6797010491,-18.6713287503,-89.2004213277,-43.3005911375,-2.8648494397,-0.409491472,-0.8965655568,2.5943354448,0.2254846729,-2.6481490209,3.3308,-1.2876,3.9416,-0.02943,0.01794,0.02188,0.00115,0.0011,0.0012,0.0007,0.00074,0.00068,0.0145,0.0152,0.0158,passive,1
1.0405,rehab,mild_large_slow,141.634125571,-666.5022337267,169.6140697578,-177.383545597,0.144087512,-149.9792609239,20.2293,0.6837,-47.9413,0.5911,-2.2854,123.6652,75.132367355,25.4845803675,79.6840321003,-18.6170375591,-89.193538338,-43.3651544054,-1.5416718948,0.4066467127,-0.6637295841,1.8458490703,-0.2749005474,-2.1319837783,3.579,-1.5142,4.4349,-0.02901,0.0169,0.02458,0.00115,0.0011,0.0012,0.0007,0.00074,0.00068,0.0145,0.0152,0.0158,passive,1
1.0605,rehab,mild_large_slow,142.0516416352,-666.4602893576,168.664291632,-177.3831594566,0.1443746244,-149.9826238511,20.906,0.2896,-46.164,-57.3382,-37.9735,51.1379,75.1015969348,25.4833611089,79.6531518657,-18.5974947875,-89.2114173496,-43.3858704886,-1.7553629628,-0.8558011938,-3.0973197223,1.6099921497,-0.8862562347,-1.8640972138,3.605,-1.5003,4.3024,-0.03027,0.01721,0.02613,0.00115,0.0011,0.0012,0.0007,0.00074,0.00068,0.0145,0.0152,0.0158,passive,1
1.0805,rehab,mild_large_slow,142.470364124,-666.4906493957,167.7675106723,-177.3879311891,0.1410248944,-149.9831520065,17.9358,-0.8353,-45.8958,-100.7998,-9.607,12.3092,75.0621528365,25.4503483198,79.5601393114,-18.5526378732,-89.2289885874,-43.439718294,-2.1637548226,-2.2301429349,-2.1845330248,3.2421855134,0.1079521865,-1.8882359032,3.4945,-1.43,4.1663,-0.03058,0.01503,0.02372,0.00115,0.0011,0.0012,0.0007,0.00074,0.00068,0.0145,0.0152,0.0158,passive,1
1.1005,rehab,mild_large_slow,142.7690721245,-666.4936993755,166.8284602088,-177.3903228915,0.1435335647,-149.9809242488,16.874,-0.0947,-45.6716,22.64,24.177,71.1386,75.0150467419,25.3941553915,79.5657705447,-18.4678073669,-89.2070992621,-43.4613999247,-1.9942717266,-2.0020328601,0.3447798652,2.7363767823,1.1413214481,-1.594404834,3.4251,-1.5097,4.2216,-0.03197,0.01702,0.02439,0.00115,0.0011,0.0012,0.0007,0.00074,0.00068,0.0145,0.0152,0.0158,passive,1
1.1205,rehab,mild_large_slow,143.1453230211,-666.4944362894,165.9406462333,-177.3836749338,0.1408283639,-149.9782585367,18.8414,0.1318,-43.0502,-23.0858,-5.3195,94.3361,74.9823819675,25.3702670054,79.573930506,-18.4431828019,-89.1833357294,-43.5034944873,-2.816150361,-0.1823860064,-0.7836808615,1.7755138016,-0.4641514455,-2.1542816464,3.462,-1.3503,4.0661,-0.02861,0.01356,0.02396,0.00115,0.0011,0.0012,0.0007,0.00074,0.00068,0.0145,0.0152,0.0158,passive,1
1.1405,rehab,mild_large_slow,143.5227266579,-666.4884261225,165.1064506194,-177.3828521876,0.1418647094,-149.9808796511,15.9505,-0.3075,-41.8982,-101.6375,-6.1254,64.7315,74.9024007275,25.3868599513,79.5344233103,-18.3967868149,-89.2256653199,-43.5475711906,-2.7317341017,-1.2315680299,-1.6283404301,2.960843671,-0.4738745843,-1.907618322,3.7794,-1.4614,4.5653,-0.0309,0.01659,0.02696,0.00115,0.0011,0.0012,0.0007,0.00074,0.00068,0.0145,0.0152,0.0158,passive,1
1.1605,rehab,mild_large_slow,143.7833446914,-666.5067343286,164.2647194913,-177.3837118427,0.1437720225,-149.9775734341,14.7759,-0.1132,-40.461,16.4249,5.7766,72.8752,74.8731126034,25.3210042842,79.5087968888,-18.324749055,-89.2022907128,-43.5797992202,-0.6431522566,-1.5920931128,-2.1794004551,1.9427623867,0.1375447069,-1.3903473409,3.5547,-1.4784,4.137,-0.03349,0.01575,0.02447,0.00115,0.0011,0.0012,0.0007,0.00074,0.00068,0.0145,0.0152,0.0158,passive,1
1.1805,rehab,mild_large_slow,144.1137612408,-666.492953451,163.4880114908,-177.3794693485,0.1376816331,-149.9829820286,16.6075,-0.0764,-38.9832,14.1819,33.1984,37.0605,74.8766746372,25.3231762268,79.4472472921,-18.3190763194,-89.2201635317,-43.6031850842,-0.4184045621,-0.5204889008,-1.606061464,1.1519536412,-0.5893992201,-2.2701139272,3.2868,-1.2455,4.1489,-0.03036,0.01387,0.02306,0.00115,0.0011,0.0012,0.0007,0.00074,0.00068,0.0145,0.0152,0.0158,passive,1
1.2005,rehab,mild_large_slow,144.4476462706,-666.5097898468,162.7053930867,-177.3807757772,0.141569695,-149.9779747245,15.3431,1.2148,-38.9786,-71.5108,15.5421,72.7313,74.8563764209,25.3001847282,79.4445544302,-18.2786709094,-89.2258666816,-43.6706037773,-3.0420395802,-1.7211742569,-0.6893791721,2.5732059036,-0.3977736961,-1.2921398326,3.5861,-1.2759,4.2894,-0.02955,0.01418,0.02389,0.00115,0.0011,0.0012,0.0007,0.00074,0.00068,0.0145,0.0152,0.0158,passive,1
1.2205,rehab,mild_large_slow,144.7274868672,-666.4443633778,161.9288691869,-177.3861887534,0.1403297955,-149.9781569036,13.7471,0.5453,-36.0739,1030.4972,-30.7669,-2831.0265,74.754993054,25.2543292565,79.4196721252,-18.2161480833,-89.2360744795,-43.6548706775,-2.4576860382,-1.6672871929,-0.956934352,1.1235003902,0.3955234793,-0.3375531736,3.8058,-1.4538,4.3879,-0.02793,0.01396,0.02026,0.00115,0.0011,0.0012,0.0007,0.00074,0.00068,0.0145,0.0152,0.0158,passive,1
1.2405,rehab,mild_large_slow,144.9975306379,-666.4879779906,161.2624367623,-177.3879647278,0.1417728073,-149.9787150882,56.563,-0.0159,-152.2196,1079.7056,1.7331,-2893.4608,74.7580689794,25.2334932404,79.4062770562,-18.2337308938,-89.2100457425,-43.6841059043,-6.4764519382,-3.5055270098,-4.4278993402,6.5543120906,-0.0673488192,-6.7824613794,4.1506,-1.5083,4.7255,-0.03344,0.0173,0.02359,0.00115,0.0011,0.0012,0.0007,0.00074,0.00068,0.0145,0.0152,0.0158,passive,1
1.2605,rehab,mild_large_slow,146.9900080062,-666.4450004235,155.8400844982,-177.3867544162,0.1427597347,-149.9771625774,56.9353,0.6146,-151.8123,-1093.0241,-7.9263,2936.802,74.4959349765,25.1141081761,79.2425561516,-17.9539755996,-89.2387684323,-43.9261691327,-7.6208014432,-3.3477766154,-4.4974391552,8.532483807,-1.1511118319,-6.8272626956,4.0587,-1.6632,4.947,-0.03573,0.01754,0.02999,0.00115,0.0011,0.0012,0.0007,0.00074,0.00068,0.0145,0.0152,0.0158,passive,1
1.2805,rehab,mild_large_slow,147.2749439451,-666.4633931257,155.1899431231,-177.3866600779,0.1427713662,-149.9756524353,12.8421,-0.333,-34.7475,-1139.8439,-5.4656,2925.2813,74.4532369217,25.0995821758,79.22637949,-17.8924315415,-89.2560902157,-43.9571964121,-1.9376971374,-0.0984767705,-1.5174322363,2.4480729673,0.7106328375,-2.395598166,3.661,-1.3751,4.1915,-0.03319,0.01673,0.02455,0.00115,0.0011,0.0012,0.0007,0.00074,0.00068,0.0145,0.0152,0.0158,passive,1
1.3005,rehab,mild_large_slow,147.5036905183,-666.4583195955,154.4501829319,-177.3821416712,0.1438482099,-149.9741937936,11.3416,0.396,-34.8011,-29.8081,5.6967,99.8391,74.418427091,25.1101691053,79.1818588621,-17.8560526809,-89.2103431188,-44.0219930594,-1.0759121373,-0.838124011,-1.4961681481,1.0185302666,1.1181795932,-1.3365237696,3.4927,-1.5106,4.054,-0.03311,0.01613,0.02336,0.00115,0.0011,0.0012,0.0007,0.00074,0.00068,0.0145,0.0152,0.0158,passive,1
1.3205,rehab,mild_large_slow,147.7286070202,-666.4475531446,153.7978996358,-177.3862739647,0.1400196111,-149.9754106249,11.6497,-0.1051,-30.754,-0.5213,-9.6709,118.5857,74.4102004362,25.0660572154,79.166532764,-17.8516903308,-89.211363032,-44.0106573629,-0.8517416062,-0.5364791653,-0.0964910822,1.4785255191,-1.2035997731,-0.7507995087,3.8111,-1.5807,4.1359,-0.03292,0.01538,0.02419,0.00115,0.0011,0.0012,0.0007,0.00074,0.00068,0.0145,0.0152,0.0158,passive,1
1.3405,rehab,mild_large_slow,147.9696800165,-666.4625239781,153.2200239527,-177.3821944168,0.1417479857,-149.9793887722,11.3207,0.0092,-30.0577,-45.2765,-0.9172,38.7861,74.3843574267,25.0887099387,79.1779992188,-17.7969116602,-89.2584871097,-44.0520250397,-1.7993992929,-0.6398357575,-0.5554426597,2.2070248931,-0.4628181851,-0.7715039645,3.5786,-1.4319,3.9827,-0.03059,0.014,0.02039,0.00115,0.0011,0.0012,0.0007,0.00074,0.00068,0.0145,0.0152,0.0158,passive,1
1.3605,rehab,mild_large_slow,148.1814360352,-666.4471865393,152.5955932596,-177.3802225497,0.1464934449,-149.981862151,9.8387,-0.1418,-29.2025,-54.5214,11.3871,118.6489,74.3382244645,25.0404637851,79.1443150576,-17.7634093351,-89.2298757594,-44.0415175214,-1.3405678907,-2.3235347407,-2.2679393911,0.8802195301,0.5025069833,-0.7035459378,3.6681,-1.4135,3.988,-0.03413,0.01155,0.02517,0.00115,0.0011,0.0012,0.0007,0.00074,0.00068,0.0145,0.0152,0.0158,passive,1
1.3805,rehab,mild_large_slow,148.3632270979,-666.4681958667,152.0519227393,-177.380879904,0.1448973913,-149.9788099613,9.1399,0.4646,-25.3117,-40.814,19.3628,109.9595,74.3307347111,24.995768549,79.0872816432,-17.761702879,-89.2383868304,-44.0801668772,-0.3125936788,-0.1069649398,-1.1994581738,1.385625787,-0.7462826666,-1.424113741,4.0398,-1.262,4.2663,-0.0322,0.01523,0.02769,0.00115,0.0011,0.0012,0.0007,0.00074,0.00068,0.0145,0.0152,0.0158,passive,1
1.4005,rehab,mild_large_slow,148.5470308353,-666.4286005452,151.5831250491,-177.3895236269,0.1446432575,-149.976408473,8.2061,0.6327,-24.8041,-48.8668,-33.1796,106.4031,74.3257207173,25.0361851875,79.0963367307,-17.7079843036,-89.2597270661,-44.0984820711,-0.1028760846,1.0450469176,-0.3723888071,1.6725586757,-0.2003080013,-1.4019981843,3.7004,-1.3787,4.0781,-0.03067,0.01392,0.02647,0.00115,0.0011,0.0012,0.0007,0.00074,0.00068,0.0145,0.0152,0.0158,passive,1
1.4205,rehab,mild_large_slow,148.6914717582,-666.4428872028,151.0597567481,-177.3829668696,0.14340288,-149.9772200847,7.1852,-0.8625,-21.0556,-10.948,-39.1667,107.3247,74.3266196677,25.0375704257,79.0723860909,-17.694800532,-89.2463991504,-44.1362468046,-0.8447528206,-0.6448840392,-0.3805273294,1.4401610075,0.5074156951,-0.8366840143,3.6563,-1.3578,3.9628,-0.02986,0.01168,0.0256,0.00115,0.0011,0.0012,0.0007,0.00074,0.00068,0.0145,0.0152,0.0158,passive,1
1.4405,rehab,mild_large_slow,148.8344387382,-666.4631019028,150.7409017996,-177.3827434941,0.1407393729,-149.9773255786,7.7682,-0.934,-20.5112,28.727,18.924,4.5631,74.2919306045,25.0103898259,79.0811156375,-17.6503778633,-89.2394304383,-44.1319494317,-2.2060277876,-0.8929768527,-0.7244501288,1.5268629482,0.0187416746,-1.1046490416,3.7795,-1.2614,3.9084,-0.02832,0.01345,0.02312,0.00115,0.0011,0.0012,0.0007,0.00074,0.00068,0.0145,0.0152,0.0158,passive,1
1.4605,rehab,mild_large_slow,149.0021996402,-666.4802452825,150.2393102633,-177.3810739764,0.1436204829,-149.9772599058,8.3343,-0.1056,-20.8731,-50.8116,39.472,81.8713,74.2383785562,25.0018513516,79.0434080857,-17.633726014,-89.2456494834,-44.1804327662,-1.1218202335,-0.9173369855,-0.6440051381,0.1492748836,-0.5084090085,-0.5830299835,3.7009,-1.3029,4.0287,-0.02735,0.01419,0.02436,0.00115,0.0011,0.0012,0.0007,0.00074,0.00068,0.0145,0.0152,0.0158,passive,1
1.4805,rehab,mild_large_slow,149.1678097679,-666.4673248896,149.9059794836,-177.3828531331,0.1399711295,-149.9817024853,5.7357,0.6449,-17.2363,-104.369,18.1244,105.7306,74.2470577951,24.9736963465,79.055355432,-17.644406868,-89.2597667986,-44.155270631,-0.6436628871,-1.6398080917,0.4550316964,0.4932411465,0.2988901416,-0.0274713932,3.5255,-1.2162,3.7827,-0.02747,0.01215,0.0188,0.00115,0.0011,0.0012,0.0007,0.00074,0.00068,0.0145,0.0152,0.0158,passive,1
1.5005,rehab,mild_large_slow,149.231628932,-666.4544481316,149.5498578905,-177.3802990962,0.1413099088,-149.9766142755,4.1595,0.6194,-16.6438,-15.039,-25.1028,128.4998,74.2126320407,24.936259028,79.0616093536,-17.6139963682,-89.2336938778,-44.181531622,-1.0450429374,0.1027792674,-0.6882284655,0.367920687,0.5558940866,-0.8599989434,3.7938,-1.5296,4.05,-0.03121,0.01154,0.02483,0.00115,0.0011,0.0012,0.0007,0.00074,0.00068,0.0145,0.0152,0.0158,passive,1
1.5205,rehab,mild_large_slow,149.3341903974,-666.4425487933,149.2402261586,-177.3856884295,0.1379299155,-149.9802371341,5.1342,-0.3592,-12.0963,-40.0938,-16.6099,186.0835,74.2052560776,24.9778075172,79.0278262934,-17.6296900405,-89.2375310351,-44.1896705887,-0.2734782307,0.9060849944,-1.0128496949,0.109301975,-0.4624739737,-1.1121809398,3.5908,-1.2315,3.9667,-0.02565,0.01197,0.02406,0.00115,0.0011,0.0012,0.0007,0.00074,0.00068,0.0145,0.0152,0.0158,passive,1
1.5405,rehab,mild_large_slow,149.4369958553,-666.4688153995,149.0660052239,-177.3810193966,0.1410036291,-149.9775819481,2.5558,-0.045,-9.2005,-73.4389,16.9735,64.5183,74.2016929115,24.9725024277,79.0210953658,-17.6096242892,-89.2521928367,-44.2260188596,0.2427514623,-1.3634583039,0.3527312062,0.7511114,0.1785476706,-0.7679612178,3.6915,-1.4828,4.1902,-0.02914,0.01215,0.02075,0.00115,0.0011,0.0012,0.0007,0.00074,0.00068,0.0145,0.0152,0.0158,passive,1
1.5605,rehab,mild_large_slow,149.436420902,-666.4443485265,148.8722064648,-177.3857301924,0.1437411027,-149.9782704606,2.1966,0.3198,-9.5156,12.0239,-16.3481,43.7706,74.2149661361,24.923269185,79.0419355416,-17.5996455845,-89.2303891283,-44.2203890374,-0.4247686422,-0.4263606809,0.1733112913,0.5556396075,1.5224517217,-0.2897331295,3.846,-1.4759,4.0989,-0.03119,0.01499,0.02721,0.00115,0.0011,0.0012,0.0007,0.00074,0.00068,0.0145,0.0152,0.0158,passive,1
1.5805,rehab,mild_large_slow,149.5248604744,-666.4560251246,148.6853818687,-177.3862853873,0.1390757551,-149.9736544346,3.0367,-0.6989,-7.4497,-5.28,-27.2148,133.2963,74.1847021658,24.9554480005,79.0280278175,-17.5873987049,-89.1912947678,-44.2376081847,-0.8333896066,-1.0986691108,-0.3436571007,-0.0953183351,-0.2717720289,0.3960889127,3.8709,-1.5301,3.9191,-0.03355,0.01372,0.02662,0.00115,0.0011,0.0012,0.0007,0.00074,0.00068,0.0145,0.0152,0.0158,passive,1
1.6005,rehab,mild_large_slow,149.5578896246,-666.4723052597,148.5742196757,-177.3836122402,0.1357385143,-149.9785966498,1.9854,-0.7688,-4.1837,-34.5179,17.3207,102.7871,74.1816305519,24.8793224206,79.0281892576,-17.6034583179,-89.2412600095,-44.2045454809,-0.9597693803,-1.192596395,0.1544159101,0.3759054577,-0.8952033523,0.5861808509,3.6554,-1.1757,3.8387,-0.02719,0.01408,0.02118,0.00115,0.0011,0.0012,0.0007,0.00074,0.00068,0.0145,0.0152,0.0158,passive,1
1.6205,rehab,mild_large_slow,149.6042770372,-666.4867784885,148.5180325674,-177.3788809575,0.1388637489,-149.9755889146,1.656,-0.0061,-3.3382,-84.8819,41.7827,117.556,74.1463113906,24.9077441447,79.0342044539,-17.5723624866,-89.2271029019,-44.2141609507,0.3040589989,0.8262819859,-0.1244265906,0.9662930499,-0.2484535975,-0.4672856364,3.752,-1.3,4.0962,-0.02779,0.01028,0.02413,0.00115,0.0011,0.0012,0.0007,0.00074,0.00068,0.0145,0.0152,0.0158,passive,1
1.6405,rehab,mild_large_slow,149.6241296539,-666.4725488142,148.4406922826,-177.383904868,0.1412384786,-149.9794776492,-1.4099,0.9025,0.5185,-88.4612,14.3862,174.5202,74.1937929118,24.9123737001,79.023212194,-17.5648065959,-89.2511981534,-44.2232369064,0.2295440774,0.1831954538,0.4448568956,0.280385382,-0.2696754936,-0.7028792826,5.5845,-1.4293,-1.12,-0.01312,-0.02441,0.03447,0.00115,0.0011,0.0012,0.0007,0.00074,0.00068,0.0145,0.0152,0.0158,passive,1
1.6605,rehab,mild_large_slow,149.5478826003,-666.4506795515,148.5387728308,-177.3792897884,0.1399889219,-149.974383314,-1.8824,0.5694,3.6426,31.122,-20.5334,80.0706,74.1554931537,24.9150719629,79.0519987297,-17.5611470713,-89.2378899217,-44.242276122,-0.1897143806,1.2304009046,-0.6761991434,-0.5374787383,0.3656005915,-0.0774240199,5.1912,-1.4734,-0.9127,-0.00742,-0.01786,0.02875,0.00115,0.0011,0.0012,0.0007,0.00074,0.00068,0.0145,0.0152,0.0158,passive,1
1.6805,rehab,mild_large_slow,149.548831749,-666.4497744393,148.5863971531,-177.3822847995,0.1417707857,-149.9748560252,-0.165,0.0811,3.7213,6.5098,-1.5417,129.4895,74.1862043366,24.9615897362,78.9961642282,-17.5863057454,-89.2365741297,-44.2263338672,1.7578223269,1.0291793567,-1.0341606643,-0.5480442048,-0.2641384139,1.011945077,5.756,-1.5661,-1.0553,-0.01116,-0.02037,0.03442,0.00115,0.0011,0.0012,0.0007,0.00074,0.00068,0.0145,0.0152,0.0158,passive,1
1.7005,rehab,mild_large_slow,149.5412833805,-666.4474341153,148.687626006,-177.3852947415,0.1415749436,-149.9763851607,-1.6221,0.5077,8.8222,-94.235,-12.929,137.5804,74.2258060468,24.9562391371,79.0106323031,-17.5830688395,-89.2484554582,-44.2017983189,0.4888626041,-1.069774375,1.5505990446,-0.8313186043,0.3155325073,-0.2137251763,5.4535,-1.4544,-1.1426,-0.0105,-0.02243,0.03244,0.00115,0.0011,0.0012,0.0007,0.00074,0.00068,0.0145,0.0152,0.0158,passive,1
1.7205,rehab,mild_large_slow,149.4839495688,-666.4294667999,148.9392853019,-177.3849015199,0.1369579719,-149.97499722,-3.9344,-0.436,9.2245,-82.3279,-43.4884,36.2417,74.2057588408,24.9187987612,79.05818819,-17.6195584896,-89.2239528294,-44.2348828742,-0.3719627067,-1.443545568,0.2465691536,-1.6528122165,0.5970198385,-0.9139478953,5.4068,-1.3916,-0.9377,-0.01099,-0.02093,0.03295,0.00115,0.0011,0.0012,0.0007,0.00074,0.00068,0.0145,0.0152,0.0158,passive,1
1.7405,rehab,mild_large_slow,149.3839081491,-666.4648750568,149.0566078173,-177.3801374261,0.1409801007,-149.973529201,-4.9152,-1.2318,10.2719,-26.0001,4.4288,194.0862,74.2109275385,24.8984973144,79.0204950693,-17.6491813281,-89.2245746647,-44.2383562347,0.9225186634,0.48689402,-0.0558109992,-1.5054490856,0.1455404218,1.1333023761,5.2514,-1.3723,-0.756,-0.01256,-0.02219,0.02853,0.00115,0.0011,0.0012,0.0007,0.00074,0.00068,0.0145,0.0152,0.0158,passive,1
1.7605,rehab,mild_large_slow,149.2873427751,-666.4787406142,149.3501601809,-177.3832756214,0.1374184448,-149.9710265636,-4.9744,-0.2589,16.988,-14.024,33.9833,197.6599,74.2426595873,24.938274522,79.05595575,-17.679776453,-89.2181312126,-44.1895507792,0.3644349096,1.5145745064,1.4201831817,-0.1148611484,-0.9540596074,1.0778993473,5.5703,-1.4282,-1.0441,-0.0098,-0.02065,0.03152,0.00115,0.0011,0.0012,0.0007,0.00074,0.00068,0.0145,0.0152,0.0158,passive,1
1.7805,rehab,mild_large_slow,149.1849327123,-666.4752299729,149.7361275722,-177.3898054535,0.141500665,-149.9790370202,-5.4761,0.1275,18.1783,-38.9969,-5.8752,43.8291,74.2255049349,24.9590802947,79.0773023965,-17.6537757741,-89.262737049,-44.1952402609,0.3094690315,0.4468443549,0.2126953169,-0.3722954579,-0.5003986103,0.0904606638,5.5268,-1.6061,-0.6779,-0.0133,-0.02378,0.03541,0.00115,0.0011,0.0012,0.0007,0.00074,0.00068,0.0145,0.0152,0.0158,passive,1
1.8005,rehab,mild_large_slow,149.0682975295,-666.4736411335,150.0772909403,-177.3823870694,0.139733502,-149.9764629264,-6.5343,-0.4939,18.7412,-80.8848,-13.5865,80.3919,74.2550383486,24.9561482962,79.0644635627,-17.6946682713,-89.238147157,-44.1859323527,1.1973087013,0.5703481359,0.2284556216,-1.276631036,0.5288590473,0.6427724325,5.6099,-1.5218,-0.8212,-0.01433,-0.02114,0.03328,0.00115,0.0011,0.0012,0.0007,0.00074,0.00068,0.0145,0.0152,0.0158,passive,1
1.8205,rehab,mild_large_slow,148.9235621617,-666.4949852703,150.4857738309,-177.3824727855,0.1411930362,-149.975644438,-8.7115,-0.416,21.3939,-32.3617,44.2005,155.839,74.2733972829,24.9818942201,79.0864406214,-17.7048410155,-89.2415826871,-44.1695293636,0.3540112062,1.0094955232,0.6645958207,-1.2250985049,0.6503788713,2.4319926888,5.2576,-1.3606,-0.9967,-0.01044,-0.01866,0.03584,0.00115,0.0011,0.0012,0.0007,0.00074,0.00068,0.0145,0.0152,0.0158,passive,1
1.8405,rehab,mild_large_slow,148.7198366387,-666.490280115,150.9330487715,-177.3793894766,0.1378739136,-149.9705903881,-7.8287,1.2741,24.9747,-1015.2982,-3.0564,2984.0566,74.2691987968,24.9965281172,79.0910473956,-17.7436722115,-89.2121320021,-44.0886526451,0.9599748525,-0.3124479957,1.3002655534,-1.3207198031,0.4217940407,2.0053659538,5.6731,-1.4714,-0.7493,-0.01293,-0.02221,0.0382,0.00115,0.0011,0.0012,0.0007,0.00074,0.00068,0.0145,0.0152,0.0158,passive,1
1.8605,rehab,mild_large_slow,148.6104128882,-666.4440197207,151.484762485,-177.3839790923,0.1420905235,-149.9714229956,-49.3234,-0.5382,140.7562,-1101.3708,-72.4616,2893.2887,74.311796277,24.9693963003,79.1384512435,-17.7576698076,-89.2247109255,-44.0893147254,6.6745688232,1.9632372766,5.023829349,-6.467542022,-1.2857509222,5.4837811936,6.1867,-1.6526,-0.9652,-0.01174,-0.02306,0.03795,0.00115,0.0011,0.0012,0.0007,0.00074,0.00068,0.0145,0.0152,0.0158,passive,1
1.8805,rehab,mild_large_slow,146.7468986711,-666.5118093847,156.5632970848,-177.379250475,0.1385363584,-149.9771629673,-51.8836,-1.6243,140.7063,1009.1598,34.6906,-2784.6003,74.5361815497,25.0750576082,79.2920005695,-18.0023738924,-89.263562039,-43.8693013974,6.886220943,3.1951559824,4.6759411386,-6.4802627647,1.2520383357,5.6504932159,6.4837,-1.9582,-1.0401,-0.02088,-0.0272,0.04018,0.00115,0.0011,0.0012,0.0007,0.00074,0.00068,0.0145,0.0152,0.0158,passive,1
1.9005,rehab,mild_large_slow,146.53507032,-666.5089927787,157.1130130868,-177.3784187023,0.1399710175,-149.9700773459,-8.9571,0.8494,29.3722,1014.0116,30.9726,-2676.6498,74.5872451148,25.0972025396,79.3254888891,-18.0168803182,-89.1746293921,-43.8632949968,2.2628383082,1.6021192507,-0.3833321484,-1.6736064967,1.3235582395,0.5208554913,5.1119,-1.2878,-0.7081,-0.01315,-0.02057,0.03105,0.00115,0.0011,0.0012,0.0007,0.00074,0.00068,0.0145,0.0152,0.0158,passive,1
1.9205,rehab,mild_large_slow,146.3886164378,-666.4778337564,157.7381849009,-177.3819360085,0.1407582191,-149.9822742412,-11.3231,-0.3854,33.6403,-134.4617,-68.1899,185.7806,74.6266950821,25.1391423783,79.2766672836,-18.0693181523,-89.2106197094,-43.8484671777,1.3535103046,0.6758887786,-0.2584421599,-2.6056201402,-0.5984071318,1.2043104072,5.5554,-1.521,-0.7415,-0.01262,-0.01961,0.03352,0.00115,0.0011,0.0012,0.0007,0.00074,0.00068,0.0145,0.0152,0.0158,passive,1
1.9405,rehab,mild_large_slow,146.0821463093,-666.5244096074,158.4586240274,-177.3805488603,0.1417908991,-149.9733962642,-14.3355,-1.8782,36.8034,-102.4535,20.9253,104.1126,74.6413855269,25.1242380907,79.3151512027,-18.1211051238,-89.1985656773,-43.8151225805,2.5642668997,0.4330630103,2.528678948,-2.2223239167,-1.1441792808,1.7964432916,5.357,-1.4138,-0.7687,-0.01006,-0.01955,0.03118,0.00115,0.0011,0.0012,0.0007,0.00074,0.00068,0.0145,0.0152,0.0158,passive,1
1.9605,rehab,mild_large_slow,145.8151954713,-666.5529619752,159.2103216763,-177.3740445032,0.1419921798,-149.9761683244,-15.4212,0.4516,37.8048,-51.3088,80.1862,101.2576,74.7292657581,25.1564648987,79.3778144415,-18.158211109,-89.2563868807,-43.776609446,2.30812812,1.8014371862,1.2826501444,-2.2059554797,-0.5513519824,1.5600179476,5.2984,-1.2464,-0.7003,-0.00757,-0.01969,0.03252,0.00115,0.0011,0.0012,0.0007,0.00074,0.00068,0.0145,0.0152,0.0158,passive,1
1.9805,rehab,mild_large_slow,145.4652966734,-666.5063459441,159.9708151973,-177.3787229642,0.1370080916,-149.9738888448,-16.3879,1.3292,40.8537,-4.2275,-29.0167,154.8446,74.7337106517,25.1962955782,79.3664572084,-18.209343343,-89.2206197566,-43.7527218626,0.9774426456,1.9133755388,1.0476219961,-1.2758867641,0.8355611609,1.6059812831,5.7479,-1.452,-0.9002,-0.0126,-0.02094,0.0367,0.00115,0.0011,0.0012,0.0007,0.00074,0.00068,0.0145,0.0152,0.0158,passive,1
2.0005,rehab,mild_large_slow,145.1596804279,-666.499792207,160.8444706195,-177.3823254582,0.1388132092,-149.9759211174,-15.5903,-0.7091,43.9986,-28.3841,-52.1221,130.6489,74.7683634639,25.2329999202,79.4197193213,-18.2092465795,-89.2229644342,-43.7123701947,1.0260086456,1.9100813004,1.6989434028,-2.1237349323,0.7838558502,2.3729232873,5.6914,-1.4954,-0.6475,-0.01432,-0.02285,0.03548,0.00115,0.0011,0.0012,0.0007,0.00074,0.00068,0.0145,0.0152,0.0158,passive,1
2.0205,rehab,mild_large_slow,144.8416831053,-666.5347089785,161.730757672,-177.3846685025,0.1421589366,-149.9745751622,-17.5232,-0.7556,46.0797,-95.3507,19.162,135.4905,74.7747509976,25.2726988302,79.4344149446,-18.2942927403,-89.1892655226,-43.6578049311,1.979621012,1.2157153078,1.1854397615,-4.0429891748,1.0602610969,1.8147598938,5.6978,-1.4571,-0.6671,-0.01478,-0.02108,0.03865,0.00115,0.0011,0.0012,0.0007,0.00074,0.00068,0.0145,0.0152,0.0158,passive,1
2.0405,rehab,mild_large_slow,144.4587508996,-666.5300177479,162.6876577882,-177.3850025202,0.1419676461,-149.9744180721,-19.4044,0.0574,49.4182,-70.4899,-3.9054,144.6897,74.8475483044,25.2816285325,79.4671369118,-18.3709661465,-89.1805539903,-43.639779799,2.8545321217,-0.1684155844,2.3464720973,-2.0778649429,-0.2143955181,1.6681508973,5.4848,-1.5092,-0.6079,-0.01197,-0.01968,0.03301,0.00115,0.0011,0.0012,0.0007,0.00074,0.00068,0.0145,0.0152,0.0158,passive,1
2.0605,rehab,mild_large_slow,144.0655083813,-666.5324127696,163.7074849103,-177.3778256954,0.1434325237,-149.9779021765,-20.3428,-0.9119,51.8673,-79.5402,-8.8092,117.666,74.8889322824,25.2659622068,79.5282738285,-18.377407338,-89.1978413433,-43.5910788952,2.6496276171,0.3394889345,2.4278464923,-2.0435559706,-0.2513097908,2.5381797049,5.7119,-1.5009,-0.7467,-0.00931,-0.02279,0.03493,0.00115,0.0011,0.0012,0.0007,0.00074,0.00068,0.0145,0.0152,0.0158,passive,1
2.0805,rehab,mild_large_slow,143.6450375833,-666.5664919497,164.7623485447,-177.3806783665,0.1407128452,-149.9726845176,-22.586,-0.295,54.1248,-61.9589,38.1081,116.2084,74.953533409,25.2952080899,79.5642507715,-18.4527083853,-89.190606382,-43.5382526108,2.1798321349,2.1075269381,1.6181280249,-2.0850380571,-0.614383884,2.0264005347,6.2124,-1.5176,-0.7485,-0.01111,-0.02163,0.0361,0.00115,0.0011,0.0012,0.0007,0.00074,0.00068,0.0145,0.0152,0.0158,passive,1
2.1005,rehab,mild_large_slow,143.1620693683,-666.5442112781,165.8724777603,-177.3782222335,0.1410629139,-149.9763290978,-22.8212,0.6125,56.5156,-44.5951,-11.5966,141.9004,74.9761255678,25.3502632843,79.5929989494,-18.4608088603,-89.2224166987,-43.5100228738,3.1605896069,2.6165734462,1.7285382694,-3.0757977754,0.7141177006,2.227808753,5.8257,-1.4379,-0.6378,-0.01161,-0.02181,0.0332,0.00115,0.0011,0.0012,0.0007,0.00074,0.00068,0.0145,0.0152,0.0158,passive,1
2.1205,rehab,mild_large_slow,142.7321900963,-666.5419932041,167.0229728203,-177.3818169194,0.136725074,-149.972000765,-24.3698,-0.7588,59.8008,-115.0824,-29.7861,178.0073,75.0799569933,25.3998710278,79.6333923023,-18.5757402964,-89.162041674,-43.4491402606,2.8143074194,1.4833952952,2.76410324,-3.1325617269,0.9813762038,2.4789261437,5.4599,-1.3485,-0.5135,-0.00948,-0.02157,0.03071,0.00115,0.0011,0.0012,0.0007,0.00074,0.00068,0.0145,0.0152,0.0158,passive,1
2.1405,rehab,mild_large_slow,142.1872782584,-666.5745643122,168.264511308,-177.3814510819,0.1397146387,-149.9797069718,-27.4245,-0.579,63.6359,-70.0071,12.5439,188.3067,75.0886978646,25.4095990961,79.703563079,-18.5861113294,-89.1831616505,-43.410865828,2.4617455896,0.5778349602,2.3717636023,-2.8598954696,-0.6116031013,1.9333409361,5.1272,-1.3891,-0.4286,-0.01361,-0.01611,0.02946,0.00115,0.0011,0.0012,0.0007,0.00074,0.00068,0.0145,0.0152,0.0158,passive,1
2.1605,rehab,mild_large_slow,141.6352108358,-666.565152153,169.5684088516,-177.3841139552,0.1436528923,-149.9736876956,-27.1701,-0.2571,67.3331,-42.5934,4.8969,136.6813,75.1784268169,25.4229844262,79.7282628464,-18.6901361151,-89.186505798,-43.3718066232,3.5890827125,1.0079729142,1.8880512831,-4.5337755596,0.2665272489,3.6874324628,5.7652,-1.6635,-0.6487,-0.01515,-0.02002,0.03367,0.00115,0.0011,0.0012,0.0007,0.00074,0.00068,0.0145,0.0152,0.0158,passive,1
2.1805,rehab,mild_large_slow,141.1004757823,-666.5848470791,170.9578356081,-177.3765154529,0.1378583091,-149.9772244583,-29.1282,-0.3831,69.1032,-76.7557,17.134,75.0892,75.2322611731,25.4499180127,79.7790851304,-18.7674623518,-89.1725005606,-43.2633685295,3.5695266824,1.773526055,1.9612897355,-3.1291055888,0.1986961083,3.5249257733,5.9543,-1.5138,-0.4974,-0.01462,-0.01755,0.03816,0.00115,0.0011,0.0012,0.0007,0.00074,0.00068,0.0145,0.0152,0.0158,passive,1
2.2005,rehab,mild_large_slow,140.470082183,-666.5804760475,172.3325349043,-177.3825154584,0.1375412954,-149.9723873344,-30.2403,0.4283,70.3367,-47.321,28.7862,92.6204,75.3212078842,25.4939254684,79.8067144358,-18.8153003387,-89.1785579537,-43.2308095923,3.9097639372,2.4120910945,2.1155459931,-4.2170033987,-0.7389518999,2.9431486274,5.6904,-1.6972,-0.4644,-0.0163,-0.02277,0.03297,0.00115,0.0011,0.0012,0.0007,0.00074,0.00068,0.0145,0.0152,0.0158,passive,1
2.2205,rehab,mild_large_slow,139.890864224,-666.5677155099,173.7713026917,-177.3795370641,0.1376674687,-149.9709887242,-31.0211,0.7683,72.808,-113.2683,-47.8752,120.2155,75.3886517306,25.5464016565,79.8637069701,-18.9361424877,-89.2020586366,-43.1456425844,3.05667598,1.8767213917,2.0566617711,-5.1176048928,-0.6136522155,3.2150292935,5.4589,-1.1672,-0.4518,-0.00806,-0.01985,0.03283,0.00115,0.0011,0.0012,0.0007,0.00074,0.00068,0.0145,0.0152,0.0158,passive,1
2.2405,rehab,mild_large_slow,139.2292399606,-666.5497420911,175.2448536037,-177.3795618622,0.1372272939,-149.9751601244,-34.771,-1.4867,75.1453,-114.0997,-60.7406,167.9784,75.4434749234,25.568994324,79.8889809066,-19.0200045344,-89.2031040423,-43.1022084205,3.5150037883,1.0870760196,2.0824673149,-3.29419538,0.7067995738,2.9388939959,5.4757,-1.4346,-0.5503,-0.01262,-0.02,0.03561,0.00115,0.0011,0.0012,0.0007,0.00074,0.00068,0.0145,0.0152,0.0158,passive,1
2.2605,rehab,mild_large_slow,138.5000234373,-666.6271842752,176.7771145922,-177.381659238,0.1388901837,-149.9806081946,-35.585,-1.6613,79.5271,-48.4018,50.5578,198.4844,75.5292518821,25.5898846973,79.9470056627,-19.0679103029,-89.1737866536,-43.0280868246,3.3132607259,1.0515926518,3.1359905421,-2.7221262243,0.5122757318,3.889416924,5.569,-1.435,-0.3137,-0.01167,-0.02054,0.0329,0.00115,0.0011,0.0012,0.0007,0.00074,0.00068,0.0145,0.0152,0.0158,passive,1
2.2805,rehab,mild_large_slow,137.8058381874,-666.6161931565,178.4259377008,-177.3767026004,0.1379108659,-149.9725654076,-36.7071,0.5356,83.0847,-96.5526,51.0877,121.3555,75.5760053524,25.6110580301,80.0144205283,-19.1288895834,-89.182613013,-42.9466317436,3.7046147568,2.2501483719,3.2004000215,-4.0053614879,0.5720426221,2.7560520653,5.3861,-1.3163,-0.4102,-0.00965,-0.02102,0.03099,0.00115,0.0011,0.0012,0.0007,0.00074,0.00068,0.0145,0.0152,0.0158,passive,1
2.3005,rehab,mild_large_slow,137.0317398147,-666.6057605932,180.1005015159,-177.3755935181,0.1390176293,-149.972109623,-39.4471,0.3822,84.3813,-102.223,-21.7626,74.0202,75.6774364724,25.6798906321,80.0750216636,-19.2281247624,-89.1509049487,-42.917844742,4.6475904213,2.5879376636,2.376792166,-5.431636412,0.5425539034,3.3354249655,5.596,-1.4879,-0.2988,-0.01327,-0.01804,0.03161,0.00115,0.0011,0.0012,0.0007,0.00074,0.00068,0.0145,0.0152,0.0158,passive,1
2.3205,rehab,mild_large_slow,136.2279523282,-666.6009038796,181.801190614,-177.3801009432,0.1419832141,-149.9728295344,-40.796,-0.3349,86.0455,-64.3779,-11.3602,53.3474,75.7619089693,25.7145755367,80.1094922149,-19.3461550399,-89.1609108569,-42.813214745,3.4499117267,2.3522675033,2.8108154408,-6.1875658076,0.025756665,3.8552044567,5.7204,-1.3652,-0.2224,-0.01386,-0.01842,0.03171,0.00115,0.0011,0.0012,0.0007,0.00074,0.00068,0.0145,0.0152,0.0158,passive,1
2.3405,rehab,mild_large_slow,135.3998994633,-666.6191570921,183.5423206949,-177.3802317253,0.1379763025,-149.9709218247,-42.0223,-0.0722,86.5152,-63.1675,5.0298,131.9211,75.8154329415,25.7739813323,80.1874542812,-19.4756273947,-89.1498746821,-42.7636365637,3.6622849917,2.8304149165,2.8985140191,-3.806819145,-0.5510093452,3.8884663696,5.6794,-1.3572,-0.4492,-0.01042,-0.02185,0.03208,0.00115,0.0011,0.0012,0.0007,0.00074,0.00068,0.0145,0.0152,0.0158,passive,1
2.3605,rehab,mild_large_slow,134.5470618415,-666.6037909259,185.2617993218,-177.3774548221,0.1401953993,-149.9741887333,-43.3227,-0.1337,91.3223,-126.5759,-15.4425,207.0166,75.908400369,25.8277921333,80.2254327757,-19.4984278057,-89.1829512307,-42.6576760902,6.0644800031,1.967933712,2.3665241348,-3.5914281517,-0.4061717354,4.2972035835,5.9421,-1.2442,-0.1522,-0.01167,-0.01574,0.03552,0.00115,0.0011,0.0012,0.0007,0.00074,0.00068,0.0145,0.0152,0.0158,passive,1
2.3805,rehab,mild_large_slow,133.6669910345,-666.6245058699,187.1952135947,-177.3824937237,0.1410176716,-149.9732673721,-47.0853,-0.6899,94.7959,-98.382,-13.2261,56.5069,76.0580121416,25.8526986807,80.2821152466,-19.6192845208,-89.1661215516,-42.5917484204,4.9468793797,2.5450186065,3.9648732931,-4.813004206,1.2560091792,4.5463226281,5.3956,-1.3846,-0.1304,-0.01273,-0.01656,0.03379,0.00115,0.0011,0.0012,0.0007,0.00074,0.00068,0.0145,0.0152,0.0158,passive,1
2.4005,rehab,mild_large_slow,132.6636498972,-666.631385934,189.0536346466,-177.3824873756,0.1376028229,-149.9718565558,-47.258,-0.6628,93.5826,-85.2954,5.7179,52.0011,76.1062755441,25.9295928776,80.3840277074,-19.6909479739,-89.1327108635,-42.475823185,3.9068910543,2.3833324277,3.5561582339,-5.4035082847,0.5200095706,3.9130017411,5.6196,1.4049,-0.1013,0.01518,-0.01903,0.022,0.00115,0.0011,0.0012,0.0007,0.00074,0.00068,0.0145,0.0152,0.0158,passive,1
2.4205,rehab,mild_large_slow,131.7766714127,-666.6510164847,190.9385174933,-177.377176085,0.1367508047,-149.9759604463,-50.4971,-0.4612,96.8759,-184.2015,19.1511,150.7082,76.2142877838,25.9480319779,80.4243615759,-19.8354248522,-89.1453211687,-42.4352283507,4.6721508997,2.7207376146,2.6795422126,-6.3558841564,-0.5747619914,3.5308975289,5.9513,1.5277,-0.1271,0.01173,-0.01648,0.02417,0.00115,0.0011,0.0012,0.0007,0.00074,0.00068,0.0145,0.0152,0.0158,passive,1
2.4405,rehab,mild_large_slow,130.6437653142,-666.6498323555,192.9286717026,-177.3817396159,0.1380381868,-149.9720866494,-54.6261,0.1033,99.6109,-59.1283,-5.2765,114.9457,76.2931615801,26.0384223822,80.4912093959,-19.9451833402,-89.1557013432,-42.3345872839,5.2690934873,2.1364628532,3.7750250268,-5.741279737,0.1055594592,5.1632984962,5.6197,1.4794,-0.0741,0.01374,-0.01551,0.02467,0.00115,0.0011,0.0012,0.0007,0.00074,0.00068,0.0145,0.0152,0.0158,passive,1
2.4605,rehab,mild_large_slow,129.5916293126,-666.6468853136,194.9229544875,-177.3792032842,0.1386165485,-149.9745058401,-52.8622,-0.6722,101.4738,486.8826,-18.9656,-881.5204,76.4250515232,26.033490492,80.575362577,-20.0650760417,-89.1410987904,-42.2286964109,5.5357885159,2.0093184203,3.9080464926,-5.724299467,0.3544312607,4.4180099056,5.6371,1.3742,0.1889,0.01148,-0.01421,0.02218,0.00115,0.0011,0.0012,0.0007,0.00074,0.00068,0.0145,0.0152,0.0158,passive,1
2.4805,rehab,mild_large_slow,128.5292754044,-666.6767212298,196.9876219032,-177.3807804642,0.1391995184,-149.9672624789,-35.1507,-0.6553,64.3501,346.002,8.3687,-843.3693,76.5145931208,26.118795119,80.6475312556,-20.1741553188,-89.1415240928,-42.1578668877,2.3438837818,2.37789871,1.8922746191,-2.5922582381,-0.1367632772,2.6372457039,5.2474,1.228,0.1013,0.00977,-0.01332,0.01997,0.00115,0.0011,0.0012,0.0007,0.00074,0.00068,0.0145,0.0152,0.0158,passive,1
2.5005,rehab,mild_large_slow,128.1855994232,-666.6730990349,197.4969589188,-177.3842354742,0.1406664477,-149.9755886333,-39.0222,-0.3375,67.739,-655.3698,18.1849,1133.156,76.5188068745,26.1286064404,80.6510535618,-20.1687663712,-89.1465693215,-42.1232065827,2.5224275614,1.5723715992,1.5291597852,-3.8966465576,-0.0166136875,2.0114572884,5.4711,1.2401,-0.2482,0.01363,-0.01973,0.02433,0.00115,0.0011,0.0012,0.0007,0.00074,0.00068,0.0145,0.0152,0.0158,passive,1
2.5205,rehab,mild_large_slow,126.9683886657,-666.6902202133,199.6971811686,-177.3792516213,0.1359850763,-149.9807264955,-61.3655,0.0721,109.6764,-575.1363,29.7509,1098.8289,76.6154902232,26.1816899829,80.708697647,-20.3300211811,-89.1421886403,-42.0774085961,5.6641979225,2.3705932509,3.3742166034,-6.9800219755,-0.489318186,4.5117127109,5.3084,1.3541,-0.0211,0.01264,-0.01316,0.02315,0.00115,0.0011,0.0012,0.0007,0.00074,0.00068,0.0145,0.0152,0.0158,passive,1
2.5405,rehab,mild_large_slow,125.7309778589,-666.6702169131,201.8840130018,-177.378458522,0.1386728106,-149.9688224596,-62.0276,0.8526,111.6921,-81.1801,-28.9621,151.7473,76.7453747914,26.2234301704,80.7860222259,-20.4479672502,-89.1661420489,-41.9427380743,6.9497507112,3.2531673768,3.7060042174,-5.2221195278,0.0270846241,6.2185710185,5.3898,1.311,-0.0145,0.01093,-0.01752,0.01975,0.00115,0.0011,0.0012,0.0007,0.00074,0.00068,0.0145,0.0152,0.0158,passive,1
2.5605,rehab,mild_large_slow,124.4872839035,-666.6561177641,204.1648666947,-177.3807406383,0.1355338283,-149.9701195744,-64.6127,-1.0864,115.7462,-149.1945,-64.6579,64.024,76.8934802517,26.311816678,80.8569378157,-20.5389059623,-89.1411052553,-41.8286657554,6.8901239105,3.296547643,4.9745628934,-5.9286844446,1.2240674639,4.5128578907,5.4948,1.4389,0.2266,0.01406,-0.01609,0.02542,0.00115,0.0011,0.0012,0.0007,0.00074,0.00068,0.0145,0.0152,0.0158,passive,1
2.5805,rehab,mild_large_slow,123.1464681417,-666.7136741884,206.513862813,-177.3819846871,0.137032962,-149.9702458658,-67.9954,-1.7338,114.2531,-142.7773,31.4514,-63.6062,77.0209797478,26.3552920761,80.9850047416,-20.685114628,-89.1171793503,-41.7622237587,5.6175212701,2.4538828576,5.1162367722,-6.7966586198,0.5966665302,5.0056468899,5.5517,1.5415,0.1667,0.01433,-0.01544,0.02071,0.00115,0.0011,0.0012,0.0007,0.00074,0.00068,0.0145,0.0152,0.0158,passive,1
2.6005,rehab,mild_large_slow,121.7674680213,-666.7254679554,208.734990585,-177.3778560762,0.1347992406,-149.9733300265,-70.3238,0.1716,113.202,-74.1026,63.6969,20.4267,77.1181811025,26.4099719923,81.0615872866,-20.810772307,-89.1172385941,-41.6284398798,5.6243968304,2.6388831705,3.1222767929,-5.9336866539,1.1756002306,6.895249487,5.3654,1.3462,0.2824,0.01382,-0.01521,0.0225,0.00115,0.0011,0.0012,0.0007,0.00074,0.00068,0.0145,0.0152,0.0158,passive,1
2.6205,rehab,mild_large_slow,120.3335147161,-666.7068092505,211.0419426509,-177.3772823513,0.1385188905,-149.9710668414,-70.9595,0.8141,115.0702,-81.8481,-27.2893,76.6487,77.2459556211,26.460847403,81.1098958134,-20.9224620941,-89.0701553411,-41.4864137792,5.1543121815,3.4328534058,3.7723934028,-5.8152092289,0.1228381798,5.5288031108,5.1252,1.3043,0.2616,0.01315,-0.01133,0.01986,0.00115,0.0011,0.0012,0.0007,0.00074,0.00068,0.0145,0.0152,0.0158,passive,1
2.6405,rehab,mild_large_slow,118.9290880236,-666.692903149,213.3377971836,-177.3791987249,0.1363299892,-149.9731548126,-73.5978,-0.9199,116.2679,-133.3988,-9.4668,66.3511,77.3243535897,26.5472861285,81.2124830227,-21.0433806762,-89.1123250669,-41.4072877554,6.186280982,3.2493558014,5.277380708,-7.6583158964,-0.5995957741,5.1858987209,5.1734,1.2876,0.3475,0.00891,-0.01239,0.0231,0.00115,0.0011,0.0012,0.0007,0.00074,0.00068,0.0145,0.0152,0.0158,passive,1
2.6605,rehab,mild_large_slow,117.3896044098,-666.7436071702,215.6926604289,-177.3788067241,0.1390470809,-149.9734834748,-76.2955,0.4354,117.7242,-53.5289,59.5863,42.7197,77.4934068603,26.590821635,81.3209910417,-21.22879473,-89.0941391721,-41.2789778304,7.3242865339,3.3033407298,3.5197552989,-7.4992856588,0.2480332672,5.2352299492,5.2808,1.2645,0.3915,0.01191,-0.01224,0.02299,0.00115,0.0011,0.0012,0.0007,0.00074,0.00068,0.0145,0.0152,0.0158,passive,1
2.6805,rehab,mild_large_slow,115.8772699005,-666.6754852667,218.0467655308,-177.3798279851,0.1391250612,-149.9767431844,-75.7389,1.4635,117.9767,-88.2605,-53.0705,13.4287,77.6173250511,26.6794197577,81.3532732347,-21.3433521025,-89.1024037362,-41.1978785574,6.0209276056,4.0577856382,3.7939583803,-6.2158847392,-0.5351703807,4.8328161987,4.9605,1.3026,0.2761,0.01167,-0.01321,0.02197,0.00115,0.0011,0.0012,0.0007,0.00074,0.00068,0.0145,0.0152,0.0158,passive,1
2.7005,rehab,mild_large_slow,114.3600478189,-666.6850670383,220.4117296675,-177.3811136573,0.1368527723,-149.975496413,-79.8259,-1.6874,118.2614,-171.7384,-73.8445,30.6893,77.7342439646,26.7531330605,81.4727493769,-21.4774301196,-89.1155459873,-41.0856651824,5.1295148206,2.8481534143,4.7394117661,-6.1365362101,-0.1807170188,5.237019835,5.2081,1.4308,0.4824,0.01381,-0.00862,0.01874,0.00115,0.0011,0.0012,0.0007,0.00074,0.00068,0.0145,0.0152,0.0158,passive,1
2.7205,rehab,mild_large_slow,112.684234901,-666.7429801923,222.7772198588,-177.3815791226,0.1414332442,-149.9700579485,-82.6084,-1.4903,119.2043,-77.2434,45.1102,21.9362,77.8225056439,26.7933458943,81.5428497053,-21.588813551,-89.109632417,-40.988397764,5.8162943665,2.7060206316,4.5956637935,-6.8868855641,0.6935760415,5.8542264364,5.3601,1.4453,0.5303,0.01151,-0.01368,0.0211,0.00115,0.0011,0.0012,0.0007,0.00074,0.00068,0.0145,0.0152,0.0158,passive,1
2.7405,rehab,mild_large_slow,111.0557098432,-666.744678097,225.1799017959,-177.3817288022,0.1351683091,-149.9762273785,-82.9156,0.117,119.1388,-44.5044,41.187,-52.5628,77.9668957392,26.8613738858,81.6565759286,-21.7529055421,-89.0878029456,-40.8514961249,6.9179645024,3.9448964939,4.3791531366,-7.2884349792,0.4856012941,5.6287642316,5.2937,1.3925,0.6674,0.01606,-0.01207,0.02061,0.00115,0.0011,0.0012,0.0007,0.00074,0.00068,0.0145,0.0152,0.0158,passive,1
2.7605,rehab,mild_large_slow,109.3676103967,-666.738298866,227.5427721265,-177.3836226982,0.139372036,-149.9689242021,-84.3886,0.1572,117.1018,-47.0578,0.3531,-19.6978,78.099224224,26.9511417541,81.7180158308,-21.8803509501,-89.0902083652,-40.7632471947,6.3152197563,3.6068626263,3.2041098691,-6.4911074223,0.9810371596,4.9358854688,5.061,1.2437,0.7723,0.01055,-0.01248,0.0196,0.00115,0.0011,0.0012,0.0007,0.00074,0.00068,0.0145,0.0152,0.0158,passive,1
2.7805,rehab,mild_large_slow,107.6801649027,-666.7383899784,229.8639734212,-177.3793265536,0.1366551217,-149.9698526082,-84.7979,0.1312,118.3509,-77.0013,-17.1125,54.6122,78.2195045295,27.0056483909,81.7847403234,-22.012549839,-89.0485614593,-40.6540607062,6.5136319532,3.6342802947,4.7347194944,-7.2498540999,0.6031860514,5.6232005733,5.1114,1.2574,0.5092,0.00701,-0.00949,0.01858,0.00115,0.0011,0.0012,0.0007,0.00074,0.00068,0.0145,0.0152,0.0158,passive,1
2.8005,rehab,mild_large_slow,105.9756933872,-666.7330525519,232.276807973,-177.3741327967,0.1377738607,-149.9769087378,-87.4687,-0.5273,119.2863,-113.2814,-25.6329,24.6013,78.3597695021,27.0965129659,81.9074046106,-22.1703451141,-89.0660809231,-40.5383191718,7.2701577624,3.4378521148,4.7198121703,-7.6309266431,-0.1732550608,6.1674271539,5.3137,1.3721,0.861,0.01001,-0.01007,0.0202,0.00115,0.0011,0.0012,0.0007,0.00074,0.00068,0.0145,0.0152,0.0158,passive,1
2.8205,rehab,mild_large_slow,104.1814179327,-666.7594818467,234.6354245361,-177.3783106765,0.1319526493,-149.9711926953,-89.3292,-0.8942,119.3349,-74.7104,8.6602,-52.0496,78.51031084,27.1431624755,81.9735328102,-22.3177869047,-89.0554916617,-40.40736362,5.9985016446,2.4375293598,4.193452246,-7.187119684,-0.3729621053,6.338778983,4.9012,1.3945,0.773,0.01195,-0.01207,0.01677,0.00115,0.0011,0.0012,0.0007,0.00074,0.00068,0.0145,0.0152,0.0158,passive,1
2.8405,rehab,mild_large_slow,102.4025260901,-666.7688188931,237.0502059675,-177.3773532001,0.1337545025,-149.9781061328,-90.4571,-0.1809,117.2043,-92.0312,20.6374,-96.8061,78.5997095679,27.1940141402,82.0751427004,-22.4578299015,-89.0809994073,-40.2847680125,5.7577941085,3.5833198677,4.1421427707,-7.1888720488,0.1505299966,6.0418563509,4.9801,1.1554,0.8717,0.00889,-0.00914,0.01888,0.00115,0.0011,0.0012,0.0007,0.00074,0.00068,0.0145,0.0152,0.0158,passive,1
2.8605,rehab,mild_large_slow,100.5631343443,-666.7667174688,239.3235962326,-177.3760226162,0.1418668595,-149.9777310203,-93.0104,-0.0687,115.4627,-96.3942,9.8309,-36.6549,78.7406226043,27.2864952702,82.139218521,-22.6053417867,-89.0494704618,-40.165689366,7.3994865128,3.0122290347,4.6734535216,-6.8141237935,0.9481461598,6.6437937192,5.7248,1.5097,0.9526,0.00947,-0.01017,0.02481,0.00115,0.0011,0.0012,0.0007,0.00074,0.00068,0.0145,0.0152,0.0158,passive,1
2.8805,rehab,mild_large_slow,98.6821087937,-666.7715654367,241.6687142281,-177.380884898,0.1381427183,-149.9673743859,-94.3129,0.2123,115.7381,-51.2214,-7.0673,-17.8152,78.8956890284,27.3145033016,82.2620808413,-22.7303948532,-89.043073561,-40.0190162637,6.8808152615,3.2519558899,5.2823382326,-6.5309281102,-0.2826932839,5.4888855022,4.9038,1.226,0.8535,0.00575,-0.0127,0.02123,0.00115,0.0011,0.0012,0.0007,0.00074,0.00068,0.0145,0.0152,0.0158,passive,1
2.9005,rehab,mild_large_slow,96.790619996,-666.758223723,243.9531201073,-177.3779573476,0.139837634,-149.9723871486,-95.0593,-0.3514,114.7501,-57.8197,-15.0529,-38.9751,79.0158552148,27.4165735058,82.3505120503,-22.8665789111,-89.0607781932,-39.9461339459,6.781567692,4.1972783873,3.8601115562,-7.5405237866,-0.1551070648,4.3689058065,4.8186,1.2744,0.825,0.00734,-0.01189,0.01747,0.00115,0.0011,0.0012,0.0007,0.00074,0.00068,0.0145,0.0152,0.0158,passive,1
2.9205,rehab,mild_large_slow,94.879737254,-666.7856197272,246.2587180889,-177.3797858451,0.1364409391,-149.9704666998,-96.6256,-0.3898,114.1791,-57.8449,20.0448,-27.5257,79.1669517361,27.4823944371,82.4164853035,-23.0320158047,-89.0492778436,-39.8442600314,6.0953096565,3.9382075964,5.1030985044,-7.197772044,0.9913642187,5.6487683076,4.5533,1.1417,0.9216,0.0126,-0.00744,0.01825,0.00115,0.0011,0.0012,0.0007,0.00074,0.00068,0.0145,0.0152,0.0158,passive,1
2.9405,rehab,mild_large_slow,92.9255941737,-666.773814616,248.5202838072,-177.3792813323,0.1375460358,-149.9666669867,-97.3731,0.4504,113.6491,-49.6213,20.9562,-31.3677,79.259667601,27.5741018096,82.5546359905,-23.1544897929,-89.0211236244,-39.7201832136,6.6568260756,2.9686502328,4.8723029508,-6.6651231355,0.2338460656,6.1618590727,4.8983,1.2424,1.0076,0.0086,-0.01044,0.01716,0.00115,0.0011,0.0012,0.0007,0.00074,0.00068,0.0145,0.0152,0.0158,passive,1
2.9605,rehab,mild_large_slow,90.9848139026,-666.7676023179,250.8046809044,-177.378616092,0.1388172143,-149.9710824773,-98.6105,0.4485,112.9244,-42.2305,-28.2431,-81.9629,79.4332247791,27.6011404464,82.6113774216,-23.2986207301,-89.0399240009,-39.5977856685,7.1619711932,2.0316233426,3.4410455173,-7.3304173208,-0.297168156,5.9399732394,4.2995,1.248,1.0054,0.00743,-0.00544,0.01763,0.00115,0.0011,0.0012,0.0007,0.00074,0.00068,0.0145,0.0152,0.0158,passive,1
2.9805,rehab,mild_large_slow,88.9811742576,-666.755875633,253.0372591318,-177.3796648561,0.1343473619,-149.9741583193,-99.0623,-0.6793,110.3706,-39.5573,-35.8095,-54.9867,79.5461464488,27.6553667433,82.6922778112,-23.4477064857,-89.0330103507,-39.482584284,6.3621709846,3.5365980871,4.578783172,-6.8577785371,0.0399132729,5.6989987579,4.8183,1.2492,1.2532,0.00777,-0.00847,0.0188,0.00115,0.0011,0.0012,0.0007,0.00074,0.00068,0.0145,0.0152,0.0158,passive,1
3.0005,rehab,mild_large_slow,87.0223218266,-666.7947738194,255.2195031087,-177.3773152395,0.1371450948,-149.9741241762,-100.1928,-0.9839,110.7249,-41.1468,11.4943,-17.1311,79.6877116185,27.7426043699,82.7945287485,-23.5729318716,-89.03832747,-39.3698257182,6.6386162307,4.3902658127,5.1156067566,-7.1017888386,0.8863969913,6.0211916735,4.0214,1.1289,1.1417,0.00651,-0.00657,0.014,0.00115,0.0011,0.0012,0.0007,0.00074,0.00068,0.0145,0.0152,0.0158,passive,1
3.0205,rehab,mild_large_slow,84.9734627115,-666.7952318344,257.4662556669,-177.3784169634,0.1359362339,-149.9735599337,-100.7082,-0.2195,109.6853,-9.5267,17.3675,-99.6079,79.811691098,27.8309773758,82.8969020815,-23.7317780392,-88.997554471,-39.2417366171,6.4057758938,3.3957040682,4.1714114257,-7.2478337067,0.037234031,6.3251588584,4.4156,1.213,0.9487,0.00894,-0.00562,0.01797,0.00115,0.0011,0.0012,0.0007,0.00074,0.00068,0.0145,0.0152,0.0158,passive,1
3.0405,rehab,mild_large_slow,82.9939949153,-666.8035544035,259.6069155621,-177.3786263047,0.1432565605,-149.9692036807,-100.5739,-0.2892,106.7406,-51.8646,3.9062,-108.6178,79.9439426543,27.8784325326,82.9613852055,-23.8628452199,-89.0368381088,-39.1168193639,6.0728372742,3.5127070471,4.048987109,-6.9336091261,-1.5182666501,5.8873540921,4.4263,1.042,1.2899,0.0052,-0.00394,0.01724,0.00115,0.0011,0.0012,0.0007,0.00074,0.00068,0.0145,0.0152,0.0158,passive,1
3.0605,rehab,mild_large_slow,80.9505084652,-666.8067999967,261.7358794877,-177.381740396,0.1400388339,-149.9761871073,-102.7828,-0.0633,105.3406,-37.4301,13.1228,-58.8181,80.054604589,27.9714856577,83.0588615658,-24.0091224043,-89.058285137,-39.0062424534,5.7288666246,2.9914274824,4.5254824014,-7.2150312995,1.4588940054,5.660397192,3.9295,1.0956,0.9271,0.00728,-0.0075,0.01585,0.00115,0.0011,0.0012,0.0007,0.00074,0.00068,0.0145,0.0152,0.0158,passive,1
3.0805,rehab,mild_large_slow,78.882684603,-666.8060850885,263.82053947,-177.3787570105,0.1375884553,-149.9678207415,-102.0711,0.2357,104.3879,-6.8602,25.6681,-43.9807,80.1730973193,27.9980896319,83.1424045015,-24.1514464718,-88.9784823486,-38.8904034762,6.8709626151,2.5785526924,4.7294449083,-7.8631820207,1.6446918459,5.7980002927,4.0282,1.0282,1.1345,0.00472,-0.00612,0.01194,0.00115,0.0011,0.0012,0.0007,0.00074,0.00068,0.0145,0.0152,0.0158,passive,1
3.1005,rehab,mild_large_slow,76.8676659908,-666.7973717527,265.9113942922,-177.3776990752,0.1335792281,-149.976888996,-103.0572,0.9635,103.5814,-74.4838,-19.9643,-88.0855,80.3294430936,28.0746277654,83.2480393622,-24.3236496851,-88.9924974632,-38.7743224417,6.6960236456,3.405869878,4.2051761733,-7.3716930824,-0.1877995785,4.847150226,4.8331,1.2275,1.3421,0.00978,-0.00528,0.01885,0.00115,0.0011,0.0012,0.0007,0.00074,0.00068,0.0145,0.0152,0.0158,passive,1
3.1205,rehab,mild_large_slow,74.7603979086,-666.7675468612,267.9637942129,-177.3803983739,0.1370770218,-149.9694407813,-105.0504,-0.5629,100.8645,-49.1468,-44.3785,-67.1025,80.4409382651,28.1343244271,83.3106115485,-24.4463141951,-88.9859943317,-38.6965174672,5.3622796036,3.5475940099,4.606913827,-6.0959879841,-0.1230780143,5.4728214608,4.4404,1.1552,1.3433,0.01278,-0.00525,0.01691,0.00115,0.0011,0.0012,0.0007,0.00074,0.00068,0.0145,0.0152,0.0158,passive,1
3.1405,rehab,mild_large_slow,72.6656494208,-666.8198864376,269.9459723123,-177.3784792237,0.1341103069,-149.9759674395,-105.023,-0.8117,100.8973,9.2112,14.6255,-82.9056,80.5439342777,28.2165315258,83.4323159152,-24.5674892045,-88.9974205838,-38.5554095833,7.1566567989,3.4884265272,5.763132599,-6.7047306763,-0.5325494058,6.7332660582,4.2832,1.1427,1.4918,0.00192,-0.00529,0.01706,0.00115,0.0011,0.0012,0.0007,0.00074,0.00068,0.0145,0.0152,0.0158,passive,1
3.1605,rehab,mild_large_slow,70.5594763591,-666.800014196,271.9996849142,-177.3790507703,0.1351414758,-149.9718070637,-104.682,0.0222,97.5482,35.7255,-9.4272,-165.2048,80.727204537,28.2738614882,83.5411368524,-24.7145034222,-89.0072963079,-38.4271868248,7.1288914327,2.8690580614,3.9144449481,-7.444261228,1.6294897369,5.984872335,4.3663,1.3268,1.469,0.00723,-0.00675,0.01701,0.00115,0.0011,0.0012,0.0007,0.00074,0.00068,0.0145,0.0152,0.0158,passive,1
3.1805,rehab,mild_large_slow,68.4783707287,-666.8190003018,273.8479013988,-177.3814821658,0.1352295332,-149.9733721588,-103.594,-1.1888,94.2891,-1.0608,5.9677,-57.6118,80.829089935,28.3312938483,83.5888937132,-24.8652596536,-88.9322409943,-38.3160146899,5.4580611913,3.8918046606,3.2630754908,-7.2690332827,0.4921711917,5.8219989888,4.3863,1.1329,1.3962,0.00279,-0.00534,0.01731,0.00115,0.0011,0.0012,0.0007,0.00074,0.00068,0.0145,0.0152,0.0158,passive,1
3.2005,rehab,mild_large_slow,66.4157155469,-666.8475650381,275.7712480062,-177.3809765776,0.1343479958,-149.975188601,-104.7244,0.2609,95.2438,-19.9941,44.4724,-32.3197,80.9455269847,28.4295336746,83.6716598721,-25.0052647535,-88.9876094603,-38.1943068653,6.0323563666,3.8611194648,3.9778026569,-6.5140502693,-1.0953688574,5.3979076678,4.0798,1.0572,1.2094,0.00492,-0.00798,0.01631,0.00115,0.0011,0.0012,0.0007,0.00074,0.00068,0.0145,0.0152,0.0158,passive,1
3.2205,rehab,mild_large_slow,64.2893947125,-666.8085657958,277.657651565,-177.3758252935,0.1320279922,-149.969912279,-104.3938,0.5901,92.9963,1.6055,-5.5953,-125.6872,81.0703841897,28.4857386268,83.7480058194,-25.1258216644,-88.9760557486,-38.1000983832,6.1449713845,4.4045894923,4.8436157565,-5.3627891472,0.629011875,4.7716364036,4.4682,1.2776,1.5553,0.01071,-0.00365,0.017,0.00115,0.0011,0.0012,0.0007,0.00074,0.00068,0.0145,0.0152,0.0158,passive,1
3.2405,rehab,mild_large_slow,62.2399641563,-666.82396002,279.4910995596,-177.3744927899,0.1355613695,-149.9757904621,-104.6602,0.0371,90.2163,-41.001,-10.6383,-87.5499,81.1913258401,28.6057172543,83.8654045023,-25.2197763194,-88.9624489853,-38.0034414091,5.9473106753,2.8085865095,3.820761294,-5.9252145265,0.0145926324,5.358887543,4.3256,1.2074,1.6351,0.00236,-0.00445,0.0147,0.00115,0.0011,0.0012,0.0007,0.00074,0.00068,0.0145,0.0152,0.0158,passive,1
3.2605,rehab,mild_large_slow,60.102987549,-666.8070837168,281.2663021612,-177.3793072405,0.1348816556,-149.9715330229,-106.0338,0.1646,89.4943,15.3137,-1.4163,-30.4531,81.3082766167,28.5980820872,83.9008362712,-25.3628302454,-88.9754720433,-37.8857428814,5.6568833789,1.0803500707,3.5276052468,-7.0295091294,0.0134329173,5.6772621649,4.4364,1.2074,1.6959,0.00468,-0.00349,0.01997,0.00115,0.0011,0.0012,0.0007,0.00074,0.00068,0.0145,0.0152,0.0158,passive,1
3.2805,rehab,mild_large_slow,57.9986111288,-666.8173763548,283.0708713526,-177.380860575,0.1358900151,-149.9716891724,-104.0476,-0.0196,88.9981,46.6012,16.8974,-75.1419,81.4176011752,28.6489312571,84.0065087122,-25.5009566846,-88.9619116686,-37.7763509225,5.6008842083,3.6010952983,4.4138260647,-7.1133981476,0.5122552571,4.9299452032,4.6167,1.3235,1.6789,0.00518,-0.00319,0.01421,0.00115,0.0011,0.0012,0.0007,0.00074,0.00068,0.0145,0.0152,0.0158,passive,1
3.3005,rehab,mild_large_slow,55.9410823582,-666.8078676649,284.826227847,-177.3797716402,0.1359984839,-149.9728204289,-104.1698,0.8405,86.4886,2.4129,14.2109,-148.7648,81.532311985,28.7421258992,84.0773893138,-25.6473661713,-88.954981833,-37.6885450733,6.5326582953,3.5379601836,3.4112094382,-6.5959400139,-0.1605876454,5.434733304,4.3514,1.3856,1.7969,0.00777,-0.00097,0.01436,0.00115,0.0011,0.0012,0.0007,0.00074,0.00068,0.0145,0.0152,0.0158,passive,1
3.3205,rehab,mild_large_slow,53.831820064,-666.7837568745,286.5304160606,-177.382611114,0.1326638319,-149.973118008,-103.9511,0.5488,83.0476,43.7125,-59.102,-140.9533,81.678907507,28.7904496644,84.1429570897,-25.7647942851,-88.9683351744,-37.5589615904,6.3506810902,3.3985569614,4.1062033532,-7.1323195771,0.4956405432,5.9889436602,4.3366,1.1597,1.7802,0.00516,-0.00169,0.01492,0.00115,0.0011,0.0012,0.0007,0.00074,0.00068,0.0145,0.0152,0.0158,passive,1
3.3405,rehab,mild_large_slow,51.7830378414,-666.7859141297,288.148129857,-177.3760107291,0.1357142771,-149.9657758097,-102.4213,-1.5236,80.8505,4.2988,-35.854,-69.7796,81.7863392286,28.8780681776,84.2416374479,-25.9326589544,-88.9351562113,-37.4489873269,5.2181417811,3.2816324265,4.4818023253,-6.704023995,0.1068105424,6.0618386242,4.4073,1.1919,1.8715,0.00548,-0.00075,0.01629,0.00115,0.0011,0.0012,0.0007,0.00074,0.00068,0.0145,0.0152,0.0158,passive,1
3.3605,rehab,mild_large_slow,49.7349690376,-666.8447005536,289.7644355613,-177.3783578639,0.1334591353,-149.9714599873,-103.7792,-0.8853,80.2564,-14.8272,40.4279,-74.6258,81.8876331783,28.9217149615,84.3222291827,-26.0329552449,-88.9640627527,-37.3164880454,5.0035166921,1.1482114519,3.5638046813,-5.3958941678,0.3659308643,4.5811808119,4.9973,1.3518,2.049,0.00606,-0.00327,0.01875,0.00115,0.0011,0.0012,0.0007,0.00074,0.00068,0.0145,0.0152,0.0158,passive,1
3.3805,rehab,mild_large_slow,47.631871344,-666.8213269279,291.3583845716,-177.3750012088,0.1341855881,-149.9730470868,-103.0144,0.0935,77.8655,72.6975,20.7217,-101.3388,81.9864798963,28.9239966357,84.3841896352,-26.1484947211,-88.9205189767,-37.2657400944,5.5611868215,3.0546066018,4.1271383889,-5.9357635752,0.8203887034,3.8883495133,4.0467,1.0936,1.8181,0.00296,-0.00138,0.01738,0.00115,0.0011,0.0012,0.0007,0.00074,0.00068,0.0145,0.0152,0.0158,passive,1
3.4005,rehab,mild_large_slow,45.6143944896,-666.8409596707,292.8790538025,-177.376217937,0.1371425413,-149.9709127268,-100.8713,-0.0565,76.2028,101.0512,19.7721,-41.2077,82.1100806511,29.0438992256,84.4873147183,-26.2703857879,-88.9312472046,-37.1609540649,6.2538423572,4.8653466507,5.2930175335,-5.8497686554,0.6797669827,4.6623005448,4.692,1.3432,2.0709,0.00247,-0.00264,0.01956,0.00115,0.0011,0.0012,0.0007,0.00074,0.00068,0.0145,0.0152,0.0158,passive,1
3.4205,rehab,mild_large_slow,43.5970207915,-666.8235849832,294.4064972784,-177.374803653,0.1390544188,-149.9736271918,-98.9723,0.8844,76.2171,1.9526,15.4882,-81.3633,82.2366335906,29.1186105017,84.5959103365,-26.3824854673,-88.8933282974,-37.0792480726,5.0006726697,2.6133816541,3.6308065424,-5.2783363826,0.5711753977,4.6760023345,4.8843,1.2384,2.2534,0.00696,0.00069,0.01803,0.00115,0.0011,0.0012,0.0007,0.00074,0.00068,0.0145,0.0152,0.0158,passive,1
3.4405,rehab,mild_large_slow,41.6555017822,-666.8055835053,295.9277397257,-177.378312505,0.1378427709,-149.9728719793,-100.7932,0.5631,72.9483,-15.6316,-16.5086,-165.4352,82.3101075579,29.1484344917,84.63254698,-26.4815192432,-88.9084001886,-36.9739139715,5.3366607215,3.0572467201,2.8405307844,-6.3988846995,-0.6911882859,5.3023597067,4.5818,1.3269,2.0856,0.00559,0.00038,0.01917,0.00115,0.0011,0.0012,0.0007,0.00074,0.00068,0.0145,0.0152,0.0158,passive,1
3.4605,rehab,mild_large_slow,39.5652944399,-666.8010618982,297.3244287265,-177.3810121762,0.1344176142,-149.9717431325,-99.5976,0.2241,69.5997,73.3871,-6.9202,-100.9323,82.4501000195,29.2409003705,84.7095315679,-26.6384408553,-88.9209758288,-36.8671536844,5.6429508742,2.9129601467,2.9581984816,-6.7211763491,0.137191627,4.6365904582,4.6551,1.2955,2.0791,0.00315,-0.00347,0.02034,0.00115,0.0011,0.0012,0.0007,0.00074,0.00068,0.0145,0.0152,0.0158,passive,1
3.4805,rehab,mild_large_slow,37.6715985583,-666.7966210246,298.7117293274,-177.3774835131,0.135095084,-149.9743097635,-97.8577,0.2863,68.911,83.8255,-21.5053,-41.8045,82.5358255929,29.2649528976,84.7508749193,-26.7503662972,-88.9029125236,-36.7884503532,5.971133195,1.2356981924,3.9267947782,-5.9557181821,0.6005392372,3.7128645021,4.8495,1.26,2.4351,-0.00259,0.00043,0.01836,0.00115,0.0011,0.0012,0.0007,0.00074,0.00068,0.0145,0.0152,0.0158,passive,1
3.5005,rehab,mild_large_slow,35.6509873917,-666.7896110672,300.0808685543,-177.3839078622,0.1364330138,-149.9781586102,-96.2446,-0.6361,67.9276,36.7555,-17.4388,-78.4086,82.6889453473,29.2903282982,84.866603359,-26.8766695826,-88.8969542593,-36.7186391043,5.7399213609,2.6040163267,3.8122969978,-5.2903959444,-0.1327885651,3.878896085,4.4889,1.127,2.3964,0.0015,0.0005,0.01863,0.00115,0.0011,0.0012,0.0007,0.00074,0.00068,0.0145,0.0152,0.0158,passive,1
3.5205,rehab,mild_large_slow,33.8218161902,-666.822067021,301.4288316998,-177.3801401028,0.1369106533,-149.9693617406,-96.3875,-0.4113,65.7747,-59.4461,47.1514,-125.0637,82.7654224473,29.3691135507,84.9033667992,-26.961982135,-88.9082240662,-36.6332945098,4.5302158267,3.0952651337,2.5069158906,-4.7422555829,0.2879512908,5.6790000058,4.8636,1.3118,2.3917,0.00304,0.00017,0.01836,0.00115,0.0011,0.0012,0.0007,0.00074,0.00068,0.0145,0.0152,0.0158,passive,1
3.5405,rehab,mild_large_slow,31.7954891689,-666.8060623638,302.7118545957,-177.3779032882,0.1328377605,-149.9766347204,-98.6224,1.2499,62.925,89.7992,27.3577,-91.0476,82.8701539803,29.4141389036,84.9668799946,-27.0663598059,-88.8854362077,-36.491479104,5.0529881649,2.4990325568,3.5258119351,-6.6466157245,-0.0276748689,5.1344611649,4.9633,1.5085,2.6446,0.00292,-0.00122,0.01695,0.00115,0.0011,0.0012,0.0007,0.00074,0.00068,0.0145,0.0152,0.0158,passive,1
3.5605,rehab,mild_large_slow,29.8769200911,-666.7720708523,303.9458320761,-177.3770282841,0.1333641614,-149.9748671866,-92.7955,0.683,62.1327,192.5229,-38.2806,-65.6912,82.9675419739,29.4690748529,85.0443992766,-27.2278467639,-88.9093310609,-36.4279160632,5.2000036493,2.9181770298,4.3375218891,-6.2965648276,-0.1022852745,4.3087125049,4.6283,1.2214,2.5594,0.00235,0.00285,0.01908,0.00115,0.0011,0.0012,0.0007,0.00074,0.00068,0.0145,0.0152,0.0158,passive,1
3.5805,rehab,mild_large_slow,28.0836696758,-666.7787413094,305.1971645089,-177.3771703976,0.1343524538,-149.9738306871,-90.9215,-0.2813,60.2974,49.2996,-26.9552,-139.3054,83.0781541263,29.5308659848,85.1403808702,-27.318222399,-88.8895276187,-36.3191306039,4.7001375441,2.349216631,3.9053399564,-4.2830093345,0.2136485193,3.776061599,4.9485,1.4734,2.6646,0.00696,0.00258,0.01733,0.00115,0.0011,0.0012,0.0007,0.00074,0.00068,0.0145,0.0152,0.0158,passive,1
3.6005,rehab,mild_large_slow,26.2400606802,-666.7833237154,306.3577264862,-177.3776786068,0.1350714363,-149.9728521301,-90.8235,-0.3952,56.5605,-14.8853,23.4624,-108.9281,83.1555474757,29.5630435182,85.2006128748,-27.3991671373,-88.9007851202,-36.2768735992,4.947990071,1.3652335072,2.5377581093,-3.8989070313,-0.4509854039,3.7291784013,4.5869,1.2374,2.4883,0.00292,-0.00184,0.01701,0.00115,0.0011,0.0012,0.0007,0.00074,0.00068,0.0145,0.0152,0.0158,passive,1
3.6205,rehab,mild_large_slow,24.4507294808,-666.7945485073,307.4595857728,-177.3770903728,0.1348219637,-149.9750841687,-91.5169,0.6572,55.9402,9.1136,-5.6751,-18.5082,83.2760737291,29.585475325,85.2418911946,-27.4741786803,-88.9075670348,-36.1699634678,5.1637479158,2.5819500676,3.6426814451,-4.8055922303,0.9236235611,3.6384491825,5.0153,1.3595,2.8902,0.00032,0.00452,0.02102,0.00115,0.0011,0.0012,0.0007,0.00074,0.00068,0.0145,0.0152,0.0158,passive,1
3.6405,rehab,mild_large_slow,22.5793848023,-666.7570367877,308.5953359831,-177.3813330764,0.133033852,-149.9747475311,-90.459,-0.6222,55.8202,95.0335,-36.9266,-34.4785,83.3620973923,29.6663215209,85.3463201326,-27.5913908265,-88.8638401777,-36.1313356319,4.4982456251,1.9513428797,3.2071496585,-5.6926700453,0.0375217161,4.0913940863,4.4405,1.1839,2.3727,0.00101,0.00251,0.01578,0.00115,0.0011,0.0012,0.0007,0.00074,0.00068,0.0145,0.0152,0.0158,passive,1
3.6605,rehab,mild_large_slow,20.8323710698,-666.8194359053,309.6923938813,-177.3780457729,0.1331396136,-149.9709342593,-87.7156,-0.8199,54.5611,71.5584,35.3634,-142.1265,83.4560035541,29.6635290402,85.3701771809,-27.7018854821,-88.9060661662,-36.0063077043,3.5568200999,1.5052757847,3.561478984,-4.990011154,-0.3474098804,5.0346582603,4.2839,1.5524,2.366,0.00653,0.00503,0.01585,0.00115,0.0011,0.0012,0.0007,0.00074,0.00068,0.0145,0.0152,0.0158,passive,1
3.6805,rehab,mild_large_slow,19.0707625936,-666.7898323932,310.7777798925,-177.3781696174,0.1354013971,-149.9750570423,-87.5966,0.7924,50.1351,44.4447,42.046,-114.2616,83.5043701963,29.7265325523,85.488779292,-27.7909912727,-88.8777365729,-35.9299493015,3.7404654072,3.705975757,3.2826682663,-4.6828448559,0.8553652643,3.6325878455,4.2309,1.2458,2.4379,0.00306,0.00627,0.02124,0.00115,0.0011,0.0012,0.0007,0.00074,0.00068,0.0145,0.0152,0.0158,passive,1
3.7005,rehab,mild_large_slow,17.3285061184,-666.7877418796,311.6977995298,-177.3804676077,0.1333897838,-149.9764003778,-85.9378,0.8619,49.9906,91.911,2.1523,26.3114,83.6056221704,29.8117680705,85.5014839116,-27.8891992763,-88.8718515556,-35.8610041905,4.5371168241,3.2963985035,2.3059553455,-5.3392929478,0.7311603532,3.8278527624,4.3525,1.2383,2.7753,0.00276,0.00863,0.01684,0.00115,0.0011,0.0012,0.0007,0.00074,0.00068,0.0145,0.0152,0.0158,passive,1
3.7205,rehab,mild_large_slow,15.6332518276,-666.7553544049,312.7774052633,-177.3703300682,0.1357646402,-149.9722296196,-83.9202,0.8784,51.1876,1228.7734,-30.2149,-735.0585,83.6858548693,29.8583884924,85.5810175058,-28.0045629906,-88.8484901588,-35.776835191,4.6898673114,1.6627738146,3.3303264468,-5.8964097505,0.3654250847,4.5917303079,4.5992,1.4103,2.7287,0.00328,-0.00026,0.01906,0.00115,0.0011,0.0012,0.0007,0.00074,0.00068,0.0145,0.0152,0.0158,passive,1
3.7405,rehab,mild_large_slow,13.9716987949,-666.7526041348,313.7453033876,-177.3754894769,0.1306569614,-149.97459769,-36.7868,-0.3466,20.5883,1287.0337,-39.5659,-833.9406,83.7932168629,29.8782790231,85.6346969694,-28.1250556664,-88.8572345522,-35.6773349782,2.4814489991,0.7643639908,0.6287496633,-2.2796798922,-0.6793998082,1.4588902047,3.9844,1.2875,2.5474,0.00277,0.00574,0.01198,0.00115,0.0011,0.0012,0.0007,0.00074,0.00068,0.0145,0.0152,0.0158,passive,1
3.7605,rehab,mild_large_slow,14.1617785055,-666.7692202513,313.6009370557,-177.38109568,0.1295750332,-149.9739397285,-32.4388,-0.7042,17.83,-944.5103,6.5297,572.8402,83.7851128292,29.8889630521,85.6061674923,-28.0957501863,-88.8756661511,-35.7184795828,1.6675392456,1.76711001,0.1056848703,-1.3544143135,-0.2000867401,0.5442065891,3.9401,1.1157,2.5713,0.00319,0.00579,0.01777,0.00115,0.0011,0.0012,0.0007,0.00074,0.00068,0.0145,0.0152,0.0158,passive,1
3.7805,rehab,mild_large_slow,12.6741453593,-666.7807718224,314.458502325,-177.376020763,0.1338098425,-149.9774209462,-74.5672,-0.0855,43.5019,-1041.4543,21.4048,558.4945,83.8599184327,29.9489634235,85.6389243642,-28.1792322389,-88.8652380218,-35.6555667146,3.1956087663,1.6659175327,3.0825045785,-4.1152398814,0.6350064115,3.7401767238,4.4222,1.3757,2.7742,0.00435,-0.00172,0.02009,0.00115,0.0011,0.0012,0.0007,0.00074,0.00068,0.0145,0.0152,0.0158,passive,1
3.8005,rehab,mild_large_slow,11.1790886528,-666.7726385543,315.3410130918,-177.3818533312,0.1338911081,-149.97130609,-74.097,0.152,40.1698,31.3744,58.6661,-111.6463,83.9129371799,29.9555997534,85.7294676755,-28.2603597816,-88.8502658947,-35.5688725139,4.0129237177,2.0343307059,2.2642448686,-4.0077624784,0.9817336146,3.8425231581,4.552,1.3257,3.0079,0.00099,0.00662,0.01802,0.00115,0.0011,0.0012,0.0007,0.00074,0.00068,0.0145,0.0152,0.0158,passive,1
3.8205,rehab,mild_large_slow,9.7102650408,-666.7746918241,316.0652925145,-177.3756631209,0.1313674475,-149.975125281,-73.3123,2.2612,39.036,77.7203,14.4283,-48.6624,84.0204353814,30.0303366517,85.729494159,-28.339542738,-88.8259686772,-35.5018657883,3.5397124775,2.3372502877,3.1606861626,-3.2083870399,-0.0562807408,3.2464524783,4.5888,1.4449,3.0168,-0.00136,-0.00059,0.01682,0.00115,0.0011,0.0012,0.0007,0.00074,0.00068,0.0145,0.0152,0.0158,passive,1
3.8405,rehab,mild_large_slow,8.2465978324,-666.6821911752,316.9024550788,-177.3810050703,0.1348876124,-149.9690093517,-70.9882,0.7291,38.2233,105.4311,-105.2228,-78.8654,84.054525679,30.0490897649,85.855895122,-28.3886952631,-88.8525171243,-35.4390144147,2.6644160015,1.4348677765,2.8891583131,-2.9882478996,-0.2240550244,3.0235366995,4.5627,1.4,3.0162,0.00545,0.00533,0.01794,0.00115,0.0011,0.0012,0.0007,0.00074,0.00068,0.0145,0.0152,0.0158,passive,1
3.8605,rehab,mild_large_slow,6.8707372504,-666.745526506,317.5942228197,-177.3813143152,0.1362279311,-149.9722334224,-69.095,-1.9477,35.8814,76.6801,-18.339,-58.1053,84.1270120215,30.0877313628,85.8450604915,-28.459072654,-88.8349308782,-35.3809243203,3.2930836165,1.6547210465,1.2678207916,-4.1141688083,0.5846468037,3.0748137707,4.1876,1.446,2.9503,0.00355,0.0061,0.01928,0.00115,0.0011,0.0012,0.0007,0.00074,0.00068,0.0145,0.0152,0.0158,passive,1
3.8805,rehab,mild_large_slow,5.4827967997,-666.7601003428,318.3377124278,-177.3797923621,0.1352357581,-149.9761331548,-67.921,-0.0044,35.899,85.5653,63.4993,-39.1411,84.1862490236,30.1152786067,85.9066079537,-28.5532620155,-88.8291312521,-35.3160218639,3.4496503058,0.8131044304,2.4203456981,-2.8388569775,-0.7391670732,2.9174852059,4.5383,1.4564,3.035,0.00365,0.00197,0.01437,0.00115,0.0011,0.0012,0.0007,0.00074,0.00068,0.0145,0.0152,0.0158,passive,1
3.9005,rehab,mild_large_slow,4.1538975552,-666.7457036178,319.0301846469,-177.3778531793,0.1342513331,-149.9750199899,-65.6724,0.5922,34.3158,79.5381,21.586,-59.8592,84.2649980337,30.12025554,85.9418743194,-28.5726269331,-88.8644975612,-35.2642249121,3.1894974974,2.5756839236,1.9225641032,-3.8625800639,0.2306510203,2.6524551238,4.6534,1.4332,3.2067,0.00033,0.0071,0.01666,0.00115,0.0011,0.0012,0.0007,0.00074,0.00068,0.0145,0.0152,0.0158,passive,1
3.9205,rehab,mild_large_slow,2.8559002497,-666.7364106277,319.7103439699,-177.3777243969,0.1315756739,-149.9736492989,-64.7395,0.859,33.5047,62.3942,5.8837,-49.9275,84.3138289235,30.2183059637,85.9835105178,-28.707765218,-88.8199052113,-35.209923659,2.6847184746,2.3214437984,2.2773068246,-4.065654933,0.9564057085,2.6135289239,4.3856,1.4298,3.1223,0.00106,0.00819,0.01945,0.00115,0.0011,0.0012,0.0007,0.00074,0.00068,0.0145,0.0152,0.0158,passive,1
3.9405,rehab,mild_large_slow,1.5643188066,-666.7113431608,320.3703716875,-177.3800351589,0.131677756,-149.976359232,-63.1766,0.8276,32.3187,72.8733,-31.0431,-55.3725,84.3723867727,30.2131132919,86.0329665924,-28.7352531304,-88.8262413328,-35.1596837551,3.8686202785,0.3513278267,1.7996202975,-3.1325460632,0.0100378107,2.6768642546,4.3755,1.5146,2.9025,0.00425,0.00057,0.01336,0.00115,0.0011,0.0012,0.0007,0.00074,0.00068,0.0145,0.0152,0.0158,passive,1
3.9605,rehab,mild_large_slow,0.3288344975,-666.7033070379,321.0030914421,-177.3793693688,0.1329752762,-149.9730140481,-61.8245,-0.3827,31.2898,68.0285,-34.5022,-21.7518,84.4685737347,30.2323590767,86.0554953297,-28.8330670606,-88.8195036989,-35.1028490888,3.0182400677,1.9702222307,0.913991758,-3.4041708237,0.6031678022,3.0393604823,4.6346,1.3569,3.2353,0.00265,0.00668,0.01604,0.00115,0.0011,0.0012,0.0007,0.00074,0.00068,0.0145,0.0152,0.0158,passive,1
3.9805,rehab,mild_large_slow,-0.9086625967,-666.7266517088,321.6219626572,-177.3771008686,0.1333088491,-149.9767231335,-60.4555,-0.5525,31.4486,40.4096,25.4371,-44.8365,84.4931163754,30.2919221812,86.0695262627,-28.8714199634,-88.8021146207,-35.0381093359,3.3739697264,2.1564184568,3.0099137288,-2.3919079919,0.2936228901,2.3286870658,4.1712,1.2911,2.8722,0.00209,0.00704,0.01265,0.00115,0.0011,0.0012,0.0007,0.00074,0.00068,0.0145,0.0152,0.0158,passive,1
4.0005,rehab,mild_large_slow,-2.0893856025,-666.7254069755,322.2610360923,-177.382674287,0.1312301134,-149.9728545652,-60.2082,0.6348,29.4963,36.0262,44.9821,-123.8598,84.6035325237,30.318615815,86.1758918788,-28.9287433802,-88.8077587833,-35.0097016061,2.9656834035,1.0324714984,3.6452923007,-4.0463452596,0.02941116,1.7802712554,4.7804,1.3568,3.4407,0.00247,0.00659,0.0165,0.00115,0.0011,0.0012,0.0007,0.00074,0.00068,0.0145,0.0152,0.0158,passive,1
4.0205,rehab,mild_large_slow,-3.3169886929,-666.7012608231,322.8018152141,-177.3753670559,0.129067025,-149.981715361,-59.0145,1.2468,26.4942,103.722,-3.5941,-70.4664,84.6117437115,30.3332210411,86.2153379548,-29.0332737738,-88.8009381743,-34.9668984856,2.2252228524,0.5928648504,1.9736580519,-3.7785596879,-0.3905525542,3.0383029733,4.4841,1.3622,2.9675,0.00348,0.0012,0.01546,0.00115,0.0011,0.0012,0.0007,0.00074,0.00068,0.0145,0.0152,0.0158,passive,1
4.0405,rehab,mild_large_slow,-4.4499638261,-666.6755355339,323.3208050041,-177.382920166,0.1300213294,-149.9735824929,-56.0593,0.491,26.6777,120.5304,-19.6599,15.2224,84.6925414378,30.342330409,86.2548382009,-29.0798857678,-88.8233808855,-34.8881694872,2.6825498253,1.6109639068,1.0785352888,-2.1948118789,-0.3555490215,2.6646367162,4.4388,1.3721,3.2474,0.00134,0.00477,0.01514,0.00115,0.0011,0.0012,0.0007,0.00074,0.00068,0.0145,0.0152,0.0158,passive,1
4.0605,rehab,mild_large_slow,-5.5593596552,-666.681620491,323.868921603,-177.3786664512,0.1326528158,-149.9737667787,-54.1932,0.4604,27.1031,64.9041,5.9731,-46.2741,84.7190457046,30.3976595974,86.2584793663,-29.1210662489,-88.8151601352,-34.860313017,2.3813723059,1.7713480764,0.5243898075,-2.9904979063,0.6344879384,1.9120568744,4.3582,1.2556,3.2227,0.00155,0.00804,0.01638,0.00115,0.0011,0.0012,0.0007,0.00074,0.00068,0.0145,0.0152,0.0158,passive,1
4.0805,rehab,mild_large_slow,-6.6176934796,-666.6571198833,324.4049296839,-177.3726773271,0.1298459228,-149.9739571703,-53.4631,0.7299,24.8267,50.4536,-33.8823,-69.3134,84.7877963301,30.4131843321,86.2758137932,-29.199505684,-88.7980013679,-34.8116872122,3.2347033532,1.1157679122,2.6053645018,-3.3382865173,0.1844321978,2.4319937785,4.5756,1.4029,3.4531,-0.00041,0.00202,0.01754,0.00115,0.0011,0.0012,0.0007,0.00074,0.00068,0.0145,0.0152,0.0158,passive,1
4.1005,rehab,mild_large_slow,-7.6978839999,-666.6524232068,324.8619894884,-177.3779230869,0.1326559711,-149.9768394297,-52.1751,-0.8949,24.3306,71.5662,-9.8999,-11.2561,84.8484338387,30.4422903139,86.3626939464,-29.2545977096,-88.8077828473,-34.7630332659,1.8228424468,1.8723594521,1.7154217889,-2.7114156712,0.5841211529,2.2150078339,4.3171,1.3481,3.0382,9e-05,0.00347,0.01513,0.00115,0.0011,0.0012,0.0007,0.00074,0.00068,0.0145,0.0152,0.0158,passive,1
4.1205,rehab,mild_large_slow,-8.7046974219,-666.6929158678,325.3781529062,-177.380502204,0.1313857451,-149.9748401908,-50.6005,0.3339,24.3765,49.7049,48.2246,-48.3271,84.8607100279,30.4880787102,86.3444306648,-29.3079623109,-88.7746365218,-34.7230868989,1.3969613748,1.0763571422,0.876662004,-1.8679240049,0.8068303622,1.3672170706,4.4189,1.3853,3.4569,-0.00027,0.00954,0.01595,0.00115,0.0011,0.0012,0.0007,0.00074,0.00068,0.0145,0.0152,0.0158,passive,1
4.1405,rehab,mild_large_slow,-9.7219024982,-666.6390658254,325.8370476933,-177.3800069261,0.1328251408,-149.9753328836,-50.1869,1.0341,22.3975,79.3824,-17.452,-69.1877,84.9043122937,30.4853445996,86.3977604265,-29.3293146698,-88.7755096328,-34.708344583,2.2618149765,1.1241343275,2.3739095201,-2.1562958313,-0.2417814894,2.2265399183,4.3148,1.3912,3.2818,-9e-05,0.01008,0.0141,0.00115,0.0011,0.0012,0.0007,0.00074,0.00068,0.0145,0.0152,0.0158,passive,1
4.1605,rehab,mild_large_slow,-10.7121734521,-666.6515524155,326.274052718,-177.379184579,0.1316695839,-149.9716030864,-47.4252,-0.3641,21.6089,79.2176,-22.4715,19.0172,84.951182627,30.5330440833,86.4393870456,-29.3942141441,-88.7843077814,-34.6340253021,3.5367900893,0.8016198142,0.879833692,-3.5711625048,-0.2056664523,2.2554477445,4.394,1.3838,3.4963,-0.00071,0.00164,0.01781,0.00115,0.0011,0.0012,0.0007,0.00074,0.00068,0.0145,0.0152,0.0158,passive,1
4.1805,rehab,mild_large_slow,-11.6189091225,-666.6536316864,326.7014055774,-177.3778834605,0.1343676364,-149.9751521262,-47.0182,0.1352,23.1582,-2.799,18.3416,-8.4774,85.0457838972,30.5174093921,86.4329537742,-29.47216117,-88.7837362909,-34.6181266732,4.0281046768,-0.384386152,0.7054202922,-2.0920051576,0.0966029293,2.0219918501,4.5457,1.5295,3.4142,-0.00042,0.0035,0.01698,0.00115,0.0011,0.0012,0.0007,0.00074,0.00068,0.0145,0.0152,0.0158,passive,1
4.2005,rehab,mild_large_slow,-12.5929012558,-666.6461432937,327.2003801134,-177.3757492482,0.1307019786,-149.975108741,-47.5371,0.3695,21.2699,61.0988,-0.3273,-109.5679,85.1123068141,30.5176686372,86.4676038573,-29.4778943504,-88.7804436642,-34.5531456281,1.7700717223,1.8840348218,1.0770383082,-1.5605556991,0.132216479,2.6304626412,4.4466,1.3581,3.3135,-0.00066,0.00381,0.01415,0.00115,0.0011,0.0012,0.0007,0.00074,0.00068,0.0145,0.0152,0.0158,passive,1
4.2205,rehab,mild_large_slow,-13.5203940807,-666.6388509625,327.5521996715,-177.3793590429,0.1326451651,-149.9750038377,-44.5742,0.1221,18.7755,108.6291,-4.7955,-94.7221,85.1165867661,30.592770785,86.4760353065,-29.534583398,-88.7784476317,-34.5129081676,1.193708658,2.8386349146,2.7055397375,-3.0720235963,-0.1387159752,1.6447082213,4.2235,1.235,3.445,-0.00108,0.00892,0.0168,0.00115,0.0011,0.0012,0.0007,0.00074,0.00068,0.0145,0.0152,0.0158,passive,1
4.2405,rehab,mild_large_slow,-14.3758708997,-666.6412578248,327.9513988135,-177.3775815988,0.1299314998,-149.9781160159,-43.192,0.1777,17.481,77.122,26.2106,-44.2958,85.1600551604,30.6312140338,86.5758254468,-29.6007752943,-88.7859923032,-34.4873572993,1.2960454718,0.9742070032,2.2340397526,-2.1140930552,-0.1823188159,1.8398763766,4.5375,1.3501,3.4824,-0.00194,0.0072,0.01794,0.00115,0.0011,0.0012,0.0007,0.00074,0.00068,0.0145,0.0152,0.0158,passive,1
4.2605,rehab,mild_large_slow,-15.2480724858,-666.6317430541,328.2514384774,-177.3764717503,0.1290863153,-149.9721135798,-41.4894,1.1706,17.0036,73.7463,8.2352,36.8233,85.168428585,30.6317390651,86.5653968967,-29.6191471202,-88.7857403844,-34.4393131125,1.4999934497,-0.2636025404,0.905414719,-2.1545798779,-0.6572588216,1.7662705214,4.2592,1.3237,3.4824,-0.00218,0.01046,0.01707,0.00115,0.0011,0.0012,0.0007,0.00074,0.00068,0.0145,0.0152,0.0158,passive,1
4.2805,rehab,mild_large_slow,-16.0354453665,-666.5944354438,328.6315442473,-177.3746050005,0.1305342149,-149.9762333209,-40.2421,0.5071,18.9539,54.457,-23.0943,-10.703,85.2200548984,30.6206699322,86.6120420355,-29.6869584894,-88.8122826561,-34.4167064784,3.0986993131,0.5555340794,1.6245869509,-2.4682128631,0.2139521342,2.0487208741,4.6138,1.5883,3.8603,-0.00327,0.00876,0.01558,0.00115,0.0011,0.0012,0.0007,0.00074,0.00068,0.0145,0.0152,0.0158,passive,1
4.3005,rehab,mild_large_slow,-16.8577568398,-666.6114588479,329.0095945617,-177.3795523285,0.1302576513,-149.9774623582,-39.3111,0.2468,16.5755,66.7529,20.6417,-122.9069,85.2923765575,30.6539604283,86.6303803747,-29.7178756347,-88.777182299,-34.3573642776,3.128614303,1.7245263965,0.4925861402,-0.2638607176,0.6298308921,2.2718691837,4.429,1.4927,3.4927,0.00111,0.00621,0.01352,0.00115,0.0011,0.0012,0.0007,0.00074,0.00068,0.0145,0.0152,0.0158,passive,1
4.3205,rehab,mild_large_slow,-17.6078886494,-666.5845638729,329.2945649126,-177.3781508974,0.1305929552,-149.9747851867,-37.572,1.3328,14.0376,61.7729,1.4504,-19.5924,85.3451994705,30.689650988,86.6317454811,-29.6975129181,-88.7870894204,-34.3258317111,1.3624984868,0.8769725286,1.4475646857,-2.0861209638,0.5613271627,0.8090529315,4.2086,1.3319,3.2737,0.00326,0.00555,0.01761,0.00115,0.0011,0.0012,0.0007,0.00074,0.00068,0.0145,0.0152,0.0158,passive,1
4.3405,rehab,mild_large_slow,-18.3606365353,-666.558147884,329.5710995718,-177.3797388655,0.1305480186,-149.9794702989,-36.8402,0.3048,15.7918,-2822.3562,-33.6755,1193.6696,85.346876497,30.6890393294,86.6882829621,-29.8013204732,-88.7547292125,-34.3250021603,0.3223614551,0.6913063284,1.5638591498,-3.2866861487,0.0093948762,1.5253394471,4.4218,1.3618,3.5541,0.00053,0.0072,0.01605,0.00115,0.0011,0.0012,0.0007,0.00074,0.00068,0.0145,0.0152,0.0158,passive,1
4.3605,rehab,mild_large_slow,-19.0814953595,-666.5723716973,329.9262377735,-177.3809242106,0.1257020583,-149.974988834,-150.4662,-0.0142,61.7844,-2805.7264,-8.7674,1135.7952,85.3580939287,30.7173032412,86.6942998471,-29.828980364,-88.7867136254,-34.2648181332,7.4877390877,4.4020005232,3.2773661112,-7.7475383036,-0.1998182736,6.4132555975,5.4551,1.7365,4.2784,-0.00221,0.01102,0.02093,0.00115,0.0011,0.0012,0.0007,0.00074,0.00068,0.0145,0.0152,0.0158,passive,1
4.3805,rehab,mild_large_slow,-24.379286106,-666.5587177783,332.0424760152,-177.3754697986,0.1318660454,-149.974939064,-149.0692,-0.0459,61.2236,2891.4846,-12.305,-1209.5022,85.6463860605,30.8651193504,86.8193776066,-30.1112220054,-88.7627219434,-34.0684719364,8.7409261771,4.4052706351,5.5603409467,-7.4230552085,0.5476399412,5.9589735936,5.0892,1.6951,4.3539,0.0003,0.0094,0.02071,0.00115,0.0011,0.0012,0.0007,0.00074,0.00068,0.0145,0.0152,0.0158,passive,1
4.4005,rehab,mild_large_slow,-25.0442642577,-666.5742073283,332.3751829942,-177.3796085767,0.1274282912,-149.9780764064,-34.8069,-0.5064,13.4043,2885.9864,8.1345,-1234.9858,85.7077309758,30.8935140666,86.916713485,-30.1259025724,-88.7648080277,-34.0264591895,0.9365104525,0.5935319112,2.2946722596,-1.0770997149,0.4291396702,1.3993628488,4.2897,1.4113,3.5656,-0.00163,0.01049,0.01294,0.00115,0.0011,0.0012,0.0007,0.00074,0.00068,0.0145,0.0152,0.0158,passive,1
4.4205,rehab,mild_large_slow,-25.7715602891,-666.5789757163,332.5786489406,-177.3776854512,0.1308839548,-149.9801938799,-33.6298,0.2795,11.8242,42.55,0.8696,-4.8115,85.6838464786,30.8888606268,86.9111644969,-30.154305994,-88.7455563566,-34.0124974225,0.3439735332,1.5369454008,0.0793284659,-1.7660771014,-0.8154202246,0.7365652576,4.4755,1.4562,3.7536,0.00213,0.00905,0.01586,0.00115,0.0011,0.0012,0.0007,0.00074,0.00068,0.0145,0.0152,0.0158,passive,1
4.4405,rehab,mild_large_slow,-26.3894548933,-666.5630277686,332.848150885,-177.3828819262,0.1318560277,-149.9770141976,-33.1049,-0.4717,13.2119,50.8574,-5.4105,1.2676,85.7214899171,30.9549918826,86.9198866236,-30.1965456564,-88.7974248367,-33.9969965792,2.3880298895,0.7996595939,1.2217896871,-1.5120090388,-0.869523761,1.4326373403,4.5144,1.5727,3.8292,0.00342,0.00844,0.01259,0.00115,0.0011,0.0012,0.0007,0.00074,0.00068,0.0145,0.0152,0.0158,passive,1
4.4605,rehab,mild_large_slow,-27.0957544526,-666.5978423493,333.1071235351,-177.3766214126,0.1296465697,-149.9785907007,-31.5955,0.0631,11.8749,153.7099,58.4804,-77.3702,85.7793676742,30.9208470106,86.9600360844,-30.2147863555,-88.7803373071,-33.9551919288,1.2529302862,-0.4575797176,0.5910328946,-2.0647794192,0.6178897288,1.566868514,4.2975,1.2804,3.5623,-6e-05,0.01023,0.01947,0.00115,0.0011,0.0012,0.0007,0.00074,0.00068,0.0145,0.0152,0.0158,passive,1
4.4805,rehab,mild_large_slow,-27.6532736529,-666.5605050688,333.3231469749,-177.3794258769,0.1315581429,-149.9704452944,-26.9565,1.8676,10.1171,136.067,-0.6988,-60.7632,85.7716071286,30.9366886939,86.9435279394,-30.2791368332,-88.7727092475,-33.9343218386,1.0384168952,0.2328674144,0.1632580454,-0.8922037691,0.739028221,1.8316658555,4.5323,1.5473,3.9622,0.00019,0.01255,0.01494,0.00115,0.0011,0.0012,0.0007,0.00074,0.00068,0.0145,0.0152,0.0158,passive,1
4.5005,rehab,mild_large_slow,-28.1740128116,-666.5231402757,333.5118057704,-177.3776815314,0.1302451778,-149.9747571059,-26.1528,0.0351,9.4444,51.7727,-55.8237,-12.5336,85.82090435,30.9301617071,86.9665664062,-30.2504745063,-88.7507761782,-33.8819252946,0.6771470301,0.9833958158,1.3170359223,-0.4957937019,-0.4330057412,1.0598718176,4.0893,1.3554,3.7151,-0.00352,0.00946,0.01915,0.00115,0.0011,0.0012,0.0007,0.00074,0.00068,0.0145,0.0152,0.0158,passive,1
4.5205,rehab,mild_large_slow,-28.6993851556,-666.5591004819,333.7009219251,-177.3746062107,0.1305819085,-149.9797991783,-24.8856,-0.3654,9.6157,105.0525,41.8941,-10.0247,85.7986930098,30.9760245265,86.9962093763,-30.2989685813,-88.7900294772,-33.8919269659,0.6754524835,0.440223161,1.3699173024,-2.6739853478,-0.6845454519,0.0271754004,4.062,1.358,3.5069,-0.0027,0.0081,0.01337,0.00115,0.0011,0.0012,0.0007,0.00074,0.00068,0.0145,0.0152,0.0158,passive,1
4.5405,rehab,mild_large_slow,-29.1694348418,-666.5377561628,333.8964341843,-177.3760301129,0.13023427,-149.9760000568,-21.9507,1.7109,9.0434,80.1141,7.4032,-51.7353,85.8479224493,30.9477706336,87.0213630983,-30.3574339202,-88.7781579963,-33.8808382786,2.4742806184,0.1807199073,1.1898303702,-1.5360576206,0.1033925237,0.9618364087,3.9438,1.3559,3.5365,0.0008,0.01234,0.01215,0.00115,0.0011,0.0012,0.0007,0.00074,0.00068,0.0145,0.0152,0.0158,passive,1
4.5605,rehab,mild_large_slow,-29.5774127118,-666.4906653072,334.0626572993,-177.3756677776,0.1293027377,-149.9764048057,-21.681,-0.0693,7.5463,22.0296,-41.795,-20.2911,85.8976642345,30.9832533228,87.0438025911,-30.3604108861,-88.7858937762,-33.8534535095,0.7441279574,0.9025478092,0.7278218838,-0.3418544653,1.2775976164,0.4902596407,4.0411,1.2872,3.5066,-0.00382,0.00669,0.01297,0.00115,0.0011,0.0012,0.0007,0.00074,0.00068,0.0145,0.0152,0.0158,passive,1
4.5805,rehab,mild_large_slow,-30.0366743433,-666.5405269008,334.1982861927,-177.379298375,0.1254446713,-149.9735098305,-21.0695,0.0391,8.2317,96.9744,11.447,-12.0237,85.8776875676,30.983872546,87.0504759737,-30.3711080988,-88.7270540916,-33.861227893,0.4599706064,0.9147009495,0.24385362,-0.0767130866,0.9483858842,0.0785029204,4.0034,1.3221,3.5826,0.00294,0.01128,0.01622,0.00115,0.0011,0.0012,0.0007,0.00074,0.00068,0.0145,0.0152,0.0158,passive,1
4.6005,rehab,mild_large_slow,-30.420192911,-666.4891021966,334.3919268984,-177.3769139347,0.12880265,-149.9747465456,-17.802,0.3886,7.0654,144.3676,-24.4203,-91.3276,85.9160630588,31.0198413608,87.0535567359,-30.3634794096,-88.7479583409,-33.8503133927,1.5778790634,1.2416202356,0.1125997913,-0.375836886,-0.894837396,1.1227616552,4.0936,1.4733,3.7325,-0.00141,0.0094,0.01366,0.00115,0.0011,0.0012,0.0007,0.00074,0.00068,0.0145,0.0152,0.0158,passive,1
4.6205,rehab,mild_large_slow,-30.7487547994,-666.5249824177,334.4809003283,-177.3807402912,0.127780795,-149.9791510522,-15.2948,-0.9377,4.5786,107.6593,10.1738,-73.8171,85.9408027302,31.0335373554,87.0549799653,-30.3861415743,-88.7628475875,-33.8163174268,0.40669314,-0.1585917418,0.2168961146,-1.2123563572,-0.2550309787,1.2324296555,3.8563,1.1854,3.4467,-0.00256,0.00534,0.01362,0.00115,0.0011,0.0012,0.0007,0.00074,0.00068,0.0145,0.0152,0.0158,passive,1
4.6405,rehab,mild_large_slow,-31.0319849867,-666.5266115593,334.5750723833,-177.3770216522,0.1292492055,-149.9799347014,-13.4956,0.7956,4.1127,119.6239,32.6268,9.7459,85.9323307844,31.0134976911,87.0622325805,-30.4119736639,-88.75815958,-33.8010162065,0.159843939,-1.2304321759,0.5477909233,-0.941038861,0.3302958958,1.170177123,3.94,1.3559,3.5147,-0.00325,0.01157,0.01305,0.00115,0.0011,0.0012,0.0007,0.00074,0.00068,0.0145,0.0152,0.0158,passive,1
4.6605,rehab,mild_large_slow,-31.2885804257,-666.4931597958,334.6454070275,-177.3762191644,0.1299321984,-149.9746933518,-10.5098,0.3673,4.9685,117.1872,-28.6869,-46.0954,85.9471964877,30.9843200683,87.0768916023,-30.4237831287,-88.7496357516,-33.7695103419,0.2545412218,0.3949466687,-0.0034013467,-1.0580100139,0.2479466204,0.9777004288,4.2488,1.3465,3.5981,-0.00258,0.00597,0.01241,0.00115,0.0011,0.0012,0.0007,0.00074,0.00068,0.0145,0.0152,0.0158,passive,1
4.6805,rehab,mild_large_slow,-31.4523787792,-666.5119180058,334.7738113051,-177.3751151077,0.1268663124,-149.9813357379,-8.8082,-0.3519,2.2688,62.8547,-1.5282,-78.8064,85.9425124332,31.0292955579,87.0620965266,-30.4542940644,-88.7482417152,-33.7619081894,-0.0641336692,1.0321297043,0.4004909646,-0.388432112,0.6433974424,-0.1215263372,4.2673,1.3132,3.7467,-0.00274,0.00907,0.0179,0.00115,0.0011,0.0012,0.0007,0.00074,0.00068,0.0145,0.0152,0.0158,passive,1
4.7005,rehab,mild_large_slow,-31.6409066112,-666.5072361516,334.7361610222,-177.3806376462,0.1301134763,-149.9725898896,-7.9957,0.3062,1.8162,89.2109,11.9043,30.28,85.944631141,31.0256052565,87.0929112409,-30.4393204132,-88.7238998539,-33.7743713953,0.77428542,0.2968822304,0.5024193193,-0.159281085,-0.7270362873,-0.0036204907,4.1871,1.4289,3.6168,-0.00082,0.00748,0.00973,0.00115,0.0011,0.0012,0.0007,0.00074,0.00068,0.0145,0.0152,0.0158,passive,1
4.7205,rehab,mild_large_slow,-31.7722050554,-666.4996696118,334.8464600375,-177.3784790183,0.1301852661,-149.9803061644,-5.2397,0.1243,3.48,122.5483,22.0164,18.2237,85.97348385,31.0411708471,87.0821932994,-30.4606653078,-88.7773231667,-33.762053009,0.4256953906,0.9036287312,-0.5562058013,-0.9101305668,-0.5755890551,-0.5796821964,3.895,1.3518,3.4808,0.00411,0.00786,0.01811,0.00115,0.0011,0.0012,0.0007,0.00074,0.00068,0.0145,0.0152,0.0158,passive,1
4.7405,rehab,mild_large_slow,-31.850495385,-666.502265686,334.8753629825,-177.3774229577,0.12878965,-149.97476632,-3.0937,1.1869,2.5452,101.7695,18.0569,-68.0289,85.9616589566,31.0617504058,87.0706630088,-30.4757256359,-88.7469234161,-33.7975586832,0.0442152612,-0.0546612683,-0.8604382443,-0.1154015636,0.7401335801,-0.3587427077,4.0783,1.4978,3.4556,-0.0001,0.0077,0.01042,0.00115,0.0011,0.0012,0.0007,0.00074,0.00068,0.0145,0.0152,0.0158,passive,1
4.7605,rehab,mild_large_slow,-31.8959540505,-666.4521949108,334.9482667654,-177.3796623767,0.1290533292,-149.9848592322,-1.1689,0.8465,0.7589,135.3792,-50.9817,-76.5408,85.9752524605,31.0389843964,87.0477757696,-30.4652813704,-88.7477178235,-33.7764027173,0.8690787175,-0.7047393619,0.8023142654,0.0159738878,0.196733138,0.4499662947,3.9793,1.4359,3.592,0.00165,0.00983,0.01747,0.00115,0.0011,0.0012,0.0007,0.00074,0.00068,0.0145,0.0152,0.0158,passive,1
4.7805,rehab,mild_large_slow,-31.8972529606,-666.4684041542,334.9057187622,-177.3754552288,0.1273605905,-149.9732479327,2.3214,-0.8524,-0.5165,134.2423,-32.4068,-49.6452,85.9964221053,31.0335608313,87.1027555794,-30.4750866803,-88.7390540906,-33.7795600314,-0.7210544396,-0.2212595371,0.5484606118,1.0045854701,-1.3123127232,-0.2301118367,-1.0404,1.4511,5.4005,-0.00627,0.03609,-0.00808,0.00115,0.0011,0.0012,0.0007,0.00074,0.00068,0.0145,0.0152,0.0158,passive,1
4.8005,rehab,mild_large_slow,-31.8030963636,-666.48629088,334.9276081954,-177.372213044,0.1281941803,-149.9757372191,4.2008,-0.4497,-1.2269,94.0011,33.5682,-76.1747,85.9464102829,31.0301340149,87.0697141941,-30.4250979515,-88.8002103324,-33.7856071908,-1.6550841424,-0.4404937029,-1.3619986919,0.626755824,-0.4216128527,-0.1010844038,-0.8993,-1.3601,5.3854,-0.03724,0.03219,0.00295,0.00115,0.0011,0.0012,0.0007,0.00074,0.00068,0.0145,0.0152,0.0158,passive,1
4.8205,rehab,mild_large_slow,-31.7292229358,-666.4863935297,334.8566422118,-177.3766795081,0.1269324438,-149.9827096014,6.0815,0.4903,-3.5635,103.901,3.4926,-64.2416,85.9302187396,31.0159410832,87.0482756318,-30.4500164474,-88.7559186047,-33.7836034076,-0.2757804934,0.1415202543,-1.3551485568,-0.7920455373,0.3010672026,-0.1589407,-0.8801,-1.5799,5.338,-0.03697,0.036,0.00464,0.00115,0.0011,0.0012,0.0007,0.00074,0.00068,0.0145,0.0152,0.0158,passive,1
4.8405,rehab,mild_large_slow,-31.5598369372,-666.4666777057,334.785070076,-177.3773327362,0.1277535059,-149.9748315859,8.3568,-0.31,-3.7966,150.2145,-18.8237,-52.4064,85.9353790632,31.035794825,87.0155082518,-30.456779773,-88.7881676443,-33.7919648188,0.1115668312,0.6355739148,-0.118118219,0.5845814834,0.3149682516,0.3038395721,-0.8476,-1.5944,5.5163,-0.03881,0.03305,0.00065,0.00115,0.0011,0.0012,0.0007,0.00074,0.00068,0.0145,0.0152,0.0158,passive,1
4.8605,rehab,mild_large_slow,-31.3949513396,-666.4987947475,334.7047790235,-177.3838755942,0.1297083829,-149.9758684462,12.0901,-0.2626,-5.6597,149.2034,34.9929,-33.1765,85.9346814128,31.0413640398,87.043550903,-30.426633188,-88.7433198747,-33.7714498247,-0.1667341542,-0.2687124246,1.3924454394,2.0053777308,0.9355144022,-0.8167010151,-0.8526,-1.568,5.4017,-0.03359,0.03528,0.00345,0.00115,0.0011,0.0012,0.0007,0.00074,0.00068,0.0145,0.0152,0.0158,passive,1
4.8805,rehab,mild_large_slow,-31.076234269,-666.4771823831,334.5586817811,-177.3808184519,0.1287467562,-149.9780574403,14.3249,1.0897,-5.1236,86.7778,25.2676,17.4676,85.928709697,31.0250463281,87.0712060694,-30.3765646638,-88.7507470682,-33.8246328594,0.1256221979,-0.5466455732,-0.7049796809,1.2121631202,-0.3097755641,-0.9834545227,-0.844,-1.4295,5.3118,-0.03728,0.03144,9e-05,0.00115,0.0011,0.0012,0.0007,0.00074,0.00068,0.0145,0.0152,0.0158,passive,1
4.9005,rehab,mild_large_slow,-30.8219542344,-666.4552073039,334.4998334549,-177.3803487791,0.130119314,-149.9779100672,15.5612,0.7481,-4.961,108.1203,-22.3853,-62.1957,85.9397063008,31.0194982168,87.0153517158,-30.3781466632,-88.7557108972,-33.8107880056,-1.2775968007,-0.5060696345,-0.9940731283,-0.3442163576,0.1624400583,-0.2383738714,-0.5059,-1.4666,5.2882,-0.03672,0.03257,0.00454,0.00115,0.0011,0.0012,0.0007,0.00074,0.00068,0.0145,0.0152,0.0158,passive,1
4.9205,rehab,mild_large_slow,-30.4537871866,-666.4472588544,334.360241685,-177.3786450171,0.130749289,-149.9767877578,18.6497,0.1943,-7.6115,152.5942,-41.6571,-73.6791,85.877605825,31.0048035427,87.0314431443,-30.3903333181,-88.7442494659,-33.8341678142,-1.1890445352,-0.874815348,0.3911451449,0.4399155935,-0.617361506,-0.6815191401,-1.0485,-1.315,5.8444,-0.03714,0.04204,0.00101,0.00115,0.0011,0.0012,0.0007,0.00074,0.00068,0.0145,0.0152,0.0158,passive,1
4.9405,rehab,mild_large_slow,-30.0759646165,-666.4474362727,334.1953747738,-177.3797861866,0.1301986603,-149.9760825169,21.6649,-0.9182,-7.9082,168.8926,-7.9948,-13.6168,85.8921445194,30.9845056029,87.0309975216,-30.3605500395,-88.7804053575,-33.8380487712,-0.4924735928,-0.5767444439,-1.1507727022,0.8513626106,-0.0539342247,-1.4838218772,-0.7209,-1.4174,5.5978,-0.03851,0.03579,0.00245,0.00115,0.0011,0.0012,0.0007,0.00074,0.00068,0.0145,0.0152,0.0158,passive,1
4.9605,rehab,mild_large_slow,-29.5871894333,-666.4839866574,334.0439150129,-177.3809001616,0.1277988443,-149.9809648185,25.4054,-0.1255,-8.1561,2944.6003,56.2541,-1149.3822,85.8579068813,30.9817337649,86.9854122362,-30.3562788137,-88.7464068349,-33.8935206893,-1.5363246865,-0.4861478635,-2.2759160612,1.2844382598,0.259786268,-1.5408473854,-0.8221,-1.4475,5.8786,-0.03789,0.03708,-0.00199,0.00115,0.0011,0.0012,0.0007,0.00074,0.00068,0.0145,0.0152,0.0158,passive,1
4.9805,rehab,mild_large_slow,-29.0597468268,-666.4524568978,333.8691291877,-177.3793509212,0.129796369,-149.9777232961,139.449,1.332,-53.8835,2867.9499,-8.4866,-1167.9083,85.8306915319,30.9650596884,86.9399608791,-30.3091725091,-88.7700139068,-33.8996826666,-6.8577461863,-3.6467707066,-4.5890364692,7.9720689388,-0.4458980788,-5.3853046693,-1.134,-1.7056,6.3308,-0.04122,0.03926,-0.00372,0.00115,0.0011,0.0012,0.0007,0.00074,0.00068,0.0145,0.0152,0.0158,passive,1
5.0005,rehab,mild_large_slow,-24.0092312259,-666.4307078762,331.8885767918,-177.3858087914,0.128035813,-149.9810425391,140.1234,-0.465,-54.8725,-2765.9508,-49.0881,1053.0129,85.5835970338,30.8358629367,86.8018507774,-30.0373960561,-88.764242758,-34.1089328761,-6.7139662976,-3.6530113012,-4.362211788,6.8166095283,-0.2371701794,-5.475756025,-1.0297,-1.8285,6.8633,-0.04408,0.04494,0.00068,0.00115,0.0011,0.0012,0.0007,0.00074,0.00068,0.0145,0.0152,0.0158,passive,1
5.0205,rehab,mild_large_slow,-23.4548092647,-666.471056117,331.6742303896,-177.3786100915,0.1274187365,-149.9819058094,28.8109,-0.6316,-11.7629,-2700.0178,24.0375,1052.0665,85.56213288,30.8189392363,86.7654724076,-30.036508128,-88.7795007139,-34.1187129076,-1.0769247824,-0.6522678753,-0.8406496445,1.5817264601,-0.7014114263,-1.3906190132,-0.6511,-1.5022,5.4726,-0.0401,0.0337,0.00187,0.00115,0.0011,0.0012,0.0007,0.00074,0.00068,0.0145,0.0152,0.0158,passive,1
5.0405,rehab,mild_large_slow,-22.8567943743,-666.4559699876,331.4180592461,-177.3811143016,0.1269351291,-149.9756247597,32.1227,0.4965,-12.7898,156.1501,25.1992,-42.4438,85.5405200425,30.8097722217,86.7682247916,-29.9741269977,-88.7922992151,-34.1645576366,-1.7296053291,-0.1431700203,-0.9833255658,1.934924031,0.1783059941,-1.3104923012,-0.8029,-1.4201,5.713,-0.03776,0.03434,0.00432,0.00115,0.0011,0.0012,0.0007,0.00074,0.00068,0.0145,0.0152,0.0158,passive,1
5.0605,rehab,mild_large_slow,-22.1699001056,-666.4511953961,331.1626379869,-177.3783950075,0.1269792142,-149.9827783405,35.0569,0.3764,-13.4607,116.3401,-19.3682,-25.6132,85.4929486668,30.8132124355,86.726139385,-29.9591111667,-88.7723684742,-34.1711325996,-2.1480010133,-1.2007815782,-0.5199022389,1.8321009783,0.6125850599,-1.0996424746,-0.6188,-1.2954,5.5776,-0.03862,0.03456,0.00758,0.00115,0.0011,0.0012,0.0007,0.00074,0.00068,0.0145,0.0152,0.0158,passive,1
5.0805,rehab,mild_large_slow,-21.4545173373,-666.4409133159,330.8796315998,-177.3825198921,0.1247233667,-149.9818509231,36.7763,-0.2782,-13.8143,115.0045,-9.1235,-60.3606,85.454600002,30.7617409585,86.7474287021,-29.9008429586,-88.7677958127,-34.2085433356,-1.0365729872,-1.4916130925,-1.0262294551,1.9299969682,-0.1504001761,-1.6741399255,-0.655,-1.3987,5.6996,-0.03257,0.03944,0.003,0.00115,0.0011,0.0012,0.0007,0.00074,0.00068,0.0145,0.0152,0.0158,passive,1
5.1005,rehab,mild_large_slow,-20.6988467916,-666.462323865,330.6100644725,-177.3787712514,0.1312218544,-149.9786181148,39.6571,0.0115,-15.8751,154.1425,2.5686,-111.1492,85.4514857473,30.7535479118,86.6850902067,-29.881911288,-88.7783844812,-34.2380981967,-2.3655521338,-0.7321061658,-2.7398403455,1.7322834323,-0.4124417566,-1.9933193805,-0.7552,-1.4031,5.8497,-0.03573,0.03358,0.00026,0.00115,0.0011,0.0012,0.0007,0.00074,0.00068,0.0145,0.0152,0.0158,passive,1
5.1205,rehab,mild_large_slow,-19.8682330586,-666.4404542874,330.2446270572,-177.3822645579,0.1276858726,-149.979125157,42.942,-0.1755,-18.2603,133.5143,10.8653,-72.1967,85.3599779166,30.7324567119,86.6378350882,-29.8315516213,-88.784293483,-34.2882761108,-2.5482712964,-0.7150885976,-1.8576815573,2.2308328913,-0.6095976905,-1.463347509,-0.7193,-1.5963,5.6666,-0.03889,0.03371,0.00155,0.00115,0.0011,0.0012,0.0007,0.00074,0.00068,0.0145,0.0152,0.0158,passive,1
5.1405,rehab,mild_large_slow,-18.9811654651,-666.4693425908,329.8796523109,-177.384024764,0.127600335,-149.9782643925,44.9977,0.4461,-18.763,99.8149,22.1664,-38.2957,85.3495548955,30.7249443679,86.6107829445,-29.7926779724,-88.8027683888,-34.296632097,-1.216626619,-1.7095777641,-1.1254470876,1.6539299534,-0.2386502047,-1.7889528239,-0.7835,-1.4005,5.5265,-0.03441,0.03729,0.0013,0.00115,0.0011,0.0012,0.0007,0.00074,0.00068,0.0145,0.0152,0.0158,passive,1
5.1605,rehab,mild_large_slow,-18.0683259304,-666.4226107823,329.4941077732,-177.3764200325,0.1284008562,-149.9814346425,46.9346,0.7112,-19.7921,138.6671,-38.4919,-90.7287,85.3113128519,30.6640736013,86.5928172047,-29.7653944232,-88.7938394912,-34.3598342238,-2.1075530879,-1.0333248086,-1.9779830687,3.3667202818,0.2740987922,-2.8223143602,-0.5725,-1.5031,5.7982,-0.03631,0.03607,0.00282,0.00115,0.0011,0.0012,0.0007,0.00074,0.00068,0.0145,0.0152,0.0158,passive,1
5.1805,rehab,mild_large_slow,-17.1037802675,-666.4408951237,329.0879669871,-177.3763271158,0.1240578545,-149.984615119,50.5444,-1.0936,-22.3921,195.1831,-12.0381,-99.3634,85.265252772,30.6836113756,86.5316636217,-29.6580091611,-88.7918044371,-34.4095246714,-2.4702246435,-0.7840531566,-1.4425438332,2.7119925283,-0.0164525128,-1.7639649429,-0.589,-1.513,5.6725,-0.0407,0.04139,0.00466,0.00115,0.0011,0.0012,0.0007,0.00074,0.00068,0.0145,0.0152,0.0158,passive,1
5.2005,rehab,mild_large_slow,-16.0465514066,-666.4663543257,328.5984226432,-177.3772794592,0.1276501667,-149.9799449989,54.742,0.2297,-23.7667,161.8398,26.7949,3.2847,85.2125038661,30.6327114751,86.5351154514,-29.656914722,-88.7944975917,-34.4303928215,-2.6585211786,-1.5787757993,-1.5266859768,1.8771568663,-0.3018744142,-1.4299655535,-0.5852,-1.2714,5.4679,-0.03342,0.03267,1e-05,0.00115,0.0011,0.0012,0.0007,0.00074,0.00068,0.0145,0.0152,0.0158,passive,1
