t,trajectory_type,trajectory_variant,x,y,z,rx,ry,rz,vx,vy,vz,ax,ay,az,j1,j2,j3,j4,j5,j6,dj1,dj2,dj3,dj4,dj5,dj6,fx,fy,fz,tx,ty,tz,Mx,My,Mz,Bx,By,Bz,Kx,Ky,Kz,mode,comfort
0.0006,rehab,small_slow,99.02023811075028,-666.2573371145273,223.3056107691011,-177.65156758887395,0.29173870362037496,-149.85263336514615,0.0024,0.0019,0.0003,-0.0369,-0.0309,-0.0173,86.07567135650332,32.79822094605701,88.16751310140779,-32.77778625488281,-89.14072672526042,-34.226158989800346,-0.0,-0.0,-0.007967807278774752,-0.00022040473090277778,0.06785074869791667,-0.0,0.0254,0.0678,0.8013,0.00684,0.00038,-0.00426,0.0010709358612075448,0.0008878356893546879,0.0008017538930289447,0.0004173669731244445,0.00046819864655844867,0.0005492896889336407,0.008815214969217777,0.011537205427885056,0.012005836702883244,passive,0
0.0208,rehab,small_slow,99.02032126778181,-666.2572672468937,223.3054315310658,-177.651584460438,0.2917497523600761,-149.85261814571305,0.002,0.0016,0.0002,-0.0341,-0.0285,-0.0102,86.0756781549737,32.79822774452738,88.16752669834854,-32.77778625488281,-89.14072672526042,-34.22616746690538,-0.0,-0.0,-0.0006390562151918316,-3.390842013888889e-05,-0.0,-0.0,0.0223,0.0122,-0.1378,0.00151,0.0019,0.00273,0.0010709358612075448,0.0008878356893546879,0.0008017538930289447,0.0004173669731244445,0.00046819864655844867,0.0005492896889336407,0.008815214969217777,0.011537205427885056,0.012005836702883244,passive,0
0.0418,rehab,small_slow,99.02030529985987,-666.2572757587178,223.30554213642407,-177.65158500585062,0.2917402660982742,-149.85262680274985,0.0014,0.0009,0.0001,-0.03,-0.0252,0.0029,86.0756781549737,32.79822094605701,88.16751989987817,-32.77777777777778,-89.14073520236545,-34.226158989800346,-0.0,-0.0,0.024134569829053217,0.007468329535590278,-0.0,0.06785074869791667,-0.0336,0.0544,0.5339,-0.00264,0.00871,0.0018,0.0010709358612075448,0.0008878356893546879,0.0008017538930289447,0.0004173669731244445,0.00046819864655844867,0.0005492896889336407,0.008815214969217777,0.011537205427885056,0.012005836702883244,passive,0
0.0609,rehab,small_slow,99.02047890179507,-666.2572533612299,223.30554251374102,-177.65158023632404,0.2917472690854814,-149.85261291378137,0.0009,0.0004,0.0001,-0.0256,-0.0217,0.0112,86.07569175191445,32.79822094605701,88.16751989987817,-32.77777777777778,-89.14072672526042,-34.226158989800346,0.05441495687654703,-0.0,-0.007709465404548267,0.013749864366319444,-0.0,-0.06785074869791667,-0.0335,0.0789,0.3273,0.01273,0.00465,0.00239,0.0010709358612075448,0.0008878356893546879,0.0008017538930289447,0.0004173669731244445,0.00046819864655844867,0.0005492896889336407,0.008815214969217777,0.011537205427885056,0.012005836702883244,passive,0
0.0811,rehab,small_slow,99.02030924378447,-666.2572145241292,223.30553664835634,-177.65158369482475,0.29173962037672346,-149.85263534220948,0.0003,-0.0,0.0002,-0.0194,-0.0167,0.0165,86.0756781549737,32.798214147586634,88.16753349681892,-32.77778625488281,-89.14073520236545,-34.22615051269531,-0.0,-0.0,-0.015235372108988243,-3.390842013888889e-05,-0.06785074869791667,0.06785074869791667,-0.0607,0.1459,0.4616,0.01293,0.00666,-0.00107,0.0010709358612075448,0.0008878356893546879,0.0008017538930289447,0.0004173669731244445,0.00046819864655844867,0.0005492896889336407,0.008815214969217777,0.011537205427885056,0.012005836702883244,passive,0
0.1006,rehab,small_slow,99.02030586650078,-666.2572667337389,223.3056201818748,-177.65157933122552,0.2917361100335568,-149.85261830854031,-0.0005,-0.0003,0.0008,-0.0137,-0.0125,0.0164,86.0756781549737,32.798214147586634,88.16751989987817,-32.77777777777778,-89.14073520236545,-34.22616746690538,-0.05441495687654703,-0.0,-0.02350911055461015,0.026575724283854164,-0.06785074869791667,0.06785074869791667,0.0311,0.0443,0.4081,0.0083,0.00559,-0.0047,0.0010709358612075448,0.0008878356893546879,0.0008017538930289447,0.0004173669731244445,0.00046819864655844867,0.0005492896889336407,0.008815214969217777,0.011537205427885056,0.012005836702883244,passive,0
0.121,rehab,small_slow,99.02040041321864,-666.2572560855893,223.30562055919174,-177.65157456169788,0.29174311302003025,-149.85261121804152,-0.0008,-0.0005,0.0012,-0.007,-0.007,0.0133,86.07568495344407,32.798214147586634,88.16751989987817,-32.77777777777778,-89.14072672526042,-34.22616746690538,-0.0,-0.0,0.00583988605159344,0.00881618923611111,-0.0,-0.0,0.0768,0.0443,0.3889,0.01151,-0.00021,-0.00214,0.0010709358612075448,0.0008878356893546879,0.0008017538930289447,0.0004173669731244445,0.00046819864655844867,0.0005492896889336407,0.008815214969217777,0.011537205427885056,0.012005836702883244,passive,0
0.1413,rehab,small_slow,99.02033265747663,-666.2573264663874,223.3056111464204,-177.65156281934736,0.29174570660750393,-149.85262627464587,-0.0005,-0.0006,0.0015,0.0018,-0.0004,0.0086,86.0756781549737,32.79822094605701,88.16751310140779,-32.77778625488281,-89.14071824815538,-34.226158989800346,-0.0,-0.0,-0.018661801177676362,-0.019700792100694444,0.06785074869791667,-0.06785074869791667,-0.1726,0.0511,0.6495,-0.01811,0.00701,-0.00414,0.0010709358612075448,0.0008878356893546879,0.0008017538930289447,0.0004173669731244445,0.00046819864655844867,0.0005492896889336407,0.008815214969217777,0.011537205427885056,0.012005836702883244,passive,0
0.1607,rehab,small_slow,99.02032312558492,-666.257243288253,223.30549191745197,-177.651585877922,0.2917510627821107,-149.85262652323127,0.0001,-0.0004,0.0016,0.0095,0.0053,-0.0003,86.0756781549737,32.79822094605701,88.16752669834854,-32.77777777777778,-89.14072672526042,-34.226158989800346,-0.0,0.05441495687654703,0.0016520283009746287,-0.005840725368923611,-0.06785074869791667,-0.06785074869791667,-0.0088,0.0953,0.5598,-0.00113,0.00118,-0.00611,0.0010709358612075448,0.0008878356893546879,0.0008017538930289447,0.0004173669731244445,0.00046819864655844867,0.0005492896889336407,0.008815214969217777,0.011537205427885056,0.012005836702883244,passive,0
0.1811,rehab,small_slow,99.02040041321864,-666.2572560855893,223.30562055919174,-177.65157460482644,0.29174346038026117,-149.85261968813657,0.0004,-0.0002,0.0012,0.0169,0.0111,-0.0146,86.07568495344407,32.798214147586634,88.16751989987817,-32.77777777777778,-89.14072672526042,-34.226158989800346,0.05441495687654703,-0.05441495687654703,-0.005391187006884282,-0.004569159613715278,-0.0,-0.0,-0.0318,0.0902,0.5905,0.02063,0.00244,-0.00075,0.0010709358612075448,0.0008878356893546879,0.0008017538930289447,0.0004173669731244445,0.00046819864655844867,0.0005492896889336407,0.008815214969217777,0.011537205427885056,0.012005836702883244,passive,0
0.2007,rehab,small_slow,99.02023924403595,-666.2573190645437,223.30576686001316,-177.65155632587874,0.29173108620993216,-149.85263331691792,-0.0001,-0.0003,0.001,0.0188,0.015,-0.0271,86.07567135650332,32.79820734911626,88.16751310140779,-32.77778625488281,-89.14072672526042,-34.226158989800346,-0.0,-0.05441495687654703,-0.05133524979695235,0.019582112630208332,0.06785074869791667,0.06785074869791667,0.0493,0.0444,0.3866,0.01637,0.00698,7e-05,0.0010709358612075448,0.0008878356893546879,0.0008017538930289447,0.0004173669731244445,0.00046819864655844867,0.0005492896889336407,0.008815214969217777,0.011537205427885056,0.012005836702883244,passive,0
0.2212,rehab,small_slow,99.02039631142262,-666.2573142038498,223.3057997972474,-177.6515576901329,0.2917320642817588,-149.8526196390061,0.0004,0.0001,0.0005,0.0093,0.0121,-0.0293,86.07568495344407,32.79820734911626,88.16750630293743,-32.77777777777778,-89.14072672526042,-34.226158989800346,-0.0,-0.05441495687654703,-0.002481441686649134,-0.0,-0.0,-0.0,0.003,0.2425,0.4852,0.02569,0.00405,-0.00051,0.0010709358612075448,0.0008878356893546879,0.0008017538930289447,0.0004173669731244445,0.00046819864655844867,0.0005492896889336407,0.008815214969217777,0.011537205427885056,0.012005836702883244,passive,0
0.2412,rehab,small_slow,99.02039968869816,-666.2572619942692,223.3057162637103,-177.651562010604,0.291735227268658,-149.85262820257972,0.001,0.0006,-0.0002,-0.0005,0.007,-0.0227,86.07568495344407,32.79820734911626,88.16751989987817,-32.77778625488281,-89.14072672526042,-34.22615051269531,0.05441495687654703,0.05441495687654703,-0.016717438650603343,0.006400214301215278,-0.0,-0.0,-0.0506,0.1116,0.6771,0.011,0.00937,-0.00618,0.0010709358612075448,0.0008878356893546879,0.0008017538930289447,0.0004173669731244445,0.00046819864655844867,0.0005492896889336407,0.008815214969217777,0.011537205427885056,0.012005836702883244,passive,0
0.2608,rehab,small_slow,99.02033555834078,-666.2572838697693,223.30563859557805,-177.65156278631886,0.29174534423694914,-149.8526177929445,0.0009,0.0008,-0.001,-0.0073,0.0057,-0.0135,86.0756781549737,32.798214147586634,88.16751989987817,-32.77778625488281,-89.14071824815538,-34.22616746690538,-0.0,-0.0,-0.0048609063176825494,0.006544325086805555,-0.0,-0.0,-0.0202,-0.0276,0.2252,0.00769,0.01431,-0.0027,0.0010709358612075448,0.0008878356893546879,0.0008017538930289447,0.0004173669731244445,0.00046819864655844867,0.0005492896889336407,0.008815214969217777,0.011537205427885056,0.012005836702883244,passive,0
0.281,rehab,small_slow,99.02039678783885,-666.2573045908913,223.3056888145577,-177.65156195737634,0.29173489491515286,-149.8526197440911,0.0012,0.001,-0.0016,-0.0159,0.0019,-0.0014,86.07568495344407,32.798214147586634,88.16751310140779,-32.77778625488281,-89.14072672526042,-34.226158989800346,-0.0,0.05441495687654703,-0.018641405766553217,0.027135213216145832,-0.0,0.06785074869791667,-0.1341,0.0526,0.0306,0.0121,0.00438,0.00134,0.0010709358612075448,0.0008878356893546879,0.0008017538930289447,0.0004173669731244445,0.00046819864655844867,0.0005492896889336407,0.008815214969217777,0.011537205427885056,0.012005836702883244,passive,0
0.301,rehab,small_slow,99.02038596477509,-666.2572363464446,223.30558724464714,-177.65157801009883,0.29173547932124266,-149.852620061136,0.0001,0.0006,-0.0012,-0.0257,-0.0078,0.0108,86.07568495344407,32.798214147586634,88.16752669834854,-32.77778625488281,-89.14073520236545,-34.226158989800346,-0.0,-0.0,0.025337899085318687,-0.006747775607638889,-0.0,-0.0,0.1998,-0.0874,0.146,0.02879,-0.00732,-0.00343,0.0010709358612075448,0.0008878356893546879,0.0008017538930289447,0.0004173669731244445,0.00046819864655844867,0.0005492896889336407,0.008815214969217777,0.011537205427885056,0.012005836702883244,passive,0
0.3206,rehab,small_slow,99.02048470350324,-666.2571681679889,223.30559741205164,-177.65158021339565,0.2917468917088928,-149.8526044204735,-0.0008,-0.0001,0.0,-0.027,-0.0146,0.0168,86.07569175191445,32.79820734911626,88.16753349681892,-32.77777777777778,-89.14072672526042,-34.22616746690538,-0.0,-0.0,-0.024576470403387996,-0.0020514594184027775,0.06785074869791667,-0.0,-0.128,-0.0073,-0.4809,0.00808,0.01117,0.00309,0.0010709358612075448,0.0008878356893546879,0.0008017538930289447,0.0004173669731244445,0.00046819864655844867,0.0005492896889336407,0.008815214969217777,0.011537205427885056,0.012005836702883244,passive,0
0.3423,rehab,small_slow,99.02040435713592,-666.2571948510008,223.3056150711169,-177.65157325067258,0.29174246729981235,-149.85261975750103,-0.0009,0.0004,0.0002,-0.0187,-0.0145,0.0219,86.07568495344407,32.79820734911626,88.16753349681892,-32.77778625488281,-89.14072672526042,-34.226158989800346,0.05441495687654703,-0.0,0.0034332275390625,-0.02121819390190972,-0.0,-0.0,-0.0644,0.0812,0.2717,0.01137,0.00116,0.00221,0.0010709358612075448,0.0008878356893546879,0.0008017538930289447,0.0004173669731244445,0.00046819864655844867,0.0005492896889336407,0.008815214969217777,0.011537205427885056,0.012005836702883244,passive,0
0.361,rehab,small_slow,99.0203983975374,-666.257276927935,223.30573392278137,-177.65155496162458,0.2917301081381232,-149.85261980094828,-0.0017,0.0002,0.0005,-0.008,-0.0105,0.0255,86.07568495344407,32.79820734911626,88.16751989987817,-32.777794731987846,-89.14072672526042,-34.226158989800346,-0.0,-0.0,-5.4387762995049506e-05,-0.01018948025173611,-0.0,-0.0,-0.0579,-0.0002,-0.3839,0.00952,0.00043,0.00386,0.0010709358612075448,0.0008878356893546879,0.0008017538930289447,0.0004173669731244445,0.00046819864655844867,0.0005492896889336407,0.008815214969217777,0.011537205427885056,0.012005836702883244,passive,0
0.3807,rehab,small_slow,99.02032240106244,-666.2572491969523,223.30558762196412,-177.65157324057225,0.2917424823084146,-149.85262656757774,-0.0017,-0.0007,0.0012,0.0125,-0.0027,0.0195,86.0756781549737,32.798214147586634,88.16752669834854,-32.77778625488281,-89.14072672526042,-34.226158989800346,-0.0,-0.0,-0.014691494479037748,-0.030339558919270832,0.06785074869791667,-0.0,-0.0852,-0.09,-0.0594,-0.00518,0.01922,-0.0011,0.0010709358612075448,0.0008878356893546879,0.0008017538930289447,0.0004173669731244445,0.00046819864655844867,0.0005492896889336407,0.008815214969217777,0.011537205427885056,0.012005836702883244,passive,0
0.4006,rehab,small_slow,99.02024157826224,-666.2572854929189,223.3057162637103,-177.65156196747668,0.2917348799065656,-149.8526333294255,-0.0009,-0.0008,0.0007,0.0296,0.0041,0.0066,86.07567135650332,32.79820734911626,88.16751989987817,-32.77778625488281,-89.14072672526042,-34.226158989800346,-0.05441495687654703,-0.0,-0.0008022195041769802,-0.030229356553819444,-0.0,0.06785074869791667,-0.0464,0.0207,0.1655,0.00293,0.01332,-0.00114,0.0010709358612075448,0.0008878356893546879,0.0008017538930289447,0.0004173669731244445,0.00046819864655844867,0.0005492896889336407,0.008815214969217777,0.011537205427885056,0.012005836702883244,passive,0
0.4207,rehab,small_slow,99.0203087673651,-666.2572241371174,223.30564763102757,-177.65157938445333,0.2917364423844811,-149.85262676702905,-0.0001,-0.0003,0.0009,0.0315,0.0043,-0.0001,86.0756781549737,32.79820734911626,88.16752669834854,-32.77777777777778,-89.14073520236545,-34.226158989800346,-0.0,-0.0,-0.0017268114750928218,8.477105034722222e-05,-0.06785074869791667,-0.0,-0.0162,-0.0439,-0.4442,0.01543,-0.00164,0.00084,0.0010709358612075448,0.0008878356893546879,0.0008017538930289447,0.0004173669731244445,0.00046819864655844867,0.0005492896889336407,0.008815214969217777,0.011537205427885056,0.012005836702883244,passive,0
0.442,rehab,small_slow,99.02024810452305,-666.2571943909934,223.30567545749238,-177.65157462502708,0.2917434303630591,-149.85263326186464,0.0004,0.0002,0.0016,0.029,0.007,-0.0042,86.07567135650332,32.79820055064589,88.16753349681892,-32.77777777777778,-89.14072672526042,-34.226158989800346,-0.05441495687654703,-0.0,0.024583268873762377,0.02289666069878472,-0.0,-0.0,-0.013,0.0157,0.2296,0.00291,-0.00757,-0.0024,0.0010709358612075448,0.0008878356893546879,0.0008017538930289447,0.0004173669731244445,0.00046819864655844867,0.0005492896889336407,0.008815214969217777,0.011537205427885056,0.012005836702883244,passive,0
0.4611,rehab,small_slow,99.02031596503686,-666.2573408868428,223.30581745631983,-177.65155068428078,0.29172729251331003,-149.85262650594035,0.0013,0.0003,0.0016,0.0181,0.0119,-0.008,86.0756781549737,32.79820734911626,88.16750630293743,-32.77778625488281,-89.14072672526042,-34.226158989800346,-0.0,-0.05441495687654703,-0.01047644284692141,-0.022862752278645832,-0.0,-0.06785074869791667,-0.0727,0.1022,0.8444,0.01088,0.00317,0.00156,0.0010709358612075448,0.0008878356893546879,0.0008017538930289447,0.0004173669731244445,0.00046819864655844867,0.0005492896889336407,0.008815214969217777,0.011537205427885056,0.012005836702883244,passive,0
0.481,rehab,small_slow,99.02039968869816,-666.2572619942692,223.3057162637103,-177.6515619674767,0.2917348799065656,-149.85261973248475,0.002,0.0004,0.0007,-0.0021,0.0072,-0.0056,86.07568495344407,32.79820734911626,88.16751989987817,-32.77778625488281,-89.14072672526042,-34.226158989800346,-0.0,-0.0,-0.016044390083539604,-0.020743476019965276,-0.0,-0.0,-0.0555,-0.0386,-0.0643,0.00486,-0.0071,0.00515,0.0010709358612075448,0.0008878356893546879,0.0008017538930289447,0.0004173669731244445,0.00046819864655844867,0.0005492896889336407,0.008815214969217777,0.011537205427885056,0.012005836702883244,passive,0
0.501,rehab,small_slow,99.02041678989845,-666.2572354324882,223.30576174924857,-177.65155020219837,0.2917370961165871,-149.85261949731046,0.0012,0.0003,0.0002,-0.0162,-0.0003,-0.0099,86.07568495344407,32.79820055064589,88.16752669834854,-32.777794731987846,-89.14071824815538,-34.226158989800346,0.05441495687654703,-0.05441495687654703,0.0004758929262066832,-0.025287204318576388,-0.0,-0.0,-0.0372,0.0084,0.0208,-0.00296,0.00676,-0.00335,0.0010709358612075448,0.0008878356893546879,0.0008017538930289447,0.0004173669731244445,0.00046819864655844867,0.0005492896889336407,0.008815214969217777,0.011537205427885056,0.012005836702883244,passive,0
0.5208,rehab,small_slow,99.02032233340985,-666.2572466685717,223.30595040005863,-177.6515450298583,0.2917231064262888,-149.85261798851957,0.0005,0.0001,0.0005,-0.0227,-0.0024,-0.0145,86.0756781549737,32.798186953705134,88.16751989987817,-32.77778625488281,-89.14072672526042,-34.22616746690538,-0.0,-0.0,-0.039233972530553836,0.014894273546006944,-0.0,-0.0,-0.1938,-0.1023,-0.4189,-0.00406,0.00593,0.00906,0.0010709358612075448,0.0008878356893546879,0.0008017538930289447,0.0004173669731244445,0.00046819864655844867,0.0005492896889336407,0.008815214969217777,0.011537205427885056,0.012005836702883244,passive,0
0.5417,rehab,small_slow,99.0204180810592,-666.2572204988226,223.30574409017757,-177.6515572511788,0.2917422152478612,-149.85262789894279,-0.0002,0.0005,0.0002,-0.0264,-0.0026,-0.0067,86.07568495344407,32.79820055064589,88.16752669834854,-32.77778625488281,-89.14071824815538,-34.22615051269531,-0.05441495687654703,0.05441495687654703,0.03027358857711943,0.007332695855034722,0.06785074869791667,0.06785074869791667,0.0865,-0.1638,-0.7224,0.01445,-0.00881,0.00434,0.0010709358612075448,0.0008878356893546879,0.0008017538930289447,0.0004173669731244445,0.00046819864655844867,0.0005492896889336407,0.008815214969217777,0.011537205427885056,0.012005836702883244,passive,0
0.5609,rehab,small_slow,99.02048268782406,-666.2571890103414,223.30571077562868,-177.65156065645004,0.2917342341884337,-149.85262147347402,-0.001,0.0001,0.0006,-0.0226,-0.0022,-0.0013,86.07569175191445,32.79820055064589,88.16753349681892,-32.777794731987846,-89.14072672526042,-34.22615051269531,-0.0,-0.0,-0.003181684135210396,-0.016233656141493056,0.06785074869791667,-0.0,0.0236,-0.0863,-0.3043,0.01002,-0.00114,-0.00107,0.0010709358612075448,0.0008878356893546879,0.0008017538930289447,0.0004173669731244445,0.00046819864655844867,0.0005492896889336407,0.008815214969217777,0.011537205427885056,0.012005836702883244,passive,0
0.5806,rehab,small_slow,99.02035451734837,-666.2572333493339,223.3057444674991,-177.65155243852382,0.29174887087214085,-149.852625935287,-0.0009,-0.0001,0.0001,-0.0083,-0.0015,-0.0039,86.0756781549737,32.79820055064589,88.16752669834854,-32.77778625488281,-89.14070977105034,-34.226158989800346,-0.0,-0.0,0.016044390083539604,0.00032212999131944444,-0.0,-0.0,-0.0777,-0.0537,-0.0908,-0.0028,0.00165,-0.00175,0.0010709358612075448,0.0008878356893546879,0.0008017538930289447,0.0004173669731244445,0.00046819864655844867,0.0005492896889336407,0.008815214969217777,0.011537205427885056,0.012005836702883244,passive,0
0.6007,rehab,small_slow,99.02030627526483,-666.2572545924102,223.30587197729324,-177.65155547400798,0.29172025950906283,-149.85262677475902,-0.0008,0.0003,-0.0006,0.0036,-0.0028,-0.0057,86.0756781549737,32.79819375217551,88.16751989987817,-32.77778625488281,-89.14073520236545,-34.226158989800346,-0.0,-0.0,-0.0029505361424814356,-0.02288818359375,-0.0,-0.0,-0.0192,0.0373,0.3679,0.01037,0.00575,-0.00208,0.0010709358612075448,0.0008878356893546879,0.0008017538930289447,0.0004173669731244445,0.00046819864655844867,0.0005492896889336407,0.008815214969217777,0.011537205427885056,0.012005836702883244,passive,0
0.6208,rehab,small_slow,99.0203372582677,-666.2572567947699,223.30587273192953,-177.65154597808214,0.291734612847625,-149.85263466079056,-0.0007,0.0001,0.0005,0.0071,-0.0046,-0.0019,86.0756781549737,32.79819375217551,88.16751989987817,-32.77778625488281,-89.14071824815538,-34.22615051269531,-0.0,-0.05441495687654703,-0.021184033686571783,-0.02297295464409722,-0.0,-0.0,0.0504,-0.1233,0.4266,0.00665,-0.00972,-0.006,0.0010709358612075448,0.0008878356893546879,0.0008017538930289447,0.0004173669731244445,0.00046819864655844867,0.0005492896889336407,0.008815214969217777,0.011537205427885056,0.012005836702883244,passive,0
0.6421,rehab,small_slow,99.02030860948666,-666.257221020791,223.3058213809866,-177.65156107248026,0.2917237058434291,-149.8526183171705,-0.0005,-0.0001,0.0003,0.0076,-0.0048,0.0031,86.0756781549737,32.79819375217551,88.16752669834854,-32.77778625488281,-89.14073520236545,-34.22616746690538,-0.05441495687654703,-0.0,0.0020055487604424506,3.390842013888889e-05,-0.0,-0.06785074869791667,-0.0316,0.0054,0.3792,0.00562,-0.0053,0.00046,0.0010709358612075448,0.0008878356893546879,0.0008017538930289447,0.0004173669731244445,0.00046819864655844867,0.0005492896889336407,0.008815214969217777,0.011537205427885056,0.012005836702883244,passive,0
0.6607,rehab,small_slow,99.02032539215067,-666.257207188305,223.3058040992329,-177.65156335193154,0.2917358279611954,-149.85262642677142,-0.0001,-0.0,-0.0006,0.0064,-0.0062,0.0116,86.0756781549737,32.79819375217551,88.16752669834854,-32.77777777777778,-89.14072672526042,-34.226158989800346,-0.05441495687654703,-0.05441495687654703,-0.011203879176980198,0.01969231499565972,-0.06785074869791667,-0.0,-0.1804,0.0012,0.3175,-0.0064,-0.00484,0.00029,0.0010709358612075448,0.0008878356893546879,0.0008017538930289447,0.0004173669731244445,0.00046819864655844867,0.0005492896889336407,0.008815214969217777,0.011537205427885056,0.012005836702883244,passive,0
0.6807,rehab,small_slow,99.02031327793154,-666.257153877535,223.3057201883849,-177.65157244192872,0.29173198795941635,-149.8526352823747,-0.0001,-0.0003,0.0,0.005,-0.0068,0.0172,86.0756781549737,32.79819375217551,88.1675402952893,-32.77778625488281,-89.14073520236545,-34.22615051269531,-0.05441495687654703,-0.0,0.022849658928295172,-0.0006866455078125,-0.0,-0.0,0.0465,0.018,0.4403,0.00663,-0.01496,-0.00328,0.0010709358612075448,0.0008878356893546879,0.0008017538930289447,0.0004173669731244445,0.00046819864655844867,0.0005492896889336407,0.008815214969217777,0.011537205427885056,0.012005836702883244,passive,0
0.7006,rehab,small_slow,99.02032176676627,-666.2572556935901,223.30587235461024,-177.65155070448148,0.29172726249611936,-149.8526264827276,-0.0003,-0.0005,0.0009,0.004,-0.0018,0.0099,86.0756781549737,32.79819375217551,88.16751989987817,-32.77778625488281,-89.14072672526042,-34.226158989800346,-0.0,-0.0,-0.007396735767326732,-0.026804606119791664,-0.0,-0.0,-0.0338,-0.0456,0.1233,0.00231,-0.01852,0.00106,0.0010709358612075448,0.0008878356893546879,0.0008017538930289447,0.0004173669731244445,0.00046819864655844867,0.0005492896889336407,0.008815214969217777,0.011537205427885056,0.012005836702883244,passive,0
0.721,rehab,small_slow,99.0203847638378,-666.2572518680913,223.30579393184385,-177.65156106237995,0.2917237208520281,-149.85261153030652,-0.0004,-0.0003,0.001,0.0041,0.003,0.009,86.07568495344407,32.79820055064589,88.16751989987817,-32.77778625488281,-89.14073520236545,-34.22616746690538,0.05441495687654703,-0.0,0.0,0.006654527452256944,-0.0,-0.0,0.0771,-0.0734,0.2045,0.00831,0.00733,-0.00241,0.0010709358612075448,0.0008878356893546879,0.0008017538930289447,0.0004173669731244445,0.00046819864655844867,0.0005492896889336407,0.008815214969217777,0.011537205427885056,0.012005836702883244,passive,0
0.7413,rehab,small_slow,99.02025763640687,-666.2572775691007,223.30579468648008,-177.65155160958028,0.2917384215520417,-149.85264148337524,-0.0001,-0.0005,0.0013,0.0083,0.0057,0.0076,86.07567135650332,32.79820055064589,88.16751989987817,-32.77778625488281,-89.14071824815538,-34.22615051269531,-0.0,0.05441495687654703,0.015813242090810642,0.029288397894965276,-0.0,0.06785074869791667,-0.018,0.1501,0.564,0.01333,-0.00058,-0.00176,0.0010709358612075448,0.0008878356893546879,0.0008017538930289447,0.0004173669731244445,0.00046819864655844867,0.0005492896889336407,0.008815214969217777,0.011537205427885056,0.012005836702883244,passive,0
0.7608,rehab,small_slow,99.02024198703035,-666.257273351551,223.30596805913498,-177.65153806713175,0.2917186820224633,-149.85263332554976,0.0003,-0.0003,0.0016,0.0097,0.0085,-0.0082,86.07567135650332,32.798186953705134,88.16751989987817,-32.777794731987846,-89.14072672526042,-34.226158989800346,-0.0,0.05441495687654703,0.007865830223159035,-0.0008392333984375,-0.0,-0.06785074869791667,-0.1216,0.0749,0.1081,0.01147,0.01348,0.00827,0.0010709358612075448,0.0008878356893546879,0.0008017538930289447,0.0004173669731244445,0.00046819864655844867,0.0005492896889336407,0.008815214969217777,0.011537205427885056,0.012005836702883244,passive,0
0.781,rehab,small_slow,99.0203199991888,-666.2572802401788,223.30600099637343,-177.65153938826091,0.2917193127288163,-149.85261797601314,0.0003,0.0003,0.0005,0.0053,0.0076,-0.0163,86.0756781549737,32.798186953705134,88.16751310140779,-32.77778625488281,-89.14072672526042,-34.22616746690538,-0.0,-0.0,-0.01835587001082921,-0.022862752278645832,-0.0,-0.06785074869791667,-0.1191,-0.0647,-0.3591,-0.00653,0.0039,0.00359,0.0010709358612075448,0.0008878356893546879,0.0008017538930289447,0.0004173669731244445,0.00046819864655844867,0.0005492896889336407,0.008815214969217777,0.011537205427885056,0.012005836702883244,passive,0
0.8006,rehab,small_slow,99.02031151035168,-666.2571784241596,223.30584883012418,-177.651561168832,0.2917243855592756,-149.85263524575416,0.0003,0.0003,0.0004,-0.0014,0.005,-0.0105,86.0756781549737,32.798186953705134,88.16753349681892,-32.77778625488281,-89.14073520236545,-34.22615051269531,0.05441495687654703,-0.0,0.0243929117032797,-0.023685031467013888,-0.0,0.06785074869791667,-0.0536,-0.0776,0.0103,-0.01012,0.0096,-0.00875,0.0010709358612075448,0.0008878356893546879,0.0008017538930289447,0.0004173669731244445,0.00046819864655844867,0.0005492896889336407,0.008815214969217777,0.011537205427885056,0.012005836702883244,passive,0
0.8205,rehab,small_slow,99.02032176676627,-666.2572556935901,223.30587235461024,-177.65155066135534,0.29172691513235516,-149.8526180126327,0.0008,0.0002,0.0006,-0.0101,0.0039,-0.0077,86.0756781549737,32.79819375217551,88.16751989987817,-32.77778625488281,-89.14072672526042,-34.22616746690538,-0.0,-0.05441495687654703,0.01561608644995359,-0.006654527452256944,-0.0,-0.0,-0.1409,0.0332,0.4251,0.00158,0.00132,0.0004,0.0010709358612075448,0.0008878356893546879,0.0008017538930289447,0.0004173669731244445,0.00046819864655844867,0.0005492896889336407,0.008815214969217777,0.011537205427885056,0.012005836702883244,passive,0
0.8416,rehab,small_slow,99.02039905440671,-666.2572684908497,223.30600099637343,-177.6515394313859,0.2917196600942468,-149.85261964763762,0.0006,0.0004,-0.0007,-0.0153,0.0005,-0.0049,86.07568495344407,32.798186953705134,88.16751310140779,-32.77778625488281,-89.14072672526042,-34.226158989800346,-0.0,0.05441495687654703,-0.018621010355430075,0.007434421115451389,-0.06785074869791667,-0.0,-0.0511,-0.0472,-0.0172,-0.00361,0.01341,0.00358,0.0010709358612075448,0.0008878356893546879,0.0008017538930289447,0.0004173669731244445,0.00046819864655844867,0.0005492896889336407,0.008815214969217777,0.011537205427885056,0.012005836702883244,passive,0
0.8609,rehab,small_slow,99.02032466763129,-666.2572130969588,223.30589980374788,-177.6515507145818,0.29172724748751455,-149.85262647112128,-0.0006,0.0002,-0.0003,-0.0105,-0.0025,0.0022,86.0756781549737,32.798186953705134,88.16752669834854,-32.77778625488281,-89.14072672526042,-34.226158989800346,0.05441495687654703,0.05441495687654703,-0.025433077670560026,0.020582411024305556,-0.06785074869791667,-0.0,0.0242,0.102,0.4368,0.01565,0.00954,0.00242,0.0010709358612075448,0.0008878356893546879,0.0008017538930289447,0.0004173669731244445,0.00046819864655844867,0.0005492896889336407,0.008815214969217777,0.011537205427885056,0.012005836702883244,passive,0
0.8807,rehab,small_slow,99.02032176676627,-666.2572556935901,223.30587235461024,-177.65155074760767,0.29172760985987695,-149.85263495282257,-0.0009,0.0,0.0011,-0.0026,0.0006,-0.0016,86.0756781549737,32.79819375217551,88.16751989987817,-32.77778625488281,-89.14072672526042,-34.22615051269531,-0.0,-0.0,-0.025433077670560026,-0.022922092013888888,-0.0,-0.0,0.0009,0.1831,1.2206,0.00693,0.0058,-0.00224,0.0010709358612075448,0.0008878356893546879,0.0008017538930289447,0.0004173669731244445,0.00046819864655844867,0.0005492896889336407,0.008815214969217777,0.011537205427885056,0.012005836702883244,passive,0
0.9007,rehab,small_slow,99.02032290005407,-666.2572376435442,223.30602844550583,-177.65153944148628,0.29171964508565645,-149.85262643450164,-0.0008,0.0003,0.0005,0.0029,0.0019,-0.0071,86.0756781549737,32.79818015523476,88.16751989987817,-32.77778625488281,-89.14072672526042,-34.226158989800346,-0.0,-0.05441495687654703,-0.03164687959274443,-8.477105034722223e-06,0.06785074869791667,-0.0,0.0256,0.075,0.6107,0.0052,0.00172,0.00066,0.0010709358612075448,0.0008878356893546879,0.0008017538930289447,0.0004173669731244445,0.00046819864655844867,0.0005492896889336407,0.008815214969217777,0.011537205427885056,0.012005836702883244,passive,0
0.9209,rehab,small_slow,99.0203102191893,-666.2571933578232,223.30586648919697,-177.6515540767292,0.2917189190653975,-149.85261837402908,-0.0007,0.0003,-0.0002,0.0106,-0.0026,-0.0007,86.0756781549737,32.798186953705134,88.16753349681892,-32.777794731987846,-89.14073520236545,-34.22616746690538,-0.0,-0.05441495687654703,0.02454927652189047,-0.02289666069878472,-0.06785074869791667,-0.06785074869791667,0.1081,-0.0057,0.4714,0.00525,-0.00382,-0.01349,0.0010709358612075448,0.0008878356893546879,0.0008017538930289447,0.0004173669731244445,0.00046819864655844867,0.0005492896889336407,0.008815214969217777,0.011537205427885056,0.012005836702883244,passive,0
0.9415,rehab,small_slow,99.02024722212592,-666.2571971833064,223.305944911955,-177.65154376195554,0.2917228080752753,-149.85264179654465,0.0004,0.0002,0.0002,0.0191,-0.0044,-0.0028,86.07567135650332,32.79818015523476,88.16753349681892,-32.777794731987846,-89.14072672526042,-34.22615051269531,-0.0,-0.0,0.0011013522006497526,-0.0010511610243055555,-0.0,0.06785074869791667,0.0074,-0.087,0.3952,-0.00229,0.00384,0.00115,0.0010709358612075448,0.0008878356893546879,0.0008017538930289447,0.0004173669731244445,0.00046819864655844867,0.0005492896889336407,0.008815214969217777,0.011537205427885056,0.012005836702883244,passive,0
0.9609,rehab,small_slow,99.0202593363408,-666.2572504940462,223.30602882282514,-177.65153471508583,0.29172699543876957,-149.85264141103352,0.0009,0.0005,-0.0005,0.0173,-0.0038,-0.0069,86.07568495344407,32.798186953705134,88.16751310140779,-32.77778625488281,-89.14072672526042,-34.22616746690538,-0.0,-0.05441495687654703,0.005962258518332302,0.008171929253472222,0.06785074869791667,0.06785074869791667,-0.0951,0.1035,0.3302,-0.00197,0.0003,-0.00167,0.0010709358612075448,0.0008878356893546879,0.0008017538930289447,0.0004173669731244445,0.00046819864655844867,0.0005492896889336407,0.008815214969217777,0.011537205427885056,0.012005836702883244,passive,0
0.9807,rehab,small_slow,99.02032756849651,-666.257170500324,223.30592725288045,-177.65155068155605,0.29172688511515227,-149.85261798942003,0.0007,0.0003,-0.001,0.0063,-0.0033,0.003,86.0756781549737,32.79818015523476,88.16753349681892,-32.77778625488281,-89.14072672526042,-34.22616746690538,-0.0,-0.05441495687654703,0.007757054697168936,-0.0,-0.06785074869791667,-0.06785074869791667,0.0385,-0.0275,0.3706,0.00205,-0.01077,-0.00412,0.0010709358612075448,0.0008878356893546879,0.0008017538930289447,0.0004173669731244445,0.00046819864655844867,0.0005492896889336407,0.008815214969217777,0.011537205427885056,0.012005836702883244,passive,0
1.0011,rehab,small_slow,99.02032176676627,-666.2572556935901,223.30587235461024,-177.65155070448148,0.29172726249611936,-149.8526264827276,0.0007,-0.0005,0.0005,-0.007,-0.0018,0.0131,86.0756781549737,32.79819375217551,88.16751989987817,-32.77778625488281,-89.14072672526042,-34.226158989800346,-0.0,-0.0,-0.016629058535736384,0.020480685763888888,-0.0,0.06785074869791667,0.0528,0.0328,0.0178,0.02541,0.00111,0.00303,0.0010709358612075448,0.0008878356893546879,0.0008017538930289447,0.0004173669731244445,0.00046819864655844867,0.0005492896889336407,0.008815214969217777,0.011537205427885056,0.012005836702883244,passive,0
1.0207,rehab,small_slow,99.02040428948393,-666.2571923226074,223.30597784919115,-177.6515450830842,0.29172343878228485,-149.85261964853774,0.0006,-0.0004,0.0006,-0.0165,-0.0029,0.0136,86.07568495344407,32.79818015523476,88.16752669834854,-32.77778625488281,-89.14072672526042,-34.226158989800346,-0.0,-0.0,-0.0017268114750928218,-0.019810994466145832,-0.0,-0.0,0.0641,-0.0275,0.0436,0.00954,0.00231,0.00126,0.0010709358612075448,0.0008878356893546879,0.0008017538930289447,0.0004173669731244445,0.00046819864655844867,0.0005492896889336407,0.008815214969217777,0.011537205427885056,0.012005836702883244,passive,0
1.0414,rehab,small_slow,99.02039056555748,-666.2571666748315,223.30584883012418,-177.65156108258063,0.2917236908348345,-149.85261150709383,0.0002,0.0,0.0003,-0.0151,-0.0037,0.0147,86.07568495344407,32.798186953705134,88.16753349681892,-32.77778625488281,-89.14073520236545,-34.22616746690538,-0.0,-0.0,-0.018158714369972153,-0.00881618923611111,-0.06785074869791667,-0.0,-0.0966,0.0067,0.1841,0.00283,0.00295,8e-05,0.0010709358612075448,0.0008878356893546879,0.0008017538930289447,0.0004173669731244445,0.00046819864655844867,0.0005492896889336407,0.008815214969217777,0.011537205427885056,0.012005836702883244,passive,0
1.0609,rehab,small_slow,99.02032466763129,-666.2572130969588,223.30589980374788,-177.65155067145565,0.2917269001237518,-149.85261800102634,-0.0004,0.0001,0.001,-0.0067,0.0011,0.0113,86.0756781549737,32.798186953705134,88.16752669834854,-32.77778625488281,-89.14072672526042,-34.22616746690538,-0.0,0.05441495687654703,-0.029600540010055694,0.0021616617838541665,-0.06785074869791667,-0.0,-0.1642,-0.0133,0.3883,0.00975,0.00405,0.00595,0.0010709358612075448,0.0008878356893546879,0.0008017538930289447,0.0004173669731244445,0.00046819864655844867,0.0005492896889336407,0.008815214969217777,0.011537205427885056,0.012005836702883244,passive,0
1.0809,rehab,small_slow,99.0203205658334,-666.2572712151454,223.3060790418246,-177.65153375676388,0.291715504022753,-149.85261795190073,-0.0008,0.0002,0.0011,-0.0051,0.0054,0.0113,86.0756781549737,32.79818015523476,88.16751310140779,-32.77778625488281,-89.14072672526042,-34.22616746690538,-0.0,-0.05441495687654703,-0.0027669774423731437,0.02288818359375,-0.0,-0.0,-0.0122,0.0485,0.454,0.00299,-0.00124,0.00123,0.0010709358612075448,0.0008878356893546879,0.0008017538930289447,0.0004173669731244445,0.00046819864655844867,0.0005492896889336407,0.008815214969217777,0.011537205427885056,0.012005836702883244,passive,0
1.1007,rehab,small_slow,99.0203218569954,-666.2572562814876,223.30606138274683,-177.65154080574044,0.2917206231574455,-149.8526263535303,-0.0008,-0.0003,0.001,-0.0546,-0.026,0.1087,86.0756781549737,32.79818015523476,88.16751310140779,-32.77777777777778,-89.14072672526042,-34.226158989800346,0.05441495687654703,-0.0,-0.022931240572787746,8.477105034722223e-06,-0.0,0.06785074869791667,-0.0574,0.0441,0.1385,0.01052,0.02058,0.00347,0.0010709358612075448,0.0008878356893546879,0.0008017538930289447,0.0004173669731244445,0.00046819864655844867,0.0005492896889336407,0.008815214969217777,0.011537205427885056,0.012005836702883244,passive,0
1.1207,rehab,small_slow,99.0203288596589,-666.25715556666,223.30590959380808,-177.65155768740746,0.29173165688463687,-149.85261792095608,0.0001,-0.0004,0.0009,-0.0461,-0.0298,0.0394,86.0756781549737,32.79818015523476,88.16753349681892,-32.77777777777778,-89.14072672526042,-34.22616746690538,-0.0,-0.0,-0.002127921227181312,-0.007434421115451389,-0.06785074869791667,-0.06785074869791667,-0.021,-0.0957,-0.101,0.00657,-0.00036,0.00243,0.0010709358612075448,0.0008878356893546879,0.0008017538930289447,0.0004173669731244445,0.00046819864655844867,0.0005492896889336407,0.008815214969217777,0.011537205427885056,0.012005836702883244,passive,0
1.1422,rehab,small_slow,99.02032475786088,-666.2572136848498,223.3060888318743,-177.65154077271566,0.29172026078363106,-149.85261787182907,0.0006,0.0002,0.0007,0.1906,0.1065,-0.5138,86.0756781549737,32.79817335676439,88.16751989987817,-32.77777777777778,-89.14072672526042,-34.22616746690538,0.05441495687654703,-0.0,-0.007077207659730817,-0.007366604275173611,-0.0,-0.06785074869791667,0.1093,-0.163,-0.1866,0.00223,0.00234,-0.00131,0.0010709358612075448,0.0008878356893546879,0.0008017538930289447,0.0004173669731244445,0.00046819864655844867,0.0005492896889336407,0.008815214969217777,0.011537205427885056,0.012005836702883244,passive,0
1.161,rehab,small_slow,99.02031232509832,-666.2571731034308,223.305942153728,-177.65156382118906,0.29172563197026385,-149.85261813201535,0.0002,0.0003,0.0001,0.3829,0.2266,-0.8452,86.0756781549737,32.79818015523476,88.16752669834854,-32.777769300672745,-89.14073520236545,-34.22616746690538,0.05441495687654703,-0.0,0.001733609945467203,0.023235744900173612,-0.0,-0.0,-0.234,-0.0517,0.357,-0.02267,0.01403,0.00229,0.0010709358612075448,0.0008878356893546879,0.0008017538930289447,0.0004173669731244445,0.00046819864655844867,0.0005492896889336407,0.008815214969217777,0.011537205427885056,0.012005836702883244,passive,0
1.1808,rehab,small_slow,99.02031927467159,-666.2572861488004,223.30609670090453,-177.65152683716,0.29171142698789787,-149.8526349605562,-0.0001,-0.0002,0.0004,0.4054,0.1894,-0.4726,86.0756781549737,32.79818015523476,88.16751310140779,-32.777794731987846,-89.14072672526042,-34.22615051269531,-0.05441495687654703,-0.05441495687654703,0.007009222955987005,-0.023939344618055556,0.06785074869791667,0.06785074869791667,-0.0851,0.026,0.4971,0.00737,0.00246,0.00149,0.0010709358612075448,0.0008878356893546879,0.0008017538930289447,0.0004173669731244445,0.00046819864655844867,0.0005492896889336407,0.008815214969217777,0.011537205427885056,0.012005836702883244,passive,0
1.2008,rehab,small_slow,99.02040066410669,-666.257240827872,223.306046104584,-177.6515324787585,0.2917152206836975,-149.8526281745915,0.0017,-0.0001,-0.0055,0.2984,-0.0314,0.4861,86.07568495344407,32.79818015523476,88.16751989987817,-32.777794731987846,-89.14072672526042,-34.22615051269531,0.05441495687654703,-0.0,0.0025358294496441833,-0.022905137803819444,-0.0,0.06785074869791667,-0.0737,0.0421,0.3098,-0.00241,0.01256,-0.0018,0.0010709358612075448,0.0008878356893546879,0.0008017538930289447,0.0004173669731244445,0.00046819864655844867,0.0005492896889336407,0.008815214969217777,0.011537205427885056,0.012005836702883244,passive,0
1.2207,rehab,small_slow,99.02038936462573,-666.2571821963987,223.30605551731637,-177.65154422111306,0.2917126270900556,-149.85261991645768,0.0271,0.0135,-0.0557,-0.1229,-0.3507,1.6104,86.07568495344407,32.79817335676439,88.16752669834854,-32.77778625488281,-89.14073520236545,-34.226158989800346,0.05441495687654703,-0.0,-0.013522157574644183,0.024965074327256944,0.06785074869791667,-0.0,-0.001,0.044,0.1762,0.01193,0.00349,0.00067,0.0010709358612075448,0.0008878356893546879,0.0008017538930289447,0.0004173669731244445,0.00046819864655844867,0.0005492896889336407,0.008815214969217777,0.011537205427885056,0.012005836702883244,passive,0
1.2422,rehab,small_slow,99.02024416338273,-666.2572366635388,223.30609121279193,-177.65152539675876,0.2917097391727199,-149.85262488820229,0.0336,0.0161,-0.0423,-0.9487,-0.7281,2.8787,86.07567135650332,32.79817335676439,88.16752669834854,-32.77780320909288,-89.14072672526042,-34.22616746690538,-0.05441495687654703,-0.0,-0.0006186608040686881,-0.0011359320746527778,-0.0,-0.06785074869791667,-0.0418,0.0336,0.4274,0.01265,0.00707,0.00524,0.0010709358612075448,0.0008878356893546879,0.0008017538930289447,0.0004173669731244445,0.00046819864655844867,0.0005492896889336407,0.008815214969217777,0.011537205427885056,0.012005836702883244,passive,0
1.261,rehab,small_slow,99.02032290005407,-666.2572376435442,223.30602844550583,-177.65153944148628,0.29171964508565645,-149.85262643450164,-0.0059,-0.0115,0.0756,-1.6786,-0.9869,3.4958,86.0756781549737,32.79818015523476,88.16751989987817,-32.77778625488281,-89.14072672526042,-34.226158989800346,-0.0,-0.0,-0.01585403291305693,0.027135213216145832,-0.06785074869791667,0.06785074869791667,0.0731,0.0169,-0.1004,0.01058,0.01435,-0.00055,0.0010709358612075448,0.0008878356893546879,0.0008017538930289447,0.0004173669731244445,0.00046819864655844867,0.0005492896889336407,0.008815214969217777,0.011537205427885056,0.012005836702883244,passive,0
1.2811,rehab,small_slow,99.02030740855261,-666.2572365423644,223.30602806818882,-177.65154416788877,0.29171229473393295,-149.85261825643954,-0.0539,-0.0494,0.2096,-2.5868,-1.2482,3.016,86.0756781549737,32.79818015523476,88.16751989987817,-32.77778625488281,-89.14073520236545,-34.22616746690538,0.05441495687654703,-0.05441495687654703,0.0014344772489944307,-0.019853379991319444,-0.0,-0.0,0.0455,-0.0323,0.0804,0.01533,0.00671,0.00053,0.0010709358612075448,0.0008878356893546879,0.0008017538930289447,0.0004173669731244445,0.00046819864655844867,0.0005492896889336407,0.008815214969217777,0.011537205427885056,0.012005836702883244,passive,0
1.3006,rehab,small_slow,99.02034201693877,-666.2571902394552,223.3059605674363,-177.65154731940981,0.29173521353777865,-149.85262608651198,-0.1311,-0.0848,0.3038,8.2284,2.85,-20.1651,86.0756781549737,32.79818015523476,88.16752669834854,-32.77777777777778,-89.14071824815538,-34.226158989800346,-0.0,-0.0,0.002236696753171411,0.01312255859375,-0.0,0.06785074869791667,-0.0326,-0.1501,-0.2293,-0.00022,-0.00364,0.00125,0.0010709358612075448,0.0008878356893546879,0.0008017538930289447,0.0004173669731244445,0.00046819864655844867,0.0005492896889336407,0.008815214969217777,0.011537205427885056,0.012005836702883244,passive,0
1.3207,rehab,small_slow,99.0194475167688,-666.2574228189942,223.30895381844365,-177.65130849218596,0.2915639856551121,-149.8527088155294,-0.2541,-0.1097,0.3577,2.5144,0.6238,-6.617,86.07560337179959,32.79796940265316,88.16745191517442,-32.77778625488281,-89.14072672526042,-34.22615051269531,-0.05441495687654703,-0.05441495687654703,-0.006825664255878713,-0.022862752278645832,-0.0,-0.0,-0.1046,0.0656,0.2985,0.01301,0.00061,-0.00175,0.0010709358612075448,0.0008878356893546879,0.0008017538930289447,0.0004173669731244445,0.00046819864655844867,0.0005492896889336407,0.008815214969217777,0.011537205427885056,0.012005836702883244,passive,0
1.3423,rehab,small_slow,99.0057360708666,-666.2644963152154,223.33586804603615,-177.64894761300383,0.28998172407040096,-149.85384136865025,-0.362,-0.1232,0.3601,-57.2862,-19.6619,92.9672,86.07445443030632,32.79654172387453,88.16603783333656,-32.77778625488281,-89.14071824815538,-34.226158989800346,-0.05441495687654703,-0.05441495687654703,-0.03577355110999381,8.477105034722223e-06,0.06785074869791667,-0.0,-0.057,-0.0359,-0.019,0.00224,0.00151,-0.00296,0.0010709358612075448,0.0008878356893546879,0.0008017538930289447,0.0004173669731244445,0.00046819864655844867,0.0005492896889336407,0.008815214969217777,0.011537205427885056,0.012005836702883244,passive,0
1.3609,rehab,small_slow,98.9973633537683,-666.2678423008956,223.34374447865213,-177.64822604657542,0.28949571321718565,-149.8545547118234,-0.5266,-0.1474,0.3616,-91.5464,-27.5715,139.2654,86.07374738938738,32.796195001885444,88.16551435111772,-32.77778625488281,-89.14071824815538,-34.22615051269531,-0.05441495687654703,-0.05441495687654703,-0.01757404591777537,-8.477105034722223e-06,0.06785074869791667,0.06785074869791667,0.0023,-0.0614,0.4536,0.01571,-0.00495,-0.0024,0.0010709358612075448,0.0008878356893546879,0.0008017538930289447,0.0004173669731244445,0.00046819864655844867,0.0005492896889336407,0.008815214969217777,0.011537205427885056,0.012005836702883244,passive,0
1.3809,rehab,small_slow,98.98402812573494,-666.2703184100579,223.3492698769171,-177.64777428648236,0.2891799445145965,-149.85567860958608,-0.7976,-0.178,0.4139,-64.1988,-10.3111,93.6063,86.07260524636447,32.795841481425974,88.16531719547687,-32.77778625488281,-89.14072672526042,-34.22616746690538,-0.16324487062964108,0.05441495687654703,-0.002563023331141708,0.001034206814236111,-0.0,-0.0,-0.047,0.1679,0.7746,0.01348,0.01043,-0.00333,0.0010709358612075448,0.0008878356893546879,0.0008017538930289447,0.0004173669731244445,0.00046819864655844867,0.0005492896889336407,0.008815214969217777,0.011537205427885056,0.012005836702883244,passive,0
1.4006,rehab,small_slow,98.95985863551883,-666.273310298486,223.35533515818207,-177.6473411007538,0.2888765224736765,-149.85774884599454,-1.198,-0.1933,0.7531,21.3569,22.4589,-63.4192,86.07052491442992,32.79532479767752,88.16529680006575,-32.77777777777778,-89.14073520236545,-34.226175944010414,-0.05441495687654703,-0.10882991375309406,-0.0008905996190439356,-0.00022040473090277778,-0.0,-0.06785074869791667,-0.0658,-0.0883,0.0672,0.01083,-0.00728,0.0033,0.0010709358612075448,0.0008878356893546879,0.0008017538930289447,0.0004173669731244445,0.00046819864655844867,0.0005492896889336407,0.008815214969217777,0.011537205427885056,0.012005836702883244,passive,0
1.4209,rehab,small_slow,98.9322074528852,-666.2760997694486,223.3681661432321,-177.64639317796988,0.2882462862894142,-149.86014800178646,-7.6211,-2.311,12.1506,142.6515,56.8186,-308.787,86.06813865132851,32.794223445476874,88.16527640465462,-32.777794731987846,-89.14072672526042,-34.226158989800346,-0.16324487062964108,-0.05441495687654703,-0.005635931940362005,-0.03037346733940972,-0.0,-0.0,-0.021,-0.0218,-0.0192,0.00536,0.01131,0.00061,0.0010709358612075448,0.0008878356893546879,0.0008017538930289447,0.0004173669731244445,0.00046819864655844867,0.0005492896889336407,0.008815214969217777,0.011537205427885056,0.012005836702883244,passive,0
1.4413,rehab,small_slow,98.89879205606634,-666.2805453877025,223.38306297848902,-177.6452623088408,0.287482164483374,-149.86301925138727,-7.2235,-1.5188,7.4958,230.6354,79.5709,-522.9958,86.06526289836015,32.79306090704285,88.16506565207303,-32.77778625488281,-89.14072672526042,-34.226158989800346,-0.2176666259765625,-0.10882991375309406,-0.028703141920637377,-0.00032212999131944444,-0.0,-0.0,0.083,-0.0068,0.0795,0.02687,-0.00992,-0.00123,0.0010709358612075448,0.0008878356893546879,0.0008017538930289447,0.0004173669731244445,0.00046819864655844867,0.0005492896889336407,0.008815214969217777,0.011537205427885056,0.012005836702883244,passive,0
1.4607,rehab,small_slow,98.81187109958147,-666.2934097078744,223.43912595785238,-177.64089061389032,0.28452906849400383,-149.87047439800153,3.2014,2.6981,-10.859,239.6432,82.9449,-602.9939,86.0577913794187,32.78890024317373,88.16395070293161,-32.77778625488281,-89.14072672526042,-34.226158989800346,-0.489748208829672,-0.2720815828531095,-0.03713324518487005,-0.02266777886284722,-0.0,0.06785074869791667,-0.0019,-0.0604,-0.149,0.0178,-0.00551,0.00369,0.0010709358612075448,0.0008878356893546879,0.0008017538930289447,0.0004173669731244445,0.00046819864655844867,0.0005492896889336407,0.008815214969217777,0.011537205427885056,0.012005836702883244,passive,0
1.4812,rehab,small_slow,98.71977454825861,-666.3019784311216,223.50620226192436,-177.63591252036662,0.2811736364896796,-149.87839330194558,13.2002,6.1581,-30.2478,183.9227,69.8156,-547.1585,86.04984396755106,32.783352691348234,88.16349520541654,-32.77778625488281,-89.14071824815538,-34.22616746690538,-0.544163165706219,-0.435333251953125,-0.04125311823174505,-0.001034206814236111,0.06785074869791667,-0.0,-0.0208,-0.0939,-0.3302,0.01848,0.00365,0.00249,0.0010709358612075448,0.0008878356893546879,0.0008017538930289447,0.0004173669731244445,0.00046819864655844867,0.0005492896889336407,0.008815214969217777,0.011537205427885056,0.012005836702883244,passive,0
1.5006,rehab,small_slow,98.55470465463567,-666.3192567026956,223.62223033620432,-177.627225018624,0.2752918994771458,-149.89260650065066,21.2162,7.894,-51.6982,64.5657,43.0088,-327.7895,86.03561476905747,32.773943608350095,88.16242104709738,-32.777794731987846,-89.14072672526042,-34.22615051269531,-0.7074148348062346,-0.32649653972965653,-0.0541362195911974,-0.013054741753472222,0.06785074869791667,-0.06785074869791667,-0.2431,-0.1151,0.3927,0.0002,-5e-05,0.00178,0.0010709358612075448,0.0008878356893546879,0.0008017538930289447,0.0004173669731244445,0.00046819864655844867,0.0005492896889336407,0.008815214969217777,0.011537205427885056,0.012005836702883244,passive,0
1.5206,rehab,small_slow,98.35157124038419,-666.3450722265143,223.68626936840712,-177.62242872287962,0.27208017393614653,-149.91007158207148,18.8401,6.88,-53.1166,-180.9269,-21.0097,175.6167,86.01812230478419,32.76872238310257,88.16187037099706,-32.777794731987846,-89.14070129394531,-34.226158989800346,-1.795747964689047,-0.32649653972965653,-0.03486935455020111,0.0010002983940972222,0.06785074869791667,-0.0,0.5676,-0.4001,-1.5056,-0.00073,0.0158,0.01204,0.0010709358612075448,0.0008878356893546879,0.0008017538930289447,0.0004173669731244445,0.00046819864655844867,0.0005492896889336407,0.008815214969217777,0.011537205427885056,0.012005836702883244,passive,0
1.5411,rehab,small_slow,100.8741990185502,-665.3614483521021,218.5030489442873,-178.12473829268947,0.6112906836164925,-149.6736831346081,7.2379,4.8554,-38.4841,-514.1515,-104.2926,831.0646,86.23098921067644,33.092146014223005,88.32721596897238,-32.659759521484375,-89.14053175184462,-34.251505533854164,14.638112889658107,20.732792013942603,6.134633734674737,7.076144748263888,-0.8142344156901041,-12.824215359157986,-2.1531,0.4312,-3.6183,-0.12029,0.04617,0.03891,0.0010709358612075448,0.0008878356893546879,0.0008017538930289447,0.0004173669731244445,0.00046819864655844867,0.0005492896889336407,0.008815214969217777,0.011537205427885056,0.012005836702883244,passive,0
1.5609,rehab,small_slow,100.58100964008923,-665.538223329655,219.60169508166004,-178.07506278129628,0.5831851707672305,-149.59036834337778,-5.3524,2.499,-16.3073,-748.5875,-141.4239,1313.1445,86.20531818654277,33.027825686010985,88.25563487440053,-32.57778591579861,-89.13404676649306,-34.3591054280599,-5.060760951278233,-5.224005821907874,-3.7279820206141707,8.17898220486111,-0.13570149739583334,-3.121236165364583,-0.1455,-0.4666,3.2258,0.03497,-0.0136,-0.03958,0.0010709358612075448,0.0008878356893546879,0.0008017538930289447,0.0004173669731244445,0.00046819864655844867,0.0005492896889336407,0.008815214969217777,0.011537205427885056,0.012005836702883244,passive,0
1.5806,rehab,small_slow,100.43446096111724,-665.563690443981,217.78642841614803,-178.2730207927426,0.7168889668918895,-149.54443407534353,-20.3963,-0.1997,14.6303,-782.3146,-121.9545,1472.7588,86.19234670506846,33.168819163105276,88.25424118797378,-32.47687445746528,-89.13401285807292,-34.41896226671007,2.938502849918781,8.053678758073561,1.8160210033454518,2.338731553819444,0.7463751898871528,-2.2391425238715277,1.1802,-0.314,2.6734,0.061,-0.01591,-0.02676,0.0010709358612075448,0.0008878356893546879,0.0008017538930289447,0.0004173669731244445,0.00046819864655844867,0.0005492896889336407,0.008815214969217777,0.011537205427885056,0.012005836702883244,passive,0
1.6011,rehab,small_slow,99.31436273672097,-665.8980143155205,219.91912808948555,-178.13039242159667,0.6164601892957228,-149.59072465436273,-39.3225,-3.4157,53.0254,-645.0036,-73.2507,1291.3831,86.09724290300123,33.02988562253442,88.16654092014426,-32.42337544759115,-89.13614908854167,-34.465832180447045,-9.740603607479889,-11.481936615292389,-5.926675324392791,4.03596666124132,0.13570149739583334,-2.5784132215711804,0.0539,0.0288,0.9712,0.01803,-0.01151,-0.00013,0.0010709358612075448,0.0008878356893546879,0.0008017538930289447,0.0004173669731244445,0.00046819864655844867,0.0005492896889336407,0.008815214969217777,0.011537205427885056,0.012005836702883244,passive,0
1.6207,rehab,small_slow,97.30058190994212,-666.0496105669014,222.7662646450461,-177.97224440668037,0.5089892278645581,-149.70108426739623,-57.0724,-6.7159,87.3323,-407.4852,-25.1086,859.8396,85.92279415319462,32.8054137277131,88.10228857663598,-32.324159410264755,-89.13477579752605,-34.52746073404948,-5.387257491007889,-8.434597053150139,-2.3942037148050743,4.064390394422743,0.13570149739583334,-2.714114718967014,0.3583,-0.4033,2.5796,0.08479,-0.02187,-0.01788,0.0010709358612075448,0.0008878356893546879,0.0008017538930289447,0.0004173669731244445,0.00046819864655844867,0.0005492896889336407,0.008815214969217777,0.011537205427885056,0.012005836702883244,passive,0
1.6417,rehab,small_slow,96.50637252980044,-666.0790837056553,224.476133042812,-177.88033311385888,0.44787862784095755,-149.72481368580233,-63.3672,-5.4162,97.3418,-164.3799,14.9346,344.1068,85.85349734466855,32.671708210860146,88.06000209090733,-32.25730895996094,-89.1324954562717,-34.57160101996528,-3.9724210229250465,-8.162515470297029,-2.4091535511583384,4.62949964735243,-0.13570149739583334,-2.8498246934678817,-0.0408,-0.2494,0.6404,0.02105,-0.01486,0.0004,0.0010709358612075448,0.0008878356893546879,0.0008017538930289447,0.0004173669731244445,0.00046819864655844867,0.0005492896889336407,0.008815214969217777,0.011537205427885056,0.012005836702883244,passive,0
1.6607,rehab,small_slow,95.7149624488382,-666.0724498676074,226.04812794916117,-177.80476421927548,0.3956404666606284,-149.7470169724743,-58.694,-2.1204,91.9,-6.0407,38.3911,-54.3498,85.78446567648709,32.545059506255804,88.02387501933786,-32.185143364800346,-89.1319359673394,-34.61717393663194,-4.135672692025062,-7.346263923267327,-2.2995826041344367,4.679599338107638,0.13570149739583334,-2.9176754421657987,-0.6048,0.012,-0.6097,-0.02213,0.00069,0.01757,0.0010709358612075448,0.0008878356893546879,0.0008017538930289447,0.0004173669731244445,0.00046819864655844867,0.0005492896889336407,0.008815214969217777,0.011537205427885056,0.012005836702883244,passive,0
1.6809,rehab,small_slow,94.4450592856573,-666.0756059491215,227.88764758951234,-177.73618657641777,0.34842783544751743,-149.7830253193008,-51.1047,-0.4744,78.1805,129.9631,49.9708,-387.6332,85.67363021397354,32.39467054310411,87.9758370276725,-32.067955864800346,-89.13041856553819,-34.69033983018663,-4.897509282178218,-5.224005821907874,-1.7715726040377475,4.950629340277778,0.06785074869791667,-3.1890869140625,-0.7858,0.0042,-1.2115,-0.02189,0.00066,0.02142,0.0010709358612075448,0.0008878356893546879,0.0008017538930289447,0.0004173669731244445,0.00046819864655844867,0.0005492896889336407,0.008815214969217777,0.011537205427885056,0.012005836702883244,passive,0
1.7008,rehab,small_slow,93.62015507629712,-666.0867600919318,228.80031320254884,-177.71650719885346,0.3358784471123878,-149.8028627246358,-43.7171,0.1779,59.1372,182.4394,44.2759,-511.2516,85.60149164483099,32.31943866994121,87.94598494425858,-31.984778510199654,-89.12842644585503,-34.741600884331596,-4.4077542748781715,-4.353339318001624,-1.9148911580000774,5.3314463297526045,0.06785074869791667,-3.392647637261285,-0.9215,0.125,-0.9095,-0.01302,0.00926,0.02213,0.0010709358612075448,0.0008878356893546879,0.0008017538930289447,0.0004173669731244445,0.00046819864655844867,0.0005492896889336407,0.008815214969217777,0.011537205427885056,0.012005836702883244,passive,0
1.721,rehab,small_slow,92.51805912999062,-666.1057620230018,229.97333359933322,-177.70562347906457,0.3289605455400219,-149.8187228203116,-42.864,-0.5715,52.5595,137.0835,16.5965,-417.8763,85.50513692421488,32.22419209999613,87.89838205469717,-31.852628919813366,-89.12613762749565,-34.82057359483507,-3.64592448319539,-3.809169353825031,-2.2410409757406407,5.4475657145182295,0.06785074869791667,-3.2569376627604165,-1.141,0.0562,-1.1261,-0.03643,0.00823,0.02886,0.0010709358612075448,0.0008878356893546879,0.0008017538930289447,0.0004173669731244445,0.00046819864655844867,0.0005492896889336407,0.008815214969217777,0.011537205427885056,0.012005836702883244,passive,0
1.7419,rehab,small_slow,91.8404122295118,-666.1277198122211,230.8165815208889,-177.69468055703996,0.32084374688478173,-149.8219931553868,-47.3538,-1.1665,52.9324,43.3302,-12.3819,-241.0178,85.44603782125039,32.1586276517056,87.86082730434909,-31.761610243055554,-89.12533230251736,-34.87536960177951,-3.5915027278484684,-4.244502605778156,-2.425150351949257,5.908872816297743,0.13570149739583334,-3.664059109157986,-1.0467,-0.1102,-1.1483,-0.03448,0.01047,0.0249,0.0010709358612075448,0.0008878356893546879,0.0008017538930289447,0.0004173669731244445,0.00046819864655844867,0.0005492896889336407,0.008815214969217777,0.011537205427885056,0.012005836702883244,passive,0
1.7611,rehab,small_slow,90.84332522444197,-666.1604186834794,232.1571020714463,-177.67381838010326,0.3067071318135452,-149.82257604718322,-48.5245,-1.355,53.1284,-26.0376,-16.3458,-92.8558,85.35890182646195,32.0556376240041,87.80041609660233,-31.621051364474827,-89.12308586968315,-34.96028476291232,-3.809169353825031,-4.190087648901609,-2.3983643786741955,6.137330796983507,-0.0,-3.596208360460069,-0.9962,-0.2586,-0.6531,-0.02768,0.00178,0.01784,0.0010709358612075448,0.0008878356893546879,0.0008017538930289447,0.0004173669731244445,0.00046819864655844867,0.0005492896889336407,0.008815214969217777,0.011537205427885056,0.012005836702883244,passive,0
1.7809,rehab,small_slow,90.12562513585559,-666.181887507694,233.0152557485851,-177.66454641908928,0.3009241831687193,-149.82606335191656,-47.1219,-1.2888,52.336,-44.3007,-6.0594,12.9062,85.2961247510249,31.989141785272277,87.76070623114558,-31.52414109971788,-89.12117004394531,-35.01845465766059,-4.135672692025062,-4.135672692025062,-2.539609399172339,6.110602484809028,0.06785074869791667,-3.596208360460069,-1.0007,-0.1502,-1.3996,-0.0239,0.00941,0.02149,0.0010709358612075448,0.0008878356893546879,0.0008017538930289447,0.0004173669731244445,0.00046819864655844867,0.0005492896889336407,0.008815214969217777,0.011537205427885056,0.012005836702883244,passive,0
1.8007,rehab,small_slow,88.93986758124804,-666.2094879745988,234.19954055859282,-177.6624930338727,0.2991174132688686,-149.83930182383122,-46.8927,-1.1443,52.383,-8.4257,5.4406,19.7719,85.19258404722308,31.895370483398438,87.7045712612643,-31.374486287434895,-89.11938137478299,-35.107108222113716,-4.244502605778156,-3.9724210229250465,-2.336273948744972,6.28997802734375,0.06785074869791667,-3.596208360460069,-0.6192,-0.2104,-0.2894,0.00026,0.0014,0.01232,0.0010709358612075448,0.0008878356893546879,0.0008017538930289447,0.0004173669731244445,0.00046819864655844867,0.0005492896889336407,0.008815214969217777,0.011537205427885056,0.012005836702883244,passive,0
1.8207,rehab,small_slow,87.95514627079919,-666.2314606991335,235.16880278178593,-177.66283318896015,0.2990641410486479,-149.84899725002424,-45.4243,-0.8937,49.7703,42.2647,11.8866,-23.368,85.10657659851678,31.818935280979268,87.657151930403,-31.24829610188802,-89.1178470187717,-35.182037353515625,-4.190087648901609,-3.918006066048499,-2.397283421884669,6.399103800455729,0.06785074869791667,-3.8676198323567705,-0.7644,-0.3098,0.2504,-0.00537,-0.00804,0.00943,0.0010709358612075448,0.0008878356893546879,0.0008017538930289447,0.0004173669731244445,0.00046819864655844867,0.0005492896889336407,0.008815214969217777,0.011537205427885056,0.012005836702883244,passive,0
1.8417,rehab,small_slow,86.87936111286938,-666.246681156987,236.38327421524318,-177.65966704758648,0.2971472857387159,-149.8497177740812,-46.0764,-0.6107,49.6209,57.4453,11.902,-39.9861,85.01239738842048,31.7244025504235,87.59720301864171,-31.094945271809895,-89.11542256673177,-35.27378506130642,-3.8635911091719524,-3.9724210229250465,-2.6125909786413213,6.459681193033854,0.06785074869791667,-3.799769083658854,-0.7802,-0.4369,0.6087,0.01054,-0.00596,0.00728,0.0010709358612075448,0.0008878356893546879,0.0008017538930289447,0.0004173669731244445,0.00046819864655844867,0.0005492896889336407,0.008815214969217777,0.011537205427885056,0.012005836702883244,passive,0
1.8608,rehab,small_slow,86.18220919409964,-666.2554371050066,237.2008734142578,-177.65709355922175,0.29579286445903774,-149.84819229793493,-45.7874,-0.4113,49.9225,34.0311,9.6485,-20.2451,84.9513063336363,31.66127875299737,87.55614025758044,-30.991923014322914,-89.11359151204427,-35.33524407280816,-3.7003394400719367,-3.9724210229250465,-2.585424291025294,6.520072089301215,0.06785074869791667,-3.8676198323567705,-0.6705,-0.4661,0.6346,0.00714,-0.00757,0.00546,0.0010709358612075448,0.0008878356893546879,0.0008017538930289447,0.0004173669731244445,0.00046819864655844867,0.0005492896889336407,0.008815214969217777,0.011537205427885056,0.012005836702883244,passive,0
1.8809,rehab,small_slow,85.47227971886673,-666.2620704919701,238.00381791997864,-177.65664258935112,0.2951195151653393,-149.847584406277,-43.7074,-0.2509,49.3463,7.9865,6.3205,12.7276,84.88918870982558,31.59908634601253,87.51536983074529,-30.88799370659722,-89.11242167154948,-35.396830240885414,-4.026835979801594,-3.8635911091719524,-2.5770213816425587,6.64549085828993,0.06785074869791667,-3.9354705810546875,-0.6287,-0.3862,0.6929,0.03629,-0.01785,0.01185,0.0010709358612075448,0.0008878356893546879,0.0008017538930289447,0.0004173669731244445,0.00046819864655844867,0.0005492896889336407,0.008815214969217777,0.011537205427885056,0.012005836702883244,passive,0
1.901,rehab,small_slow,84.40754578232585,-666.2631136225453,239.20145972025387,-177.65705330942038,0.29543632823356114,-149.84727763972447,-42.8433,-0.1597,49.2988,-7.9636,3.3273,41.4855,84.79587970393719,31.505736549301904,87.45497901840966,-30.731158786349827,-89.11022610134549,-35.48871358235677,-4.135672692025062,-3.9724210229250465,-2.595268476127398,6.566407945421007,0.06785074869791667,-3.7319098578559027,-0.7197,-0.3168,0.8548,0.02972,-0.01794,0.0088,0.0010709358612075448,0.0008878356893546879,0.0008017538930289447,0.0004173669731244445,0.00046819864655844867,0.0005492896889336407,0.008815214969217777,0.011537205427885056,0.012005836702883244,passive,0
1.9213,rehab,small_slow,83.68335441724477,-666.2610341479957,240.0246390316327,-177.65538806367567,0.2944210145180056,-149.84869219627882,-42.6302,-0.1497,48.9801,-11.7771,0.8249,47.9126,84.73238199064048,31.441497802734375,87.41452811968209,-30.626703898111977,-89.10864935980902,-35.549630059136284,-4.081257735148514,-4.081257735148514,-2.5677754619334006,6.49200439453125,0.06785074869791667,-3.664059109157986,-0.7204,-0.3586,0.3699,0.01882,0.00117,0.01611,0.0010709358612075448,0.0008878356893546879,0.0008017538930289447,0.0004173669731244445,0.00046819864655844867,0.0005492896889336407,0.008815214969217777,0.011537205427885056,0.012005836702883244,passive,0
1.9418,rehab,small_slow,82.5794950405185,-666.2652898366595,241.28653881771152,-177.65088452192919,0.29098265364852544,-149.85291672601133,-44.8379,-0.1886,51.5208,-7.8696,-0.5467,32.852,84.63572813732789,31.34432046720297,87.35138392684483,-30.469495985243054,-89.10669962565105,-35.64030965169271,-3.9724210229250465,-3.9724210229250465,-2.720244757019647,6.678704155815972,0.06785074869791667,-3.799769083658854,-0.7532,-0.18,0.218,0.01946,-0.00034,0.01499,0.0010709358612075448,0.0008878356893546879,0.0008017538930289447,0.0004173669731244445,0.00046819864655844867,0.0005492896889336407,0.008815214969217777,0.011537205427885056,0.012005836702883244,passive,0
1.9611,rehab,small_slow,81.8578418289454,-666.2736698974462,242.11314041253016,-177.64877732265091,0.2894985467001084,-149.85558580665418,-46.4242,-0.2175,53.8723,-4.2858,-1.0131,15.6627,84.57255675060914,31.281760942817915,87.30775134398205,-30.364210340711804,-89.10529242621527,-35.69964090983073,-3.9724210229250465,-3.809169353825031,-2.692058298847463,6.605436537000868,0.06785074869791667,-3.7319098578559027,-1.028,-0.1943,-0.322,0.00296,-0.00071,0.02126,0.0010709358612075448,0.0008878356893546879,0.0008017538930289447,0.0004173669731244445,0.00046819864655844867,0.0005492896889336407,0.008815214969217777,0.011537205427885056,0.012005836702883244,passive,0
1.9811,rehab,small_slow,80.67906579348751,-666.2809624150227,243.49133194259215,-177.65011417932757,0.29068039523384515,-149.85432585622866,-45.9465,-0.2283,53.9991,9.2159,-0.9193,-3.9153,84.48397268163096,31.192945725847,87.24275796720298,-30.206273396809895,-89.10303751627605,-35.78772650824653,-3.64592448319539,-3.754754396948484,-2.71230414362237,6.6430409749348955,0.06785074869791667,-3.7319098578559027,-0.9798,-0.3197,-0.0919,0.01544,-0.01053,0.0216,0.0010709358612075448,0.0008878356893546879,0.0008017538930289447,0.0004173669731244445,0.00046819864655844867,0.0005492896889336407,0.008815214969217777,0.011537205427885056,0.012005836702883244,passive,0
2.0009,rehab,small_slow,80.18540538379781,-666.284199208284,244.07616176782497,-177.65128580152552,0.29166273418646355,-149.85335853417334,-44.5732,-0.2308,52.6156,30.1373,-0.3256,-23.8984,84.42596133392637,31.1344312913347,87.1985135220065,-30.10022481282552,-89.10159640842014,-35.84554884168837,-3.7003394400719367,-3.64592448319539,-2.8047361468324565,6.589745415581597,0.06785074869791667,-3.596208360460069,-1.1188,-0.4387,0.0282,-0.0069,-0.00268,0.01915,0.0010709358612075448,0.0008878356893546879,0.0008017538930289447,0.0004173669731244445,0.00046819864655844867,0.0005492896889336407,0.008815214969217777,0.011537205427885056,0.012005836702883244,passive,0
2.0207,rehab,small_slow,79.02353144152029,-666.2891318208443,245.46181582682485,-177.65267398086363,0.2926543190191337,-149.8531341904451,-42.7574,-0.2172,50.4113,57.8656,0.4744,-55.4127,84.32413384465887,31.031250906462716,87.12038550046411,-29.914381239149304,-89.09929911295573,-35.94555324978298,-3.7003394400719367,-3.5370877709719215,-2.7624088702815595,6.562720404730903,0.13570149739583334,-3.596208360460069,-1.0151,-0.282,0.0665,0.00902,-0.00289,0.01963,0.0010709358612075448,0.0008878356893546879,0.0008017538930289447,0.0004173669731244445,0.00046819864655844867,0.0005492896889336407,0.008815214969217777,0.011537205427885056,0.012005836702883244,passive,0
2.041,rehab,small_slow,78.35832977163898,-666.2910533437553,246.25893655441328,-177.6529672564227,0.2927712649106357,-149.85258361622533,-41.571,-0.2012,48.9963,70.833,1.0076,-75.3818,84.26583696119856,30.972111012675974,87.07536602964495,-29.80828179253472,-89.09804450141058,-36.00323147243923,-3.5915027278484684,-3.7003394400719367,-2.8336908321569463,6.704762776692708,0.13570149739583334,-3.7319098578559027,-0.9817,-0.3426,0.2432,0.0169,-0.02019,0.01821,0.0010709358612075448,0.0008878356893546879,0.0008017538930289447,0.0004173669731244445,0.00046819864655844867,0.0005492896889336407,0.008815214969217777,0.011537205427885056,0.012005836702883244,passive,0
2.0609,rehab,small_slow,77.17372483220998,-666.2924700867546,247.65781648909794,-177.6533651285605,0.2930828068544391,-149.85368934980266,-40.8362,-0.1916,48.2988,51.6536,0.9073,-58.8786,84.17717810904625,30.883227811001316,87.00752409377901,-29.648827446831596,-89.09600999620226,-36.08938429090712,-3.754754396948484,-3.5370877709719215,-2.7843883250019337,6.605461968315972,0.06785074869791667,-3.596208360460069,-1.1677,-0.4402,-0.3064,0.00972,-0.01609,0.02426,0.0010709358612075448,0.0008878356893546879,0.0008017538930289447,0.0004173669731244445,0.00046819864655844867,0.0005492896889336407,0.008815214969217777,0.011537205427885056,0.012005836702883244,passive,0
2.081,rehab,small_slow,76.64793691570597,-666.2962338153254,248.26213722308265,-177.65308795717655,0.2928624464076536,-149.85495501841615,-40.7795,-0.1769,48.5434,13.4175,0.3474,-19.1574,84.11593748791383,30.823999537099706,86.96172959733717,-29.542278713650173,-89.0947045220269,-36.14781697591146,-3.918006066048499,-3.754754396948484,-2.870749294167698,6.759389241536458,0.06785074869791667,-3.596208360460069,-0.976,-0.3304,0.5143,0.0095,-0.01588,0.02054,0.0010709358612075448,0.0008878356893546879,0.0008017538930289447,0.0004173669731244445,0.00046819864655844867,0.0005492896889336407,0.008815214969217777,0.011537205427885056,0.012005836702883244,passive,0
2.1007,rehab,small_slow,75.94069039165242,-666.303342339671,249.06419170988625,-177.6527891100014,0.2925229748319556,-149.85663463838017,-39.8154,-0.1517,47.4091,-30.5682,-0.3356,25.9064,84.05402381821435,30.76539672247254,86.91527564926903,-29.43598429361979,-89.0934329562717,-36.20687696668837,-3.9724210229250465,-3.809169353825031,-2.955077520691522,6.753573947482638,0.06785074869791667,-3.528349134657118,-0.9993,-0.2627,0.9847,0.01797,-0.0189,0.01916,0.0010709358612075448,0.0008878356893546879,0.0008017538930289447,0.0004173669731244445,0.00046819864655844867,0.0005492896889336407,0.008815214969217777,0.011537205427885056,0.012005836702883244,passive,0
2.121,rehab,small_slow,74.9377020801243,-666.3105876190809,250.26569784101272,-177.65225634095773,0.29224321590375996,-149.85374758069864,-39.226,-0.1365,46.4001,-60.7911,-0.9314,51.673,83.96611959627359,30.67843748791383,86.84431321550123,-29.276123046875,-89.09127977159288,-36.29589504665798,-3.5370877709719215,-3.5370877709719215,-3.018690807984607,6.615609063042535,0.13570149739583334,-3.8676198323567705,-1.1715,-0.421,0.7598,-0.00796,-0.00686,0.01269,0.0010709358612075448,0.0008878356893546879,0.0008017538930289447,0.0004173669731244445,0.00046819864655844867,0.0005492896889336407,0.008815214969217777,0.011537205427885056,0.012005836702883244,passive,0
2.1413,rehab,small_slow,74.29348908071903,-666.3105884614736,251.06265710288034,-177.6522354555107,0.29235365862784396,-149.8493035550854,-41.9259,-0.1812,49.0186,-75.5225,-1.2493,59.0321,83.9095903151106,30.620800056079826,86.79703665251779,-29.16945563422309,-89.08978780110677,-36.35568406846788,-3.5370877709719215,-3.7003394400719367,-3.0234973265392946,6.719546847873263,0.13570149739583334,-3.7319098578559027,-1.0823,-0.5049,0.519,0.01502,-0.00185,0.02277,0.0010709358612075448,0.0008878356893546879,0.0008017538930289447,0.0004173669731244445,0.00046819864655844867,0.0005492896889336407,0.008815214969217777,0.011537205427885056,0.012005836702883244,passive,0
2.1606,rehab,small_slow,73.2930790624748,-666.3104968435402,252.272691620888,-177.65155905900787,0.29182361049276945,-149.84546662212261,-44.3732,-0.2477,51.1903,-79.7023,-1.0818,61.0479,83.82185605492923,30.53336492859491,86.7255439380608,-29.00882297092014,-89.08772786458333,-36.44547356499566,-3.809169353825031,-3.5370877709719215,-2.9753573578183015,6.665208604600695,0.13570149739583334,-3.664059109157986,-1.118,-0.5472,0.1557,-0.00278,-0.01121,0.02116,0.0010709358612075448,0.0008878356893546879,0.0008017538930289447,0.0004173669731244445,0.00046819864655844867,0.0005492896889336407,0.008815214969217777,0.011537205427885056,0.012005836702883244,passive,0
2.181,rehab,small_slow,72.58821079519895,-666.3116472573566,253.0637998675682,-177.65249891043888,0.29245584080420955,-149.84578660832315,-47.317,-0.2796,53.8276,-73.1438,-0.4146,59.7781,83.76007835463722,30.47612180804262,86.67832176284034,-28.901502821180554,-89.08637152777777,-36.505745781792534,-3.8635911091719524,-3.5915027278484684,-3.136793835328357,6.605597601996528,0.06785074869791667,-3.7319098578559027,-1.0764,-0.3976,0.6267,0.01399,-0.0037,0.02726,0.0010709358612075448,0.0008878356893546879,0.0008017538930289447,0.0004173669731244445,0.00046819864655844867,0.0005492896889336407,0.008815214969217777,0.011537205427885056,0.012005836702883244,passive,0
2.2005,rehab,small_slow,71.48449394599373,-666.3192682110854,254.27411794311277,-177.6518651650924,0.2918832470764253,-149.8497140213647,-48.3405,-0.2819,54.2762,-51.4592,0.1986,44.1483,83.66343129979502,30.389196565835782,86.6060200304088,-28.74052259657118,-89.08433702256944,-36.5966796875,-3.918006066048499,-3.5370877709719215,-3.0430973166286357,6.74497816297743,0.13570149739583334,-3.799769083658854,-1.2726,-0.4575,-0.1558,0.00326,-0.0041,0.03079,0.0010709358612075448,0.0008878356893546879,0.0008017538930289447,0.0004173669731244445,0.00046819864655844867,0.0005492896889336407,0.008815214969217777,0.011537205427885056,0.012005836702883244,passive,0
2.2208,rehab,small_slow,70.56588403711918,-666.3281607249461,255.2844740397749,-177.65103059204975,0.2912411050218635,-149.85307519034706,-47.1505,-0.2583,52.6127,-3.922,0.5682,-3.3007,83.59904298687925,30.331457156946165,86.55680590336866,-28.632837931315102,-89.08295525444878,-36.65717230902778,-3.9724210229250465,-3.5370877709719215,-3.076035905592512,6.811209784613715,0.06785074869791667,-3.664059109157986,-1.2599,-0.4524,0.1403,0.00098,-0.01603,0.02579,0.0010709358612075448,0.0008878356893546879,0.0008017538930289447,0.0004173669731244445,0.00046819864655844867,0.0005492896889336407,0.008815214969217777,0.011537205427885056,0.012005836702883244,passive,0
2.2411,rehab,small_slow,69.48871994063593,-666.3424644455137,256.47060288992463,-177.65154373881126,0.2916799630578981,-149.85432022556859,-47.2697,-0.2116,52.9486,43.5909,0.7584,-54.3952,83.50407515421952,30.24818949180074,86.48204992313197,-28.47164577907986,-89.08080206976996,-36.74835205078125,-3.8635911091719524,-3.482672814095374,-3.099252681921024,6.799994574652778,0.13570149739583334,-3.9354705810546875,-1.1919,-0.4846,0.247,0.00909,-0.00598,0.0269,0.0010709358612075448,0.0008878356893546879,0.0008017538930289447,0.0004173669731244445,0.00046819864655844867,0.0005492896889336407,0.008815214969217777,0.011537205427885056,0.012005836702883244,passive,0
2.2607,rehab,small_slow,68.62465419209046,-666.3443971842539,257.4455604096145,-177.65351068120677,0.29318238770115895,-149.8525629809486,-46.5343,-0.1591,52.5604,68.4327,0.5683,-81.3418,83.42769433956335,30.17958612725286,86.42014305190284,-28.336986965603298,-89.07896253797743,-36.824332343207466,-3.754754396948484,-3.5370877709719215,-3.000389325736773,6.751166449652778,0.06785074869791667,-3.799769083658854,-1.2548,-0.5075,-0.0556,0.00204,-0.00019,0.02301,0.0010709358612075448,0.0008878356893546879,0.0008017538930289447,0.0004173669731244445,0.00046819864655844867,0.0005492896889336407,0.008815214969217777,0.011537205427885056,0.012005836702883244,passive,0
2.281,rehab,small_slow,67.58628243869369,-666.3405506651529,258.6425553165882,-177.65432882461695,0.29378108700234573,-149.84957923305993,-45.1264,-0.1587,51.1038,66.6601,-0.0019,-80.4435,83.33720669888034,30.09546185484027,86.34610091105546,-28.174463907877602,-89.07685173882378,-36.916232638888886,-3.809169353825031,-3.5915027278484684,-3.244699157110535,6.683069864908854,0.06785074869791667,-3.799769083658854,-1.1272,-0.5393,-0.1027,0.00327,-0.00062,0.02295,0.0010709358612075448,0.0008878356893546879,0.0008017538930289447,0.0004173669731244445,0.00046819864655844867,0.0005492896889336407,0.008815214969217777,0.011537205427885056,0.012005836702883244,passive,0
2.3006,rehab,small_slow,66.87852721043062,-666.3395372491601,259.46827551752466,-177.6523094543321,0.2922450541884936,-149.84939590629824,-43.4089,-0.2276,48.5902,39.4402,-0.6259,-53.8202,83.27553097564395,30.0377088490099,86.29552029147007,-28.06649949815538,-89.07545301649306,-36.9775136311849,-3.918006066048499,-3.754754396948484,-3.161105165387144,6.644558376736111,0.06785074869791667,-3.7319098578559027,-1.2827,-0.4034,0.6194,0.00639,0.00254,0.02159,0.0010709358612075448,0.0008878356893546879,0.0008017538930289447,0.0004173669731244445,0.00046819864655844867,0.0005492896889336407,0.008815214969217777,0.011537205427885056,0.012005836702883244,passive,0
2.3208,rehab,small_slow,66.15722220077666,-666.3392859570475,260.2985781649599,-177.65003061257974,0.29055134070208205,-149.8503744832,-41.5393,-0.2548,45.8429,14.0696,-1.0104,-30.0177,83.21242757362894,29.979541136486695,86.24421903402498,-27.958585951063366,-89.07403733995226,-37.03878614637587,-3.9724210229250465,-3.5915027278484684,-3.148602778368657,6.713646782769097,0.06785074869791667,-3.664059109157986,-1.2857,-0.5798,-0.1662,0.00621,0.0096,0.03064,0.0010709358612075448,0.0008878356893546879,0.0008017538930289447,0.0004173669731244445,0.00046819864655844867,0.0005492896889336407,0.008815214969217777,0.011537205427885056,0.012005836702883244,passive,0
2.3414,rehab,small_slow,65.05604692129339,-666.3492653883343,261.50198285934255,-177.64987472717047,0.2904625218047925,-149.85233865364873,-41.5828,-0.2378,45.625,-2.1925,-0.5155,-13.0397,83.11642637347231,29.896259874400524,86.16645812988281,-27.795240614149304,-89.0718502468533,-37.13102552625868,-3.9724210229250465,-3.428251058748453,-3.2720222095451734,6.787177191840278,0.06785074869791667,-3.799769083658854,-1.2146,-0.5446,-0.4228,0.01666,-0.0064,0.02987,0.0010709358612075448,0.0008878356893546879,0.0008017538930289447,0.0004173669731244445,0.00046819864655844867,0.0005492896889336407,0.008815214969217777,0.011537205427885056,0.012005836702883244,passive,0
2.3609,rehab,small_slow,64.31404750877444,-666.3623287747133,262.2734125387362,-177.65193926706243,0.2920004321732681,-149.85400207265593,-42.8365,-0.2474,46.9186,-22.9362,0.9068,15.2737,83.05169133856745,29.84391165251779,86.11360682119238,-27.686377631293404,-89.07041761610243,-37.19295077853732,-4.026835979801594,-3.2105844327718907,-3.2565964802657024,6.689029269748263,0.13570149739583334,-3.799769083658854,-1.3854,-0.657,-0.4353,-0.00137,0.0078,0.0276,0.0010709358612075448,0.0008878356893546879,0.0008017538930289447,0.0004173669731244445,0.00046819864655844867,0.0005492896889336407,0.008815214969217777,0.011537205427885056,0.012005836702883244,passive,0
2.3807,rehab,small_slow,63.38477707869821,-666.3768594770551,263.2356524044666,-177.65432913894216,0.293802513907846,-149.85584850913133,-44.7699,-0.2459,48.976,-37.9395,2.2708,41.3723,82.95404490858022,29.76625952390161,86.03476496026067,-27.52332051595052,-89.06825595431857,-37.28641933865017,-3.9724210229250465,-3.2650061881188117,-3.3539369790860922,6.87789069281684,0.06785074869791667,-3.799769083658854,-1.3123,-0.5059,0.5971,-0.00151,-0.00704,0.02231,0.0010709358612075448,0.0008878356893546879,0.0008017538930289447,0.0004173669731244445,0.00046819864655844867,0.0005492896889336407,0.008815214969217777,0.011537205427885056,0.012005836702883244,passive,0
2.401,rehab,small_slow,62.66372844382477,-666.3764185842306,264.02531526794064,-177.6552691417134,0.2945392265076249,-149.8552139508925,-45.9627,-0.2191,50.2709,-41.3739,2.3048,50.8582,82.89083952950959,29.71229326606977,85.98273626648553,-27.41431342230903,-89.06678093804253,-37.3490481906467,-3.8635911091719524,-3.482672814095374,-3.265434491752398,6.802842881944445,0.06785074869791667,-3.9354705810546875,-1.3988,-0.6053,0.1262,0.00257,-0.00362,0.02808,0.0010709358612075448,0.0008878356893546879,0.0008017538930289447,0.0004173669731244445,0.00046819864655844867,0.0005492896889336407,0.008815214969217777,0.011537205427885056,0.012005836702883244,passive,0
2.4206,rehab,small_slow,61.60824470410306,-666.363387016159,265.25393356644497,-177.6533821793409,0.2931633240415247,-149.85233169918158,-44.9837,-0.1357,49.3268,-28.3684,1.1884,34.6102,82.7981695798364,29.627679503790223,85.90451306635791,-27.251086764865452,-89.0645514594184,-37.44277106391059,-4.026835979801594,-3.5915027278484684,-3.3112493836053525,6.868523491753472,0.13570149739583334,-4.0033213297526045,-1.3113,-0.4424,0.2408,0.01305,-0.00959,0.03038,0.0010709358612075448,0.0008878356893546879,0.0008017538930289447,0.0004173669731244445,0.00046819864655844867,0.0005492896889336407,0.008815214969217777,0.011537205427885056,0.012005836702883244,passive,0
2.4413,rehab,small_slow,60.8900213395601,-666.3635181542212,266.08610829538503,-177.65087458454232,0.2912114366067333,-149.8511816115856,-45.1762,-0.0252,49.7796,-5.8397,0.0849,5.0493,82.73522934111038,29.571632914023823,85.85007771407024,-27.141952514648438,-89.06311882866753,-37.50563727484809,-4.026835979801594,-3.482672814095374,-3.4452200408029086,6.911044650607638,0.06785074869791667,-3.7319098578559027,-1.3519,-0.2967,-0.3987,0.01669,-0.00418,0.03444,0.0010709358612075448,0.0008878356893546879,0.0008017538930289447,0.0004173669731244445,0.00046819864655844867,0.0005492896889336407,0.008815214969217777,0.011537205427885056,0.012005836702883244,passive,0
2.461,rehab,small_slow,59.57441847411605,-666.376056388252,267.5027561938578,-177.6493067387187,0.2898621385260117,-149.853289489035,-46.0157,-0.0161,50.8078,2.3922,-0.6573,-7.1347,82.62012443920173,29.477691650390625,85.75379777662825,-26.950564914279514,-89.06065199110243,-37.61650085449219,-4.353339318001624,-3.2650061881188117,-3.3612793270904238,6.746385362413195,0.13570149739583334,-4.0033213297526045,-1.2384,-0.5046,-0.5669,0.00378,-0.01091,0.02693,0.0010709358612075448,0.0008878356893546879,0.0008017538930289447,0.0004173669731244445,0.00046819864655844867,0.0005492896889336407,0.008815214969217777,0.011537205427885056,0.012005836702883244,passive,0
2.481,rehab,small_slow,58.819309562126335,-666.3818136457709,268.2931772204704,-177.64997132205997,0.2903212420985034,-149.85465081447825,-45.738,-0.122,50.3012,-6.2448,-1.5345,-0.1734,82.55404330716274,29.425459002504255,85.6990904855256,-26.84096442328559,-89.05921088324652,-37.68000284830729,-4.081257735148514,-3.1017545190187965,-3.383741473207379,6.876712375217013,0.13570149739583334,-4.071180555555555,-1.4581,-0.4491,-0.0117,-0.00865,0.00983,0.02688,0.0010709358612075448,0.0008878356893546879,0.0008017538930289447,0.0004173669731244445,0.00046819864655844867,0.0005492896889336407,0.008815214969217777,0.011537205427885056,0.012005836702883244,passive,0
2.5008,rehab,small_slow,58.08144229272076,-666.3823806614644,269.0833169948317,-177.6508115296802,0.2910086454908424,-149.85500515606674,-45.8844,-0.2586,49.9481,-21.7835,-2.4374,14.9503,82.48939665237276,29.373083586740023,85.64460754394531,-26.731177435980904,-89.05771043565538,-37.743072509765625,-3.918006066048499,-3.2650061881188117,-3.424613877098159,6.998341878255208,0.06785074869791667,-4.139031304253472,-1.3142,-0.4171,-0.1762,0.00831,-0.0047,0.02925,0.0010709358612075448,0.0008878356893546879,0.0008017538930289447,0.0004173669731244445,0.00046819864655844867,0.0005492896889336407,0.008815214969217777,0.011537205427885056,0.012005836702883244,passive,0
2.5209,rehab,small_slow,57.00518244121446,-666.3798084651218,270.2705539492315,-177.65208058380222,0.2920950036300893,-149.8523721507001,-45.5066,-0.2965,49.1882,-20.7543,-2.7421,13.8021,82.39504068204673,29.294819595790145,85.5620809120707,-26.565933227539062,-89.05541314019096,-37.838219536675346,-3.918006066048499,-3.2105844327718907,-3.5882938498317607,6.82572258843316,-0.0,-4.0033213297526045,-1.3435,-0.4059,-0.1574,0.01286,-0.01104,0.03116,0.0010709358612075448,0.0008878356893546879,0.0008017538930289447,0.0004173669731244445,0.00046819864655844867,0.0005492896889336407,0.008815214969217777,0.011537205427885056,0.012005836702883244,passive,0
2.5414,rehab,small_slow,56.287903248895084,-666.3843160084156,271.0678104746957,-177.6522352343829,0.29225287971551545,-149.85019779159555,-46.4643,-0.2638,50.2622,-16.3254,-1.628,10.9138,82.3322364127282,29.243348376585704,85.50525929668161,-26.455552842881943,-89.0539042154948,-37.90196736653646,-3.9724210229250465,-3.2650061881188117,-3.654171027759514,6.817330254448785,0.06785074869791667,-4.071180555555555,-1.3597,-0.5776,0.0995,0.0033,-0.02018,0.02206,0.0010709358612075448,0.0008878356893546879,0.0008017538930289447,0.0004173669731244445,0.00046819864655844867,0.0005492896889336407,0.008815214969217777,0.011537205427885056,0.012005836702883244,passive,0
2.5608,rehab,small_slow,55.20086309737477,-666.396084402333,272.27026150110765,-177.65183204906663,0.29197841229858984,-149.8477522112133,-47.8536,-0.2664,51.8141,-23.8052,0.3552,22.4331,82.23713261066096,29.16671601852568,85.41830006212291,-26.28963894314236,-89.05165778266058,-37.99766540527344,-4.026835979801594,-3.319421144995359,-3.6366989588973544,6.863513522677951,0.06785074869791667,-4.342592027452257,-1.31,-0.4662,0.3397,0.00808,-0.01367,0.02613,0.0010709358612075448,0.0008878356893546879,0.0008017538930289447,0.0004173669731244445,0.00046819864655844867,0.0005492896889336407,0.008815214969217777,0.011537205427885056,0.012005836702883244,passive,0
2.5809,rehab,small_slow,54.27337424577144,-666.4033714631446,273.26242930734406,-177.65226695472592,0.29221716213515264,-149.84723005292534,-48.2846,-0.2879,52.264,-17.9105,1.9042,20.1169,82.17244516504873,29.116216980584777,85.3605334593518,-26.179300944010414,-89.05022515190971,-38.06180318196615,-4.135672692025062,-3.047339562142249,-3.5582582077177443,6.870591905381945,0.06785074869791667,-4.0033213297526045,-1.3899,-0.6529,-0.5525,0.01224,-0.00238,0.03251,0.0010709358612075448,0.0008878356893546879,0.0008017538930289447,0.0004173669731244445,0.00046819864655844867,0.0005492896889336407,0.008815214969217777,0.011537205427885056,0.012005836702883244,passive,0
2.6009,rehab,small_slow,53.130847711802076,-666.4116607662154,274.46237223839853,-177.6524253576526,0.29237727625379645,-149.85064344083045,-47.7566,-0.2872,51.7134,-8.9206,2.0757,12.0178,82.07272520159731,29.039836165928605,85.27390055137106,-26.01294623480903,-89.04802958170573,-38.15656873914931,-4.081257735148514,-3.373836101871906,-3.5433627591274752,6.832834879557291,0.06785074869791667,-3.8676198323567705,-1.2789,-0.5102,0.9046,0.02574,-0.00719,0.02369,0.0010709358612075448,0.0008878356893546879,0.0008017538930289447,0.0004173669731244445,0.00046819864655844867,0.0005492896889336407,0.008815214969217777,0.011537205427885056,0.012005836702883244,passive,0
2.6211,rehab,small_slow,52.377083819708176,-666.4134769177543,275.2615218834616,-177.65257242848068,0.2925376364770317,-149.8513956886404,-46.9757,-0.2132,50.8684,1.5394,1.4296,-1.3925,82.00629054909885,28.98919436010984,85.21579402508122,-25.90182834201389,-89.04651217990451,-38.22057088216146,-4.135672692025062,-3.2650061881188117,-3.608349337436185,6.900321112738715,0.13570149739583334,-3.799769083658854,-1.2412,-0.6255,0.5164,0.00562,-0.01698,0.02215,0.0010709358612075448,0.0008878356893546879,0.0008017538930289447,0.0004173669731244445,0.00046819864655844867,0.0005492896889336407,0.008815214969217777,0.011537205427885056,0.012005836702883244,passive,0
2.6417,rehab,small_slow,51.27482059832321,-666.4151740548624,276.46808915780684,-177.65202397227,0.29216160442102135,-149.8503709699412,-48.6897,-0.1115,52.642,18.8789,0.8992,-24.2442,81.89355151488049,28.90024997220181,85.11297395913908,-25.707728068033852,-89.04389275444878,-38.332129584418404,-3.9724210229250465,-3.1561694758953434,-3.6507174048093285,6.93330552842882,0.06785074869791667,-4.0033213297526045,-1.4524,-0.6696,0.5457,-0.00368,-0.00981,0.02655,0.0010709358612075448,0.0008878356893546879,0.0008017538930289447,0.0004173669731244445,0.00046819864655844867,0.0005492896889336407,0.008815214969217777,0.011537205427885056,0.012005836702883244,passive,0
2.6606,rehab,small_slow,50.555042317453946,-666.4159023694805,277.26752660786053,-177.65220371329147,0.2922991903572684,-149.84785566356823,-47.6759,-0.0874,51.5251,15.857,0.4441,-24.2792,81.8463633320119,28.86258644632774,85.06852555983137,-25.624287923177082,-89.04279073079427,-38.38036431206597,-3.918006066048499,-2.992917806795328,-3.7233046729965964,6.968044704861111,0.06785074869791667,-4.206882052951388,-1.1604,-0.5905,0.8279,0.02538,-0.01921,0.02205,0.0010709358612075448,0.0008878356893546879,0.0008017538930289447,0.0004173669731244445,0.00046819864655844867,0.0005492896889336407,0.008815214969217777,0.011537205427885056,0.012005836702883244,passive,0
2.6812,rehab,small_slow,49.46587327426513,-666.4198471469491,278.476116828578,-177.6515919269319,0.29180575436537537,-149.84510662441514,-46.2161,-0.1322,49.9529,11.8283,-0.3092,-20.8047,81.75112356053721,28.787912047735535,84.97820108243735,-25.456856621636284,-89.0405782063802,-38.476452297634545,-4.298924361125077,-3.1017545190187965,-3.8606133791479733,6.869303385416666,0.06785074869791667,-3.9354705810546875,-1.2598,-0.5956,0.2957,0.03516,0.00258,0.03017,0.0010709358612075448,0.0008878356893546879,0.0008017538930289447,0.0004173669731244445,0.00046819864655844867,0.0005492896889336407,0.008815214969217777,0.011537205427885056,0.012005836702883244,passive,0
2.7009,rehab,small_slow,48.5372996737578,-666.422523250436,279.46831194536543,-177.652303255286,0.29240196890342474,-149.8452613711008,-47.3544,-0.1941,50.9663,25.0532,-1.1728,-31.616,81.67038492637106,28.72634510002514,84.90301679856707,-25.317298041449654,-89.0386962890625,-38.55617099338107,-4.081257735148514,-2.992917806795328,-3.7910242363958075,6.870312160915798,0.06785074869791667,-4.206882052951388,-1.4782,-0.7583,0.0033,0.01767,-0.00497,0.02865,0.0010709358612075448,0.0008878356893546879,0.0008017538930289447,0.0004173669731244445,0.00046819864655844867,0.0005492896889336407,0.008815214969217777,0.011537205427885056,0.012005836702883244,passive,0
2.721,rehab,small_slow,47.58265432632435,-666.4227858440839,280.46256414009554,-177.65321012915513,0.29309514219349786,-149.84832510033826,-45.6276,-0.2263,48.7461,42.3122,-1.5254,-44.6295,81.57041341951577,28.65315276797455,84.81247477012106,-25.149171617296005,-89.03655158148871,-38.65107218424479,-4.026835979801594,-3.047339562142249,-3.8497698189008354,6.9801076253255205,0.06785074869791667,-3.9354705810546875,-1.4846,-0.5895,0.0526,0.01267,-0.01064,0.02843,0.0010709358612075448,0.0008878356893546879,0.0008017538930289447,0.0004173669731244445,0.00046819864655844867,0.0005492896889336407,0.008815214969217777,0.011537205427885056,0.012005836702883244,passive,0
2.7421,rehab,small_slow,46.62126064040488,-666.4304484502971,281.47406103018795,-177.65214698385853,0.2922177589655927,-149.85231292781154,-45.8592,-0.2337,48.8042,43.0966,-0.6081,-42.3701,81.50308136892791,28.604142595045637,84.75048631724745,-25.037417941623264,-89.03511895073784,-38.71377733018663,-4.244502605778156,-3.1561694758953434,-3.9129412056195854,6.959253946940104,0.13570149739583334,-3.9354705810546875,-1.3807,-0.5958,0.2744,0.03097,-0.01821,0.03183,0.0010709358612075448,0.0008878356893546879,0.0008017538930289447,0.0004173669731244445,0.00046819864655844867,0.0005492896889336407,0.008815214969217777,0.011537205427885056,0.012005836702883244,passive,0
2.7611,rehab,small_slow,45.868128608051144,-666.4390935265441,282.2831866740273,-177.65099914344094,0.29130891469929615,-149.85382345045537,-46.1818,-0.2311,49.319,14.1555,0.7242,-13.555,81.4369526475963,28.55562871045405,84.6875528769918,-24.92577446831597,-89.03373718261719,-38.77677917480469,-3.9724210229250465,-2.992917806795328,-3.8874197478341586,6.93222893608941,0.06785074869791667,-3.8676198323567705,-1.3496,-0.6461,0.7415,0.01439,-0.01141,0.02747,0.0010709358612075448,0.0008878356893546879,0.0008017538930289447,0.0004173669731244445,0.00046819864655844867,0.0005492896889336407,0.008815214969217777,0.011537205427885056,0.012005836702883244,passive,0
2.7808,rehab,small_slow,44.7650276740848,-666.444865403099,283.4708723806264,-177.6517640570157,0.29198332776196734,-149.85439794275968,-43.2505,-0.2195,46.7042,-13.8814,1.3704,10.9897,81.34029199581335,28.48491102161974,84.5933192791325,-24.75762261284722,-89.03151618109808,-38.87091742621528,-4.081257735148514,-2.884087893042234,-3.9088077356319615,7.146979437934028,0.06785074869791667,-3.9354705810546875,-1.3739,-0.6824,0.3534,0.01663,-0.00616,0.0261,0.0010709358612075448,0.0008878356893546879,0.0008017538930289447,0.0004173669731244445,0.00046819864655844867,0.0005492896889336407,0.008815214969217777,0.011537205427885056,0.012005836702883244,passive,0
2.801,rehab,small_slow,44.03516354260742,-666.4450354451152,284.25679138472003,-177.65287419643457,0.2928736653428106,-149.85361857907478,-43.2197,-0.2059,46.9021,-33.4256,0.9704,25.0775,81.27631838959043,28.437886002040145,84.53133762472928,-24.645343356662327,-89.03004964192708,-38.93397013346354,-3.918006066048499,-2.884087893042234,-3.861232039952042,7.094896104600695,0.06785074869791667,-4.0033213297526045,-1.3045,-0.7624,0.6933,0.01728,-0.01055,0.02009,0.0010709358612075448,0.0008878356893546879,0.0008017538930289447,0.0004173669731244445,0.00046819864655844867,0.0005492896889336407,0.008815214969217777,0.011537205427885056,0.012005836702883244,passive,0
2.8211,rehab,small_slow,43.1137162960394,-666.4467975623397,285.25393378824225,-177.6531705500937,0.29315171789589817,-149.85343766394118,-44.3063,-0.1349,47.6248,-50.3898,0.1772,33.9119,81.17972572251122,28.367467445902303,84.4367505064105,-24.476487901475693,-89.02784559461806,-39.02911716037326,-3.9724210229250465,-2.992917806795328,-4.029684538888459,7.14493645562066,0.13570149739583334,-3.799769083658854,-1.2563,-0.7059,0.7813,0.01639,-0.02755,0.02246,0.0010709358612075448,0.0008878356893546879,0.0008017538930289447,0.0004173669731244445,0.00046819864655844867,0.0005492896889336407,0.008815214969217777,0.011537205427885056,0.012005836702883244,passive,0
2.8418,rehab,small_slow,42.37745307731588,-666.4492383640273,286.065683103021,-177.65226660248732,0.29244114647647296,-149.85211918191752,-47.6851,-0.0834,50.2947,-62.1025,-0.5403,33.9616,81.1153510065362,28.319925742574256,84.37227381337988,-24.36369154188368,-89.02635362413194,-39.093543158637154,-4.026835979801594,-2.884087893042234,-4.121559067527847,7.1134185791015625,0.06785074869791667,-3.8676198323567705,-1.1639,-0.7064,0.8395,0.04084,-0.02859,0.0248,0.0010709358612075448,0.0008878356893546879,0.0008017538930289447,0.0004173669731244445,0.00046819864655844867,0.0005492896889336407,0.008815214969217777,0.011537205427885056,0.012005836702883244,passive,0
2.861,rehab,small_slow,41.24471705892675,-666.4550867070166,287.2778531417468,-177.65137075260049,0.291673034350895,-149.85087013109464,-51.001,-0.1372,52.8269,-73.6571,-1.0173,37.9951,81.01637207635558,28.24956157419941,84.27484493444462,-24.194132486979164,-89.02412414550781,-39.1918690999349,-4.190087648901609,-2.8296661376953125,-3.998078450117961,7.19773186577691,0.06785074869791667,-3.9354705810546875,-1.1659,-0.692,1.0505,0.03741,-0.01473,0.02045,0.0010709358612075448,0.0008878356893546879,0.0008017538930289447,0.0004173669731244445,0.00046819864655844867,0.0005492896889336407,0.008815214969217777,0.011537205427885056,0.012005836702883244,passive,0
2.8806,rehab,small_slow,40.457141731108244,-666.4570374454839,288.0822190872562,-177.65113144762927,0.29146726835652126,-149.85258913530348,-49.751,-0.2306,50.8544,-58.4939,-1.2055,24.0325,80.94755116075572,28.202767702612547,84.21023907047687,-24.081073337131077,-89.02261522081163,-39.257702297634545,-4.4077542748781715,-2.992917806795328,-3.990804086817373,7.120107014973958,0.13570149739583334,-4.274732801649305,-1.4105,-0.7295,0.3643,0.01732,-0.01256,0.02762,0.0010709358612075448,0.0008878356893546879,0.0008017538930289447,0.0004173669731244445,0.00046819864655844867,0.0005492896889336407,0.008815214969217777,0.011537205427885056,0.012005836702883244,passive,0
2.9009,rehab,small_slow,39.05284339643797,-666.458805689096,289.4666313097337,-177.651839903944,0.2920481825893848,-149.8554576983168,-50.0464,-0.2751,50.5412,-20.9056,-0.7694,-5.5946,80.82483877049815,28.122552550665223,84.09805751082921,-23.884226481119793,-89.01988559299045,-39.375339084201386,-4.462176030225093,-2.884087893042234,-3.9320856981938426,6.950276692708333,0.13570149739583334,-4.206882052951388,-1.3472,-0.8701,0.2892,0.01584,-0.02293,0.02129,0.0010709358612075448,0.0008878356893546879,0.0008017538930289447,0.0004173669731244445,0.00046819864655844867,0.0005492896889336407,0.008815214969217777,0.011537205427885056,0.012005836702883244,passive,0
2.9208,rehab,small_slow,38.255823581437824,-666.459543156565,290.253723672362,-177.65261492517686,0.2926720568758557,-149.85585970064483,-50.858,-0.257,50.8125,11.8009,0.7833,-28.158,80.75519523998298,28.077397110438582,84.03343125145034,-23.771404690212673,-89.01831732855902,-39.44331698947482,-4.298924361125077,-2.6664212670656715,-4.168543296285195,7.196265326605903,0.06785074869791667,-4.206882052951388,-1.3506,-0.884,0.9209,0.00855,-0.0099,0.01586,0.0010709358612075448,0.0008878356893546879,0.0008017538930289447,0.0004173669731244445,0.00046819864655844867,0.0005492896889336407,0.008815214969217777,0.011537205427885056,0.012005836702883244,passive,0
2.9409,rehab,small_slow,37.072175472962115,-666.4736456503931,291.4327591196232,-177.6527429121416,0.2928223514795897,-149.8541300853079,-50.4528,-0.214,50.1199,28.6475,3.1462,-35.5848,80.65195366887762,28.01190744532217,83.93370448952854,-23.60288831922743,-89.01589287651909,-39.546398586697045,-4.298924361125077,-2.7208362239422184,-4.1672515869140625,7.12248060438368,0.13570149739583334,-4.342592027452257,-1.2384,-0.8223,0.8857,0.04047,-0.02032,0.02121,0.0010709358612075448,0.0008878356893546879,0.0008017538930289447,0.0004173669731244445,0.00046819864655844867,0.0005492896889336407,0.008815214969217777,0.011537205427885056,0.012005836702883244,passive,0
2.9608,rehab,small_slow,36.28757755383832,-666.4809747725994,292.2364245154732,-177.65141186108534,0.29173217605284296,-149.8530473837643,-50.2092,-0.1545,49.9688,12.1846,4.7251,-12.1627,80.58350666914836,27.96729588272548,83.86642682670366,-23.49065992567274,-89.01430765787761,-39.614664713541664,-4.4077542748781715,-2.7752511808187657,-4.270153234500696,7.077585856119791,0.06785074869791667,-4.139031304253472,-1.3369,-1.0142,0.9703,0.03472,-0.01294,0.01913,0.0010709358612075448,0.0008878356893546879,0.0008017538930289447,0.0004173669731244445,0.00046819864655844867,0.0005492896889336407,0.008815214969217777,0.011537205427885056,0.012005836702883244,passive,0
2.9807,rehab,small_slow,35.499022133190316,-666.4828734945406,293.0322117821458,-177.65087801564582,0.29130350749478057,-149.85204046823327,-49.0284,-0.0531,49.0312,-4.3188,4.4169,8.2533,80.51464496272625,27.922779498714032,83.80002616655709,-23.37835523817274,-89.01270548502605,-39.68326992458767,-4.190087648901609,-2.8296661376953125,-4.001348514368038,6.849916246202257,0.06785074869791667,-4.206882052951388,-1.1955,-1.0126,0.3058,0.04379,-0.02157,0.02563,0.0010709358612075448,0.0008878356893546879,0.0008017538930289447,0.0004173669731244445,0.00046819864655844867,0.0005492896889336407,0.008815214969217777,0.011537205427885056,0.012005836702883244,passive,0
3.0009,rehab,small_slow,34.105772530831224,-666.4762329898763,294.4158335665462,-177.65118074344673,0.29146143830892757,-149.85199270288743,-48.9182,0.0963,49.0382,-6.3494,2.5315,10.9615,80.41020006236464,27.855814565526376,83.70135316754332,-23.20946587456597,-89.01039123535156,-39.785851372612846,-4.4077542748781715,-2.8296661376953125,-4.128180777672494,6.932017008463541,0.13570149739583334,-4.410442776150173,-1.2085,-0.8603,1.0334,0.04696,-0.01553,0.01831,0.0010709358612075448,0.0008878356893546879,0.0008017538930289447,0.0004173669731244445,0.00046819864655844867,0.0005492896889336407,0.008815214969217777,0.011537205427885056,0.012005836702883244,passive,0
3.021,rehab,small_slow,33.3139040748643,-666.4758764146262,295.2013853685783,-177.65144186202383,0.29168300215245785,-149.8515743996495,-49.2034,0.1919,49.3541,-10.9964,0.0638,13.0529,80.34068570278659,27.812453921478575,83.63482333645962,-23.097169664171005,-89.00883144802518,-39.854278564453125,-4.353339318001624,-2.7752511808187657,-4.16952907448948,7.083875868055555,0.06785074869791667,-4.206882052951388,-1.2472,-1.0214,0.9685,0.0312,-0.00501,0.01893,0.0010709358612075448,0.0008878356893546879,0.0008017538930289447,0.0004173669731244445,0.00046819864655844867,0.0005492896889336407,0.008815214969217777,0.011537205427885056,0.012005836702883244,passive,0
3.0416,rehab,small_slow,32.13400943973225,-666.470975942672,296.38121930487307,-177.65222903692526,0.29235085855072845,-149.85072169314367,-50.3321,0.155,50.4708,-9.235,-2.787,6.3631,80.22063151444539,27.736494611985613,83.51771968426091,-22.899271647135418,-89.00605095757378,-39.97322082519531,-4.353339318001624,-2.7752511808187657,-4.22138780650526,7.1161651611328125,0.06785074869791667,-4.139031304253472,-1.2592,-1.3138,-0.0473,0.03657,-0.02198,0.01611,0.0010709358612075448,0.0008878356893546879,0.0008017538930289447,0.0004173669731244445,0.00046819864655844867,0.0005492896889336407,0.008815214969217777,0.011537205427885056,0.012005836702883244,passive,0
3.0609,rehab,small_slow,31.349522571495246,-666.4669222753545,297.1698252508642,-177.65253161710228,0.2926039593903625,-149.85029438646004,-51.7448,0.0107,51.7556,-5.1019,-5.3629,-1.7858,80.16918748912245,27.70419507923693,83.46678554421604,-22.81450907389323,-89.004881117079,-40.02410888671875,-4.4077542748781715,-2.7752511808187657,-4.183255186175356,7.161170111762153,0.13570149739583334,-4.274732801649305,-1.1938,-1.1216,1.0703,0.04261,-0.02119,0.01556,0.0010709358612075448,0.0008878356893546879,0.0008017538930289447,0.0004173669731244445,0.00046819864655844867,0.0005492896889336407,0.008815214969217777,0.011537205427885056,0.012005836702883244,passive,0
3.0807,rehab,small_slow,30.171143815823502,-666.4620092651764,298.35258608193305,-177.65289738473754,0.2928706791437531,-149.84973755529202,-50.5897,-0.1701,50.3882,9.1377,-6.7127,-17.981,80.06634702776918,27.63992234031753,83.36552912646,-22.644805908203125,-89.00258382161458,-40.125740898980034,-4.298924361125077,-2.6664212670656715,-4.358812086653002,7.080552842881945,0.06785074869791667,-4.206882052951388,-1.2306,-1.1898,0.825,0.03934,-0.02326,0.01264,0.0010709358612075448,0.0008878356893546879,0.0008017538930289447,0.0004173669731244445,0.00046819864655844867,0.0005492896889336407,0.008815214969217777,0.011537205427885056,0.012005836702883244,passive,0
3.1007,rehab,small_slow,29.386660417701002,-666.4684151042658,299.149477807452,-177.6517716750992,0.2919212703026917,-149.8497483288345,-49.9456,-0.3156,49.526,34.3831,-5.8695,-43.9795,79.99785923721767,27.597839808700108,83.29569523877437,-22.53186543782552,-89.00101555718315,-40.192786322699654,-4.244502605778156,-2.557584554842203,-4.448864625232054,6.917682223849826,0.13570149739583334,-4.206882052951388,-1.1339,-1.3767,0.6828,0.02945,-0.01987,0.01144,0.0010709358612075448,0.0008878356893546879,0.0008017538930289447,0.0004173669731244445,0.00046819864655844867,0.0005492896889336407,0.008815214969217777,0.011537205427885056,0.012005836702883244,passive,0
3.1207,rehab,small_slow,28.198778309430658,-666.4848074094265,300.32417536056533,-177.65037756358842,0.29070511776705427,-149.8511247579497,-48.4746,-0.4116,47.8627,60.2617,-3.2174,-69.1994,79.89470604622718,27.537163460608756,83.1893535651783,-22.364095052083332,-88.99876064724393,-40.29331631130642,-4.353339318001624,-2.448754641089109,-4.376930010200727,6.949250962999132,0.06785074869791667,-4.139031304253472,-1.2116,-1.2351,0.7457,0.01963,-0.01457,0.01604,0.0010709358612075448,0.0008878356893546879,0.0008017538930289447,0.0004173669731244445,0.00046819864655844867,0.0005492896889336407,0.008815214969217777,0.011537205427885056,0.012005836702883244,passive,0
3.1415,rehab,small_slow,27.418757542148,-666.4945509614353,301.08318084366107,-177.65044612355388,0.290772696588036,-149.8530944591906,-47.4069,-0.4776,46.6798,90.8427,-0.0637,-96.5288,79.82643580672764,27.49823541924505,83.11952647596303,-22.25365532769097,-88.99731953938802,-40.358267890082466,-4.190087648901609,-2.3399179288656407,-4.308408227297339,6.702829996744791,0.06785074869791667,-3.9354705810546875,-1.2426,-1.1736,0.713,0.03588,-0.01667,0.02066,0.0010709358612075448,0.0008878356893546879,0.0008017538930289447,0.0004173669731244445,0.00046819864655844867,0.0005492896889336407,0.008815214969217777,0.011537205427885056,0.012005836702883244,passive,0
3.1608,rehab,small_slow,26.102218798913928,-666.5038666609494,302.3508863562036,-177.6530266495121,0.29297258930110714,-149.85392425096396,-46.5418,-0.4495,45.7164,99.2528,2.2546,-100.5604,79.71085501189279,27.43363635374768,83.0017905660195,-22.064624362521702,-88.99472554524739,-40.470267401801216,-4.190087648901609,-2.2310880151125465,-4.29191513816909,6.5122222900390625,0.13570149739583334,-3.9354705810546875,-1.0534,-1.2477,0.8489,0.0476,-0.00341,0.00974,0.0010709358612075448,0.0008878356893546879,0.0008017538930289447,0.0004173669731244445,0.00046819864655844867,0.0005492896889336407,0.008815214969217777,0.011537205427885056,0.012005836702883244,passive,0
3.1807,rehab,small_slow,25.380263628402176,-666.5102407318449,303.0684327664641,-177.65341187903448,0.29328904657475,-149.85344021996036,-43.7935,-0.3095,42.8766,85.2145,3.6388,-83.6961,79.64764963282217,27.397896794989556,82.93515195940981,-21.959423489040798,-88.99325900607639,-40.5326419406467,-3.8635911091719524,-2.2310880151125465,-4.19057034029819,6.430909898546007,0.06785074869791667,-3.9354705810546875,-1.1278,-1.4123,0.6025,0.0235,-0.0133,0.00978,0.0010709358612075448,0.0008878356893546879,0.0008017538930289447,0.0004173669731244445,0.00046819864655844867,0.0005492896889336407,0.008815214969217777,0.011537205427885056,0.012005836702883244,passive,0
3.2008,rehab,small_slow,24.672524135533248,-666.5154431607109,303.7702926292456,-177.65365133378486,0.2935898393666873,-149.85250887602925,-41.9601,-0.1735,41.0495,67.7034,3.8584,-66.4387,79.5858107462968,27.362361190342668,82.86957391417853,-21.856282552083332,-88.99182637532552,-40.59432135687934,-3.754754396948484,-2.176666259765625,-4.05681043568224,6.407131618923611,0.06785074869791667,-3.799769083658854,-1.1832,-1.3843,1.584,0.01571,-0.01493,0.00252,0.0010709358612075448,0.0008878356893546879,0.0008017538930289447,0.0004173669731244445,0.00046819864655844867,0.0005492896889336407,0.008815214969217777,0.011537205427885056,0.012005836702883244,passive,0
3.2207,rehab,small_slow,23.80153509701946,-666.5167952523058,304.6386863788175,-177.65260706396907,0.29269802524502214,-149.85253489261567,-39.344,-0.1212,38.6364,55.8262,2.9648,-56.5263,79.49460926622447,27.309876999052445,82.77444971670019,-21.707161797417534,-88.98975796169705,-40.68402608235677,-3.64592448319539,-2.176666259765625,-3.9409441050916616,6.04644775390625,0.06785074869791667,-3.528349134657118,-1.0178,-1.2793,0.9086,0.03971,-0.02125,0.01649,0.0010709358612075448,0.0008878356893546879,0.0008017538930289447,0.0004173669731244445,0.00046819864655844867,0.0005492896889336407,0.008815214969217777,0.011537205427885056,0.012005836702883244,passive,0
3.2416,rehab,small_slow,23.11383713266669,-666.5176231086383,305.3116138094509,-177.6518144280694,0.2920254755554185,-149.8540570301266,-38.2636,-0.1134,37.7547,55.5469,1.0856,-58.9257,79.43471474222618,27.276054608939898,82.71299834298615,-21.61116706000434,-88.98844401041667,-40.74131435818142,-3.809169353825031,-2.0134145906656093,-3.801221941957379,5.7787322998046875,-0.0,-3.4604983859592013,-1.071,-1.281,1.5637,0.04694,-0.02183,0.01157,0.0010709358612075448,0.0008878356893546879,0.0008017538930289447,0.0004173669731244445,0.00046819864655844867,0.0005492896889336407,0.008815214969217777,0.011537205427885056,0.012005836702883244,passive,0
3.261,rehab,small_slow,22.125349871340624,-666.5171225882171,306.26659669275045,-177.65180097945301,0.29200459297736836,-149.8559233380016,-39.2011,-0.1072,38.5367,54.7343,-0.9816,-60.4824,79.34861211493464,27.22837013773399,82.62482218223043,-21.472786797417534,-88.98656209309895,-40.82399156358507,-3.428251058748453,-1.9589996337890625,-3.5439882184019185,5.49971686469184,0.06785074869791667,-3.324796888563368,-0.9892,-1.3001,1.5226,0.05524,-0.03163,0.00778,0.0010709358612075448,0.0008878356893546879,0.0008017538930289447,0.0004173669731244445,0.00046819864655844867,0.0005492896889336407,0.008815214969217777,0.011537205427885056,0.012005836702883244,passive,0
3.2809,rehab,small_slow,21.501592877630333,-666.5212534516817,306.8712448404283,-177.65135967230498,0.2915781085417958,-149.8567805797353,-39.1627,-0.1335,38.1105,64.8672,-2.2501,-72.7007,79.29436711981745,27.198932761012916,82.56804815613397,-21.385574340820312,-88.9854007297092,-40.87639702690972,-3.2650061881188117,-1.795747964689047,-3.404157279741646,5.374603271484375,0.06785074869791667,-3.1890869140625,-0.9489,-1.3026,1.6034,0.05444,-0.03978,0.00922,0.0010709358612075448,0.0008878356893546879,0.0008017538930289447,0.0004173669731244445,0.00046819864655844867,0.0005492896889336407,0.008815214969217777,0.011537205427885056,0.012005836702883244,passive,0
3.3007,rehab,small_slow,20.627994519352896,-666.5287008181795,307.73361055507917,-177.64989547711815,0.29038008226782797,-149.85678360411052,-37.0714,-0.2071,35.7457,89.6886,-2.2521,-98.4894,79.21841460879486,27.157400905495823,82.48677244280825,-21.262359619140625,-88.98364596896701,-40.9509531656901,-3.047339562142249,-1.7413330078125,-3.3479339297455137,4.890806410047743,-0.0,-2.985526190863715,-0.9715,-1.2686,2.0298,0.0536,-0.0324,0.00521,0.0010709358612075448,0.0008878356893546879,0.0008017538930289447,0.0004173669731244445,0.00046819864655844867,0.0005492896889336407,0.008815214969217777,0.011537205427885056,0.012005836702883244,passive,0
3.3208,rehab,small_slow,20.08419612363887,-666.5316687757727,308.2777978072125,-177.6487089776322,0.289312217698837,-149.85634041857674,-33.6505,-0.2697,32.2102,120.7354,-1.706,-127.104,79.17112444887067,27.131138414439587,82.43574312417815,-21.185217963324654,-88.98260328504774,-40.997814602322045,-2.992917806795328,-1.4692514249593904,-2.9780155597346845,4.709337022569445,0.06785074869791667,-2.9176754421657987,-1.036,-1.3333,1.202,0.06756,-0.03659,0.0128,0.0010709358612075448,0.0008878356893546879,0.0008017538930289447,0.0004173669731244445,0.00046819864655844867,0.0005492896889336407,0.008815214969217777,0.011537205427885056,0.012005836702883244,passive,0
3.3414,rehab,small_slow,19.203928677208577,-666.5350695595337,309.1137431170036,-177.64953086139076,0.28998103315607104,-149.85672429702137,-30.9083,-0.3183,29.4471,163.544,-0.94,-162.9388,79.09456687398476,27.091238191812344,82.35543279364558,-21.06163872612847,-88.98092481825087,-41.07259962293837,-2.3943328857421875,-1.251584798982828,-2.7241402805441677,4.08998277452257,-0.0,-2.5784132215711804,-1.0193,-1.365,1.667,0.06507,-0.02246,0.01441,0.0010709358612075448,0.0008878356893546879,0.0008017538930289447,0.0004173669731244445,0.00046819864655844867,0.0005492896889336407,0.008815214969217777,0.011537205427885056,0.012005836702883244,passive,0
3.3607,rehab,small_slow,18.74708997852542,-666.5396160764253,309.5230713143312,-177.65138101047825,0.2915468151258563,-149.85684129377356,-27.9209,-0.3096,26.5184,181.0432,0.1242,-173.301,79.05489100087988,27.07237923499381,82.31436323411394,-20.99808586968316,-88.98006863064236,-41.1114501953125,-2.448754641089109,-1.0883331298828125,-2.389397196250387,3.74465094672309,0.06785074869791667,-2.374852498372396,-0.9496,-1.2895,2.0972,0.06311,-0.02565,0.00509,0.0010709358612075448,0.0008878356893546879,0.0008017538930289447,0.0004173669731244445,0.00046819864655844867,0.0005492896889336407,0.008815214969217777,0.011537205427885056,0.012005836702883244,passive,0
3.381,rehab,small_slow,18.14759874021836,-666.550818492723,310.079495688548,-177.65293926185376,0.29293411094460675,-149.855369420672,-23.8451,-0.2571,22.5972,168.9614,1.3987,-157.8417,79.00290309792697,27.047462841071706,82.25785434836209,-20.912950303819443,-88.97884792751736,-41.16395738389757,-2.176666259765625,-1.0339181730062654,-2.1598196501779086,3.241848415798611,0.06785074869791667,-2.0355902777777777,-0.9692,-1.3096,2.1142,0.05167,-0.02888,0.00941,0.0010709358612075448,0.0008878356893546879,0.0008017538930289447,0.0004173669731244445,0.00046819864655844867,0.0005492896889336407,0.008815214969217777,0.011537205427885056,0.012005836702883244,passive,0
3.401,rehab,small_slow,17.79387969726728,-666.5571323425069,310.425860597218,-177.65235516567293,0.2924678359494936,-149.85486800083802,-20.646,-0.2326,19.6898,153.2069,2.0613,-142.5583,78.97222839959777,27.031737979095762,82.22377361637531,-20.862943861219616,-88.97811889648438,-41.19456821017795,-1.795747964689047,-0.9250814607827971,-2.0738189999419863,2.925474378797743,0.06785074869791667,-1.832029554578993,-0.8348,-1.3963,1.9505,0.07615,-0.0344,0.01003,0.0010709358612075448,0.0008878356893546879,0.0008017538930289447,0.0004173669731244445,0.00046819864655844867,0.0005492896889336407,0.008815214969217777,0.011537205427885056,0.012005836702883244,passive,0
3.421,rehab,small_slow,17.398512470223622,-666.5598835859045,310.8043422593113,-177.65218536366632,0.2923686698071606,-149.85489170744725,-17.2402,-0.1944,16.7054,139.2378,1.897,-130.1013,78.94442945423692,27.01746119130956,82.19401671154664,-20.81810845269097,-88.9774661593967,-41.22188144259982,-1.6325030940594059,-0.87066650390625,-1.7948301711885055,2.6244269476996527,-0.0,-1.6284688313802083,-0.9756,-1.4552,1.4223,0.05973,-0.02368,0.00923,0.0010709358612075448,0.0008878356893546879,0.0008017538930289447,0.0004173669731244445,0.00046819864655844867,0.0005492896889336407,0.008815214969217777,0.011537205427885056,0.012005836702883244,passive,0
3.4413,rehab,small_slow,17.069859792196127,-666.563087968722,311.14225275210543,-177.65106807692854,0.2914173503932916,-149.8542563659636,-14.5599,-0.1405,14.3214,128.1046,1.2511,-119.7147,78.90933575016437,26.998486660494663,82.15451080020111,-20.76015896267361,-88.97664388020833,-41.256908840603295,-1.305999755859375,-0.7074148348062346,-1.4448653117264851,2.12510002983941,-0.0,-1.357057359483507,-0.8949,-1.3763,2.0948,0.07034,-0.02479,0.00071,0.0010709358612075448,0.0008878356893546879,0.0008017538930289447,0.0004173669731244445,0.00046819864655844867,0.0005492896889336407,0.008815214969217777,0.011537205427885056,0.012005836702883244,passive,0
3.4612,rehab,small_slow,16.837371308501485,-666.5614978524119,311.368953424875,-177.65108888722983,0.29147390973968496,-149.85452697708007,-12.9301,-0.1045,12.6931,118.7302,0.5966,-109.1177,78.88908310691909,26.987629503306774,82.13292565676245,-20.72705586751302,-88.97616916232639,-41.27651638454861,-1.1971630436359066,-0.6529998779296875,-1.272435707621055,1.9743855794270833,-0.0,-1.153496636284722,-1.0235,-1.5873,2.2247,0.06473,-0.02728,0.00429,0.0010709358612075448,0.0008878356893546879,0.0008017538930289447,0.0004173669731244445,0.00046819864655844867,0.0005492896889336407,0.008815214969217777,0.011537205427885056,0.012005836702883244,passive,0
3.4806,rehab,small_slow,16.557574487761773,-666.5654685251072,311.652132965048,-177.65086852023074,0.2913192313941001,-149.8537705845505,-10.92,-0.1064,10.576,113.143,0.2572,-101.1483,78.86480576921217,26.974875572884436,82.10481398176438,-20.68569607204861,-88.975584242079,-41.30108303493923,-0.87066650390625,-0.435333251953125,-1.0141958104501856,1.5627797444661458,-0.0,-0.8820851643880208,-1.036,-1.6235,2.5376,0.0603,-0.03883,0.00208,0.0010709358612075448,0.0008878356893546879,0.0008017538930289447,0.0004173669731244445,0.00046819864655844867,0.0005492896889336407,0.008815214969217777,0.011537205427885056,0.012005836702883244,passive,0
3.501,rehab,small_slow,16.372019235698914,-666.5671719251138,311.8287327856667,-177.6517440547495,0.29209503909861523,-149.85366263240445,-8.6408,-0.1441,8.5155,111.2605,-0.0012,-95.0214,78.85173231068224,26.968451018380648,82.09000011481861,-20.66313001844618,-88.97528754340277,-41.31412929958767,-0.7618297916827815,-0.3809114966062036,-0.8250215738126547,1.322784423828125,-0.0,-0.7463751898871528,-0.8421,-1.5832,1.9235,0.08471,-0.03664,0.00977,0.0010709358612075448,0.0008878356893546879,0.0008017538930289447,0.0004173669731244445,0.00046819864655844867,0.0005492896889336407,0.008815214969217777,0.011537205427885056,0.012005836702883244,passive,0
3.5211,rehab,small_slow,16.2178882286265,-666.5702767227192,311.96854515247736,-177.65234147645333,0.29261853612868716,-149.85488838236074,-6.0928,-0.1583,6.4311,111.7038,-0.1514,-89.2381,78.83534799707998,26.96094550708733,82.07210654079324,-20.636232164171005,-88.97495693630643,-41.32887098524306,-0.5985781225827661,-0.2720815828531095,-0.6785281341854889,0.9477827284071181,-0.0,-0.4749637179904514,-1.0385,-1.6375,2.2419,0.07459,-0.03124,0.00467,0.0010709358612075448,0.0008878356893546879,0.0008017538930289447,0.0004173669731244445,0.00046819864655844867,0.0005492896889336407,0.008815214969217777,0.011537205427885056,0.012005836702883244,passive,0
3.5412,rehab,small_slow,16.12465738323441,-666.5748043073265,312.06024990316286,-177.6522855638601,0.2925397410990813,-149.8558329920978,-3.6841,-0.1418,4.675,113.3002,0.2117,-83.9206,78.82732580203822,26.95725393767404,82.06233034039488,-20.622643364800346,-88.9748297797309,-41.33579678005642,-0.489748208829672,-0.2176666259765625,-0.573287812790068,0.7235124376085069,-0.0,-0.4071129692925347,-0.8013,-1.6025,2.5646,0.0894,-0.03023,0.00328,0.0010709358612075448,0.0008878356893546879,0.0008017538930289447,0.0004173669731244445,0.00046819864655844867,0.0005492896889336407,0.008815214969217777,0.011537205427885056,0.012005836702883244,passive,0
3.5606,rehab,small_slow,16.028362681161223,-666.579599892022,312.1760200896192,-177.65191666855648,0.2922055071969922,-149.85722046684708,-1.2181,-0.1138,2.9564,104.7377,0.9349,-72.2162,78.81903846665185,26.9524882099416,82.05031064477298,-20.60614691840278,-88.97470262315538,-41.34251064724392,-0.16324487062964108,-0.16324487062964108,-0.28259881652227725,0.417938232421875,-0.06785074869791667,-0.13570149739583334,-0.8679,-1.7641,1.6007,0.07038,-0.03932,0.00139,0.0010709358612075448,0.0008878356893546879,0.0008017538930289447,0.0004173669731244445,0.00046819864655844867,0.0005492896889336407,0.008815214969217777,0.011537205427885056,0.012005836702883244,passive,0
3.5811,rehab,small_slow,16.046514401223316,-666.5806428050464,312.2121533663291,-177.65199873609748,0.29229155049056715,-149.8544349416246,0.7526,-0.097,1.6126,86.5604,1.6704,-56.8295,78.82060891330832,26.951128515866724,82.0462723533706,-20.600594414605034,-88.97467719184027,-41.34366353352865,0.2720815828531095,-0.05441495687654703,-0.24113494570892635,0.2716488308376736,-0.0,-0.0,-0.8474,-1.7539,1.8134,0.05851,-0.03533,0.00108,0.0010709358612075448,0.0008878356893546879,0.0008017538930289447,0.0004173669731244445,0.00046819864655844867,0.0005492896889336407,0.008815214969217777,0.011537205427885056,0.012005836702883244,passive,0
3.6008,rehab,small_slow,16.128601057565458,-666.5822469113988,312.2182976253637,-177.65335563436625,0.2934864838696087,-149.84758373935975,2.1694,-0.0797,0.8464,73.2118,1.8558,-47.6026,78.82772011331993,26.95157721491143,82.04389288873956,-20.596864488389755,-88.97469414605034,-41.34336683485243,0.32649653972965653,0.05441495687654703,0.01796835719948948,0.005730523003472222,-0.06785074869791667,-0.0,-0.9868,-1.6517,1.8589,0.06461,-0.03097,0.00506,0.0010709358612075448,0.0008878356893546879,0.0008017538930289447,0.0004173669731244445,0.00046819864655844867,0.0005492896889336407,0.008815214969217777,0.011537205427885056,0.012005836702883244,passive,0
3.6207,rehab,small_slow,16.190512816470033,-666.578834792171,312.2052724372486,-177.6545104545331,0.2945456150993909,-149.84388901410853,3.3374,-0.0289,0.0737,61.8305,1.4518,-40.804,78.8330093232712,26.95210069713026,82.04474269753635,-20.596720377604168,-88.97470262315538,-41.341773139105904,0.3809114966062036,0.05441495687654703,0.07866510070196472,-0.0003475613064236111,-0.0,0.13570149739583334,-0.9485,-1.4989,1.6281,0.06826,-0.02566,0.0092,0.0010709358612075448,0.0008878356893546879,0.0008017538930289447,0.0004173669731244445,0.00046819864655844867,0.0005492896889336407,0.008815214969217777,0.011537205427885056,0.012005836702883244,passive,0
3.6419,rehab,small_slow,16.275438415304116,-666.5804823520804,312.2025592426475,-177.65323533917086,0.2936056474909282,-149.8447431878266,4.501,0.0219,-0.7304,57.2837,0.9841,-39.8851,78.84039246209777,26.952461016060102,82.04527977669593,-20.599450005425346,-88.97478739420573,-41.333558824327255,0.2720815828531095,-0.0,0.04822834883586015,-0.23676554361979166,-0.0,0.4749637179904514,-0.9623,-1.5639,2.1495,0.06046,-0.03466,0.00195,0.0010709358612075448,0.0008878356893546879,0.0008017538930289447,0.0004173669731244445,0.00046819864655844867,0.0005492896889336407,0.008815214969217777,0.011537205427885056,0.012005836702883244,passive,0
