t,trajectory_type,trajectory_variant,x,y,z,rx,ry,rz,vx,vy,vz,ax,ay,az,j1,j2,j3,j4,j5,j6,dj1,dj2,dj3,dj4,dj5,dj6,fx,fy,fz,tx,ty,tz,Mx,My,Mz,Bx,By,Bz,Kx,Ky,Kz,mode,comfort
0.0008,rehab,medium,80.22249397384844,-666.6333874994041,262.48272498038784,-177.3893719903019,0.13297440786362197,-149.9854930569644,0.8113,0.1335,-0.721,-30.1852,-5.2241,28.8874,84.42623327274134,30.033833720896503,85.85565245977723,-27.966317070855034,-89.09211052788628,-35.68871392144097,-0.05441495687654703,-0.0,-0.007804643989789604,-0.043419731987847224,-0.06785074869791667,-0.0,2.2024,0.6986,0.9296,0.01973,-0.00062,-0.04414,0.0011311967391520739,0.0009998086607083678,0.0009078942821361125,0.0005136588588356972,0.0004990643355995417,0.0004174651112407446,0.00887990277260542,0.0109335295855999,0.011707479134202003,passive,0
0.0213,rehab,medium,80.2215537171553,-666.6334147109659,262.48279266313,-177.3893802361503,0.13298033378836505,-149.985574437222,0.508,0.0803,-0.467,-27.7248,-4.492,25.3396,84.42615169109685,30.033820123955756,85.8556592582476,-27.966300116644966,-89.09211052788628,-35.68871392144097,-0.0,0.05441495687654703,0.0008498087967976486,2.5431315104166664e-05,-0.0,-0.06785074869791667,2.2601,0.6443,1.5316,0.0097,-0.01772,-0.04941,0.0011311967391520739,0.0009998086607083678,0.0009078942821361125,0.0005136588588356972,0.0004990643355995417,0.0004174651112407446,0.00887990277260542,0.0109335295855999,0.011707479134202003,passive,0
0.0409,rehab,medium,80.22115651980434,-666.6334788047631,262.4829228671703,-177.38936920731786,0.13297320837331025,-149.98562536043704,-0.054,-0.0096,0.0078,-22.7575,-3.0292,18.8557,84.42611769874497,30.03381332548538,85.85565245977723,-27.966300116644966,-89.09211052788628,-35.688696967230904,-0.0,-0.05441495687654703,-0.006682896378016708,0.017157660590277776,-0.0,-0.0,2.0287,0.7252,1.4211,0.00865,-0.01133,-0.04516,0.0011311967391520739,0.0009998086607083678,0.0009078942821361125,0.0005136588588356972,0.0004990643355995417,0.0004174651112407446,0.00887990277260542,0.0109335295855999,0.011707479134202003,passive,0
0.0611,rehab,medium,80.22055846375076,-666.6335171197642,262.4831570021345,-177.38934274873304,0.13297548071250945,-149.98568755486528,-0.5744,-0.075,0.4536,-18.5134,-1.6179,14.0531,84.42606331098197,30.033792930074256,85.85565245977723,-27.966300116644966,-89.09209357367621,-35.68868849012587,-0.05441495687654703,0.05441495687654703,0.0039907021097617575,-0.005620320638020833,-0.0,0.06785074869791667,2.2534,0.7363,1.341,0.02464,-0.01147,-0.0519,0.0011311967391520739,0.0009998086607083678,0.0009078942821361125,0.0005136588588356972,0.0004990643355995417,0.0004174651112407446,0.00887990277260542,0.0109335295855999,0.011707479134202003,passive,0
0.0813,rehab,medium,80.21840549533225,-666.6336239794599,262.48421978627306,-177.38927524847244,0.1329067368116896,-149.98588011375008,-1.0398,-0.1129,0.8576,-16.331,-0.4529,12.1617,84.42587975228187,30.03370454995939,85.85564566130685,-27.966300116644966,-89.09211052788628,-35.688680013020836,-0.05441495687654703,-0.0,0.024338523940284653,-0.025058322482638888,-0.0,-0.0,2.061,0.8304,1.1238,0.01787,-0.00506,-0.04496,0.0011311967391520739,0.0009998086607083678,0.0009078942821361125,0.0005136588588356972,0.0004990643355995417,0.0004174651112407446,0.00887990277260542,0.0109335295855999,0.011707479134202003,passive,0
0.101,rehab,medium,80.20751135754378,-666.6340481672202,262.491353510138,-177.38879024996385,0.13256984997881216,-149.9868063564451,-1.3384,-0.1046,1.1064,-15.8089,0.5161,13.337,84.42493476489983,30.033126679977567,85.85555728119199,-27.966223822699654,-89.09210205078125,-35.688696967230904,-0.10882991375309406,-0.05441495687654703,-0.025086355681466582,0.001034206814236111,-0.0,-0.0,2.0686,0.7652,1.4807,0.01635,-0.01041,-0.03954,0.0011311967391520739,0.0009998086607083678,0.0009078942821361125,0.0005136588588356972,0.0004990643355995417,0.0004174651112407446,0.00887990277260542,0.0109335295855999,0.011707479134202003,passive,0
0.1212,rehab,medium,80.15400060870446,-666.6383930366916,262.5355728435986,-177.38580410969618,0.13043322694710946,-149.99127577506465,-1.5123,-0.0649,1.2071,-15.3032,1.521,15.9133,84.42031860351562,30.02996539125348,85.85431316111347,-27.96548631456163,-89.09210205078125,-35.68883260091146,-0.2720815828531095,-0.2176666259765625,-0.07400135002513923,0.035790337456597224,-0.0,-0.0,1.9183,0.8039,0.9549,0.01082,-0.00854,-0.0382,0.0011311967391520739,0.0009998086607083678,0.0009078942821361125,0.0005136588588356972,0.0004990643355995417,0.0004174651112407446,0.00887990277260542,0.0109335295855999,0.011707479134202003,passive,0
0.1409,rehab,medium,80.11187729162407,-666.6426608490735,262.5753295981104,-177.38362813140236,0.12887738584121367,-149.99444512339332,-1.846,-0.0275,1.5169,-16.1344,2.1305,19.9788,84.4166882203357,30.02731398780747,85.85264073740137,-27.963824801974827,-89.09209357367621,-35.68927341037326,-0.2176666259765625,-0.16324487062964108,-0.08168362154818998,0.10426839192708333,-0.0,-0.06785074869791667,2.0058,0.6076,1.1719,-0.00361,-0.0145,-0.05176,0.0011311967391520739,0.0009998086607083678,0.0009078942821361125,0.0005136588588356972,0.0004990643355995417,0.0004174651112407446,0.00887990277260542,0.0109335295855999,0.011707479134202003,passive,0
0.1609,rehab,medium,80.05658892236991,-666.6432940378754,262.6231409453311,-177.38274050785873,0.12814390214398222,-149.99628301955542,-2.1602,0.015,1.9191,-20.5658,2.0717,27.509,84.41187490331065,30.0236972015683,85.85054680852606,-27.959179348415798,-89.09208509657118,-35.692198011610245,-0.16324487062964108,-0.10882991375309406,-0.08129610873685025,0.2712927924262153,-0.06785074869791667,-0.13570149739583334,2.1733,0.7295,2.209,0.01272,-0.01541,-0.04663,0.0011311967391520739,0.0009998086607083678,0.0009078942821361125,0.0005136588588356972,0.0004990643355995417,0.0004174651112407446,0.00887990277260542,0.0109335295855999,0.011707479134202003,passive,0
0.181,rehab,medium,80.03133300176744,-666.6405246523033,262.64516497078426,-177.38402794000893,0.1289813478284087,-149.99518640467684,-2.627,0.0633,2.6074,-28.4788,1.5589,38.0592,84.40963820655747,30.021848017626468,85.84909873433632,-27.954254150390625,-89.09205118815105,-35.69547865125868,-0.16324487062964108,-0.10882991375309406,-0.07633322536355198,0.3425089518229167,0.06785074869791667,-0.2714114718967014,2.1246,0.5865,1.2457,0.01023,-0.01317,-0.0511,0.0011311967391520739,0.0009998086607083678,0.0009078942821361125,0.0005136588588356972,0.0004990643355995417,0.0004174651112407446,0.00887990277260542,0.0109335295855999,0.011707479134202003,passive,0
0.2009,rehab,medium,79.98846636655372,-666.634907730872,262.6835982850778,-177.38737115869452,0.13121109116894347,-149.99188634544666,-3.3981,0.0995,3.657,-39.5932,0.7836,50.443,84.40582426467745,30.018666333491257,85.84598503490486,-27.943742540147568,-89.09196641710069,-35.70248074001736,-0.2176666259765625,-0.16324487062964108,-0.18848079265934406,0.5425177680121528,-0.0,-0.339262220594618,2.1062,0.679,1.5237,0.02884,-0.02101,-0.04273,0.0011311967391520739,0.0009998086607083678,0.0009078942821361125,0.0005136588588356972,0.0004990643355995417,0.0004174651112407446,0.00887990277260542,0.0109335295855999,0.011707479134202003,passive,0
0.2212,rehab,medium,79.92248481141586,-666.6331744710686,262.75253491812975,-177.38912771972772,0.13242124233474914,-149.98962954751622,-4.2052,0.0984,4.7009,-55.5062,0.1291,65.6034,84.40001157250735,30.01367625623646,85.8411445239983,-27.93155246310764,-89.09176296657986,-35.71041531032986,-0.32649653972965653,-0.32649653972965653,-0.29922107658763925,0.7067108154296875,-0.06785074869791667,-0.4749637179904514,2.0815,0.6852,1.2999,0.03627,-0.01858,-0.03661,0.0011311967391520739,0.0009998086607083678,0.0009078942821361125,0.0005136588588356972,0.0004990643355995417,0.0004174651112407446,0.00887990277260542,0.0109335295855999,0.011707479134202003,passive,0
0.2409,rehab,medium,79.80031222474997,-666.6326329602913,262.8936927093529,-177.38935121402596,0.1326542170245611,-149.987552996249,-5.463,0.0791,6.124,-72.3933,-0.3991,79.1913,84.38926998931582,30.00364851243425,85.83246287733022,-27.912165323893227,-89.09132215711806,-35.72301228841146,-0.544163165706219,-0.489748208829672,-0.40206153794090344,0.8831956651475694,0.06785074869791667,-0.6106736924913194,2.1162,0.6908,1.3621,0.02725,-0.01235,-0.04382,0.0011311967391520739,0.0009998086607083678,0.0009078942821361125,0.0005136588588356972,0.0004990643355995417,0.0004174651112407446,0.00887990277260542,0.0109335295855999,0.011707479134202003,passive,0
0.2614,rehab,medium,79.69591220476228,-666.6316241860583,263.01640187839786,-177.38919510339625,0.13257380794914936,-149.98593342702375,-6.9918,0.0644,7.7562,-90.3743,-0.9872,91.2245,84.38009205431041,29.994858090240175,85.82520890944075,-27.895991007486977,-89.09097459581163,-35.73362562391493,-0.5985781225827661,-0.5985781225827661,-0.532462998191909,1.1184438069661458,-0.0,-0.7463751898871528,2.0568,0.6477,1.74,0.0123,-0.01574,-0.04944,0.0011311967391520739,0.0009998086607083678,0.0009078942821361125,0.0005136588588356972,0.0004990643355995417,0.0004174651112407446,0.00887990277260542,0.0109335295855999,0.011707479134202003,passive,0
0.2811,rehab,medium,79.48963446874534,-666.6315106131641,263.24736489846833,-177.38860424829787,0.1322430826624019,-149.98409427559648,-8.9603,0.0338,9.6992,-106.5576,-1.3216,100.5133,84.36198092923306,29.978371799582302,85.81159157328086,-27.86599900987413,-89.09030490451389,-35.753233167860245,-0.87066650390625,-0.7618297916827815,-0.651973308903156,1.3843536376953125,0.06785074869791667,-0.8820851643880208,2.0686,0.7001,1.6302,0.01122,-0.01788,-0.04365,0.0011311967391520739,0.0009998086607083678,0.0009078942821361125,0.0005136588588356972,0.0004990643355995417,0.0004174651112407446,0.00887990277260542,0.0109335295855999,0.011707479134202003,passive,0
0.3015,rehab,medium,79.31405070686645,-666.6328539607769,263.4278310835866,-177.3886117360076,0.13229733333124422,-149.98368885530843,-11.4596,0.0193,12.0266,-123.6623,-1.2988,110.4388,84.34658919230546,29.965522690574723,85.80068682680036,-27.84176296657986,-89.08979627821181,-35.76875474717882,-1.0339181730062654,-0.87066650390625,-0.7420734367748298,1.6199493408203125,-0.0,-1.0177951388888888,1.8744,0.6765,1.6799,0.0078,-0.00873,-0.03995,0.0011311967391520739,0.0009998086607083678,0.0009078942821361125,0.0005136588588356972,0.0004990643355995417,0.0004174651112407446,0.00887990277260542,0.0109335295855999,0.011707479134202003,passive,0
0.3212,rehab,medium,79.11166536173269,-666.6314769616662,263.6388272388212,-177.38847026007826,0.13218991645427344,-149.98332931665522,-14.2167,0.0099,14.4666,-140.8647,-1.0469,122.1122,84.32883158768757,29.950178542939742,85.78855835565246,-27.81395806206597,-89.08926222059462,-35.78655666775173,-1.1971630436359066,-1.0339181730062654,-0.770096731658029,1.8422698974609375,-0.0,-1.153496636284722,2.0943,0.7725,2.1021,0.03184,-0.01925,-0.04014,0.0011311967391520739,0.0009998086607083678,0.0009078942821361125,0.0005136588588356972,0.0004990643355995417,0.0004174651112407446,0.00887990277260542,0.0109335295855999,0.011707479134202003,passive,0
0.341,rehab,medium,78.75036356700487,-666.6268206227145,263.99796959180685,-177.38919889374378,0.13272866489044233,-149.9830725544221,-16.8848,-0.0256,16.6851,-148.1945,-0.5085,127.05,84.29710992492072,29.92368490389078,85.76808136288483,-27.76518079969618,-89.08829583062065,-35.81798129611545,-1.4692514249593904,-1.1427480867593596,-0.9463198822323639,2.193611992730035,0.06785074869791667,-1.4927588568793402,1.8883,0.8493,1.8735,0.01733,-0.0083,-0.03721,0.0011311967391520739,0.0009998086607083678,0.0009078942821361125,0.0005136588588356972,0.0004990643355995417,0.0004174651112407446,0.00887990277260542,0.0109335295855999,0.011707479134202003,passive,0
0.3611,rehab,medium,78.47171139305424,-666.6285257092554,264.27450859963756,-177.3893322232252,0.13286045324935383,-149.9830795697254,-19.6848,-0.0442,18.9541,-142.4659,0.4272,122.5101,84.27268981933594,29.903921750512453,85.75145230434909,-27.72791544596354,-89.08754136827257,-35.841971503363716,-1.5236663818359375,-1.305999755859375,-1.116363223236386,2.4158223470052085,0.06785074869791667,-1.6284688313802083,1.8912,0.7061,1.3949,0.01069,-0.02484,-0.04041,0.0011311967391520739,0.0009998086607083678,0.0009078942821361125,0.0005136588588356972,0.0004990643355995417,0.0004174651112407446,0.00887990277260542,0.0109335295855999,0.011707479134202003,passive,0
0.3812,rehab,medium,77.89641858818591,-666.632803885335,264.8306062455348,-177.3896434956954,0.13315275411413433,-149.98355770835343,-22.8391,-0.0349,21.6237,-131.5768,1.2834,114.7915,84.22228595998027,29.86417789270382,85.71799703163676,-27.652884589301216,-89.08599853515625,-35.89104546440972,-1.9589996337890625,-1.5236663818359375,-1.2366825519221845,2.906036376953125,0.13570149739583334,-1.8998803032769096,1.8495,0.8686,1.7323,0.02081,-0.0155,-0.03778,0.0011311967391520739,0.0009998086607083678,0.0009078942821361125,0.0005136588588356972,0.0004990643355995417,0.0004174651112407446,0.00887990277260542,0.0109335295855999,0.011707479134202003,passive,0
0.4009,rehab,medium,77.52605092337771,-666.631751637118,265.180568128615,-177.39054419737045,0.13381775030871476,-149.98334922919506,-25.7164,-0.0051,24.2014,-119.7654,1.6053,106.8033,84.18980286853149,29.838738016562885,85.69732968169863,-27.60473463270399,-89.08500671386719,-35.923190646701386,-2.176666259765625,-1.6325030940594059,-1.3411274522838026,3.1577894422743054,0.06785074869791667,-2.0355902777777777,1.78,0.6645,1.9023,0.00068,-0.01619,-0.04601,0.0011311967391520739,0.0009998086607083678,0.0009078942821361125,0.0005136588588356972,0.0004990643355995417,0.0004174651112407446,0.00887990277260542,0.0109335295855999,0.011707479134202003,passive,0
0.4209,rehab,medium,76.89640162697964,-666.6357658156597,265.76626184454034,-177.39083476874677,0.13400426352855846,-149.98366297871453,-28.3069,0.0441,26.6414,-105.7472,1.4585,96.5162,84.13464687838413,29.796723469649212,85.66238554397432,-27.525880601671005,-89.08337910970052,-35.97713894314236,-2.3943328857421875,-1.795747964689047,-1.45629354042582,3.4397379557291665,0.06785074869791667,-2.4427032470703125,1.8569,0.7762,1.2562,0.02526,-0.01254,-0.03366,0.0011311967391520739,0.0009998086607083678,0.0009078942821361125,0.0005136588588356972,0.0004990643355995417,0.0004174651112407446,0.00887990277260542,0.0109335295855999,0.011707479134202003,passive,0
0.441,rehab,medium,76.43063247018297,-666.633508177291,266.1875865278399,-177.39151775156088,0.13455550902754637,-149.98463990935747,-29.4498,0.114,27.8065,-89.9824,0.7455,83.3883,84.09379486990447,29.765838018738396,85.63811500473778,-27.468719482421875,-89.08213297526042,-36.01636250813802,-2.7208362239422184,-2.067836346012531,-1.5204371084081065,3.713438245985243,0.13570149739583334,-2.5784132215711804,1.7049,0.7612,1.9386,0.02129,-0.01697,-0.03798,0.0011311967391520739,0.0009998086607083678,0.0009078942821361125,0.0005136588588356972,0.0004990643355995417,0.0004174651112407446,0.00887990277260542,0.0109335295855999,0.011707479134202003,passive,0
0.4613,rehab,medium,75.69088492526278,-666.6289897454485,266.88193054155244,-177.3915150146884,0.1345611007135042,-149.98464705534943,-30.7141,0.1461,29.0072,-82.9881,-0.3038,76.5199,84.028903470181,29.7152845930345,85.59809920811416,-27.376310560438366,-89.08017476399739,-36.08019510904948,-2.8296661376953125,-2.2310880151125465,-1.7817771080696936,3.9645131429036455,0.13570149739583334,-2.8498246934678817,1.7645,0.6653,1.7966,0.01853,-0.0274,-0.0352,0.0011311967391520739,0.0009998086607083678,0.0009078942821361125,0.0005136588588356972,0.0004990643355995417,0.0004174651112407446,0.00887990277260542,0.0109335295855999,0.011707479134202003,passive,0
0.4814,rehab,medium,75.16564904735885,-666.6237252271598,267.3869542034731,-177.3909715188975,0.1341252448449538,-149.98377842583878,-32.8418,0.0927,30.9048,-93.1327,-1.1985,83.607,83.9828098410427,29.678525263720218,85.56924649984529,-27.310061984592014,-89.07879299587674,-36.12640380859375,-2.992917806795328,-2.3943328857421875,-1.891966715897664,4.281751844618055,0.06785074869791667,-3.121236165364583,1.7384,0.7795,1.8527,0.02758,-0.01504,-0.03502,0.0011311967391520739,0.0009998086607083678,0.0009078942821361125,0.0005136588588356972,0.0004990643355995417,0.0004174651112407446,0.00887990277260542,0.0109335295855999,0.011707479134202003,passive,0
0.5012,rehab,medium,74.32927347769223,-666.619567344338,268.198275918034,-177.38935827949402,0.13292386543138535,-149.98186294425744,-34.7279,0.0277,32.5282,-107.4525,-1.7908,93.9972,83.90944074876238,29.620262372611773,85.52193594450998,-27.204360961914062,-89.07654656304253,-36.20048522949219,-3.1561694758953434,-2.61199951171875,-2.0911958902189047,4.4653574625651045,0.06785074869791667,-3.1890869140625,1.7614,0.8335,1.8226,0.04404,-0.02403,-0.03076,0.0011311967391520739,0.0009998086607083678,0.0009078942821361125,0.0005136588588356972,0.0004990643355995417,0.0004174651112407446,0.00887990277260542,0.0109335295855999,0.011707479134202003,passive,0
0.521,rehab,medium,73.72944512817655,-666.6194873802743,268.7613001177204,-177.38912637108467,0.1327364420443255,-149.98152074673646,-36.4924,-0.0339,34.021,-119.7168,-1.9504,103.6765,83.85685458041654,29.58019218822517,85.48810675592706,-27.129253811306423,-89.07496982150607,-36.25256008572048,-3.319421144995359,-2.557584554842203,-2.1403488310256806,4.675242106119792,0.06785074869791667,-3.324796888563368,1.6739,0.7363,1.4061,0.0301,-0.01629,-0.02864,0.0011311967391520739,0.0009998086607083678,0.0009078942821361125,0.0005136588588356972,0.0004990643355995417,0.0004174651112407446,0.00887990277260542,0.0109335295855999,0.011707479134202003,passive,0
0.5412,rehab,medium,73.1036766823464,-666.6236149743471,269.335438927047,-177.38968412753042,0.13313131976005985,-149.9809722566536,-38.9174,-0.0741,36.1389,-130.9314,-1.4424,114.6169,83.80203171531753,29.53991125125696,85.45228561552445,-27.050891452365452,-89.07331678602431,-36.30704243977865,-3.482672814095374,-2.6664212670656715,-2.34811008566677,5.016360812717013,0.06785074869791667,-3.4604983859592013,1.7178,0.8053,2.3274,0.02677,-0.01263,-0.03696,0.0011311967391520739,0.0009998086607083678,0.0009078942821361125,0.0005136588588356972,0.0004990643355995417,0.0004174651112407446,0.00887990277260542,0.0109335295855999,0.011707479134202003,passive,0
0.5616,rehab,medium,72.10277460389312,-666.6309358082362,270.24007382314966,-177.39042123754638,0.13369789665531626,-149.9817354916276,-42.8651,-0.066,39.6396,-135.7193,-0.4202,121.2524,83.7143586413695,29.476651484423343,85.3955863726021,-26.92752414279514,-89.07068888346355,-36.392550998263886,-3.5915027278484684,-2.7208362239422184,-2.4965818801728807,5.259501139322917,0.13570149739583334,-3.664059109157986,1.5788,0.8677,2.4694,0.03097,-0.02157,-0.03265,0.0011311967391520739,0.0009998086607083678,0.0009078942821361125,0.0005136588588356972,0.0004990643355995417,0.0004174651112407446,0.00887990277260542,0.0109335295855999,0.011707479134202003,passive,0
0.5809,rehab,medium,71.40622783665633,-666.6335056064711,270.87631294761525,-177.390481679319,0.13371893783285108,-149.98243339103524,-45.4433,-0.0524,41.9054,-123.5824,0.2989,112.6569,83.65332877281868,29.432121503471148,85.3560192750232,-26.841642591688366,-89.06890021430121,-36.45190768771701,-3.809169353825031,-2.7752511808187657,-2.443159499970993,5.4971059163411455,0.13570149739583334,-3.7319098578559027,1.6339,0.6017,1.993,0.02665,-0.02471,-0.03279,0.0011311967391520739,0.0009998086607083678,0.0009078942821361125,0.0005136588588356972,0.0004990643355995417,0.0004174651112407446,0.00887990277260542,0.0109335295855999,0.011707479134202003,passive,0
0.6012,rehab,medium,70.32674350667031,-666.6302217333617,271.8807882571882,-177.3896265353902,0.13306588477431813,-149.98337911523228,-46.9607,-0.0438,43.3131,-94.5466,0.565,89.0446,83.55867366979618,29.361451403929454,85.29463588601291,-26.707984076605904,-89.0661112467448,-36.54409620496962,-3.918006066048499,-3.047339562142249,-2.515495224754409,5.628043280707465,0.06785074869791667,-3.9354705810546875,1.629,0.7111,2.1834,0.0303,-0.02615,-0.0357,0.0011311967391520739,0.0009998086607083678,0.0009078942821361125,0.0005136588588356972,0.0004990643355995417,0.0004174651112407446,0.00887990277260542,0.0109335295855999,0.011707479134202003,passive,0
0.6212,rehab,medium,69.39865386339387,-666.627879694916,272.75505172397004,-177.3882072728641,0.13205188895841816,-149.9838811142045,-49.0257,-0.0289,45.3412,-51.6143,0.5771,52.6562,83.47728918094447,29.300462326200883,85.24069002359221,-26.59247504340278,-89.06366136338976,-36.62366231282552,-4.135672692025062,-3.047339562142249,-2.6677061779664295,5.904693603515625,0.13570149739583334,-3.7319098578559027,1.4999,0.6538,1.3218,0.01777,-0.02081,-0.03038,0.0011311967391520739,0.0009998086607083678,0.0009078942821361125,0.0005136588588356972,0.0004990643355995417,0.0004174651112407446,0.00887990277260542,0.0109335295855999,0.011707479134202003,passive,0
0.6414,rehab,medium,68.26536502158416,-666.6237220726043,273.81460005585456,-177.38837923035575,0.1321691716329889,-149.98372403625393,-50.6969,-0.0087,47.0719,-8.6247,0.3556,16.1805,83.37789554407101,29.226991256864945,85.17375228428604,-26.449000040690102,-89.06069437662761,-36.721581353081596,-4.298924361125077,-3.1017545190187965,-2.8585800321975556,6.246541341145833,0.20355224609375,-4.139031304253472,1.6237,0.7713,2.3066,0.03022,-0.03275,-0.0355,0.0011311967391520739,0.0009998086607083678,0.0009078942821361125,0.0005136588588356972,0.0004990643355995417,0.0004174651112407446,0.00887990277260542,0.0109335295855999,0.011707479134202003,passive,0
0.6609,rehab,medium,67.49220165781837,-666.6276888179059,274.5202046270412,-177.38960563949928,0.1330479494907831,-149.9841643303166,-49.919,-0.0143,46.4972,8.9896,0.1937,1.9621,83.31016238373105,29.17910963001818,85.12697200963993,-26.350894504123264,-89.05871921115451,-36.78776211208767,-4.190087648901609,-3.1561694758953434,-2.8944963511854116,6.1824798583984375,0.13570149739583334,-4.206882052951388,1.5889,0.7866,2.0129,0.03075,-0.01994,-0.02961,0.0011311967391520739,0.0009998086607083678,0.0009078942821361125,0.0005136588588356972,0.0004990643355995417,0.0004174651112407446,0.00887990277260542,0.0109335295855999,0.011707479134202003,passive,0
0.6813,rehab,medium,66.32334934785443,-666.6330804091273,275.5989863668914,-177.39147178101058,0.1344285350872616,-149.98395174578258,-48.8054,-0.0318,45.656,12.4353,0.2542,-0.0994,83.20775022601137,29.10646117559754,85.05458189709351,-26.200578477647568,-89.05568440755208,-36.88868204752604,-4.298924361125077,-3.2650061881188117,-2.9753981486405476,6.354666815863715,0.13570149739583334,-4.206882052951388,1.474,0.6662,1.834,0.01334,-0.02657,-0.03266,0.0011311967391520739,0.0009998086607083678,0.0009078942821361125,0.0005136588588356972,0.0004990643355995417,0.0004174651112407446,0.00887990277260542,0.0109335295855999,0.011707479134202003,passive,0
0.701,rehab,medium,65.52883172314154,-666.6362234554424,276.3358548343228,-177.3921998757237,0.13498942354512888,-149.9841283919079,-47.6198,-0.0197,44.8294,11.6097,0.3359,1.2135,83.13813388937771,29.057077086798035,85.00502784653466,-26.098717583550346,-89.05361599392361,-36.95696512858073,-4.353339318001624,-3.1017545190187965,-3.1911272105604116,6.565348307291666,0.20355224609375,-4.274732801649305,1.4331,0.6722,1.7419,0.03489,-0.02633,-0.02524,0.0011311967391520739,0.0009998086607083678,0.0009078942821361125,0.0005136588588356972,0.0004990643355995417,0.0004174651112407446,0.00887990277260542,0.0109335295855999,0.011707479134202003,passive,0
0.7212,rehab,medium,64.31997395931876,-666.6326957846752,277.4803651403305,-177.39171226483376,0.13466088325610662,-149.9862787272949,-46.934,-0.009,44.4087,3.116,0.339,8.3651,83.03213893777072,28.979934843459933,84.92960561620127,-25.943739149305554,-89.05052185058594,-37.05904642740885,-4.516590987101639,-3.2105844327718907,-3.156964896929146,6.399756537543403,0.13570149739583334,-4.206882052951388,1.4338,0.8214,2.3683,0.04062,-0.02716,-0.03121,0.0011311967391520739,0.0009998086607083678,0.0009078942821361125,0.0005136588588356972,0.0004990643355995417,0.0004174651112407446,0.00887990277260542,0.0109335295855999,0.011707479134202003,passive,0
0.7414,rehab,medium,63.5074279556911,-666.630599624934,278.26415411857806,-177.38991912943123,0.13333872170663766,-149.9874012572093,-49.0288,-0.0025,46.5412,-18.7858,0.285,26.5677,82.9608977667176,28.92749824146233,84.87802562147084,-25.839920043945312,-89.04842800564236,-37.127982245551216,-4.462176030225093,-3.373836101871906,-3.164470408222463,6.4138031005859375,0.13570149739583334,-4.274732801649305,1.3927,0.6528,1.9054,0.01782,-0.02532,-0.02846,0.0011311967391520739,0.0009998086607083678,0.0009078942821361125,0.0005136588588356972,0.0004990643355995417,0.0004174651112407446,0.00887990277260542,0.0109335295855999,0.011707479134202003,passive,0
0.7611,rehab,medium,62.703834902127454,-666.628518507789,279.03848924442264,-177.38898743586813,0.13264403017805665,-149.98775568191206,-49.8945,0.0158,47.4698,-43.82,0.0164,43.938,82.8904384197575,28.87607461155051,84.82608530781057,-25.735685560438366,-89.04635111490886,-37.196901109483505,-4.4077542748781715,-3.2105844327718907,-3.2705265460628095,6.488825480143229,0.20355224609375,-4.274732801649305,1.3997,0.5967,2.3501,0.01487,-0.03411,-0.03271,0.0011311967391520739,0.0009998086607083678,0.0009078942821361125,0.0005136588588356972,0.0004990643355995417,0.0004174651112407446,0.00887990277260542,0.0109335295855999,0.011707479134202003,passive,0
0.7813,rehab,medium,61.512809087648236,-666.6280889196435,280.1770271441918,-177.38963587213215,0.13315162419713006,-149.98676261163772,-50.3089,0.0209,47.9719,-54.306,-0.5129,44.1647,82.78602751174776,28.80146819766205,84.7471822606455,-25.57829115125868,-89.04323154025607,-37.300516764322914,-4.516590987101639,-3.1017545190187965,-3.2549240565536044,6.710984971788195,0.13570149739583334,-4.206882052951388,1.3741,0.6285,2.1197,0.02633,-0.01688,-0.02896,0.0011311967391520739,0.0009998086607083678,0.0009078942821361125,0.0005136588588356972,0.0004990643355995417,0.0004174651112407446,0.00887990277260542,0.0109335295855999,0.011707479134202003,passive,0
0.8012,rehab,medium,60.71055446619817,-666.6299669403943,280.92755522372505,-177.39056221964861,0.13387757962760927,-149.98703304879572,-51.0725,0.0053,48.5493,-40.0799,-0.8044,21.2132,82.71573132807666,28.75277075437036,84.69418138560683,-25.473378499348957,-89.04115464952257,-37.36935085720486,-4.4077542748781715,-3.047339562142249,-3.2883453369140625,6.6494496663411455,0.13570149739583334,-4.47829352484809,1.2113,0.5476,1.4786,0.02918,-0.02144,-0.02607,0.0011311967391520739,0.0009998086607083678,0.0009078942821361125,0.0005136588588356972,0.0004990643355995417,0.0004174651112407446,0.00887990277260542,0.0109335295855999,0.011707479134202003,passive,0
0.8212,rehab,medium,59.29044712247865,-666.6357668584222,282.24462226604635,-177.39059539887958,0.1338851044104142,-149.98829414727206,-51.4543,-0.0227,48.4824,-3.5594,-0.6383,-21.9876,82.59135331257735,28.667946239509206,84.60095396136293,-25.291705661349827,-89.03754340277777,-37.49040391710069,-4.353339318001624,-2.992917806795328,-3.3194891296991025,6.419160630967882,0.13570149739583334,-4.274732801649305,1.4433,0.6887,2.4422,0.04197,-0.03016,-0.02525,0.0011311967391520739,0.0009998086607083678,0.0009078942821361125,0.0005136588588356972,0.0004990643355995417,0.0004174651112407446,0.00887990277260542,0.0109335295855999,0.011707479134202003,passive,0
0.8413,rehab,medium,58.49645496822585,-666.6341977211567,283.00088283506943,-177.3898355348931,0.13331912121551984,-149.9875946558922,-52.5454,-0.0533,48.7784,24.5629,-0.292,-58.7263,82.52175057288444,28.61914002069152,84.54798028020575,-25.188819037543404,-89.03545803493924,-37.55953470865885,-4.298924361125077,-3.047339562142249,-3.3489537003016707,6.425738864474826,0.06785074869791667,-4.071180555555555,1.4323,0.5544,2.6688,0.03832,-0.0345,-0.02867,0.0011311967391520739,0.0009998086607083678,0.0009078942821361125,0.0005136588588356972,0.0004990643355995417,0.0004174651112407446,0.00887990277260542,0.0109335295855999,0.011707479134202003,passive,0
0.8611,rehab,medium,57.31472254030829,-666.6305653633522,284.1154564011658,-177.38848654033202,0.13228192060228014,-149.98550059670222,-52.559,-0.0741,47.7117,35.4685,0.1959,-80.413,82.41814868284924,28.5473889643603,84.46975708007812,-25.037451850043404,-89.03232998318143,-37.66350640190972,-4.244502605778156,-2.8296661376953125,-3.284714953734143,6.2392934163411455,0.13570149739583334,-4.206882052951388,1.5376,0.6058,2.5485,0.04726,-0.03158,-0.02974,0.0011311967391520739,0.0009998086607083678,0.0009078942821361125,0.0005136588588356972,0.0004990643355995417,0.0004174651112407446,0.00887990277260542,0.0109335295855999,0.011707479134202003,passive,0
0.8809,rehab,medium,56.533254134266485,-666.6292957619256,284.834135108738,-177.38823574310618,0.1320964336508266,-149.98392394478063,-50.4114,-0.0527,44.847,43.4053,0.875,-96.1665,82.34965409382735,28.501458498510985,84.41850341192567,-24.938524034288193,-89.03024461534288,-37.73245069715712,-4.298924361125077,-2.7208362239422184,-3.25695000072517,6.122843424479166,0.13570149739583334,-4.139031304253472,1.4048,0.5718,2.1667,0.03621,-0.0232,-0.02684,0.0011311967391520739,0.0009998086607083678,0.0009078942821361125,0.0005136588588356972,0.0004990643355995417,0.0004174651112407446,0.00887990277260542,0.0109335295855999,0.011707479134202003,passive,0
0.901,rehab,medium,55.328501059445564,-666.6331955035948,285.871024622058,-177.38906154921202,0.1327370695520103,-149.98409565004877,-48.0489,0.0005,41.6006,42.7891,1.4005,-101.0745,82.24416222902808,28.435730886931466,84.34314236782565,-24.793294270833332,-89.02710808648003,-37.83611721462673,-4.244502605778156,-2.61199951171875,-3.0525471904490256,5.970145331488715,0.20355224609375,-4.342592027452257,1.3045,0.4832,2.1935,0.02315,-0.02641,-0.02847,0.0011311967391520739,0.0009998086607083678,0.0009078942821361125,0.0005136588588356972,0.0004990643355995417,0.0004174651112407446,0.00887990277260542,0.0109335295855999,0.011707479134202003,passive,0
0.9212,rehab,medium,54.52281977881133,-666.637751420328,286.5441864478732,-177.38926662365972,0.13286632411968965,-149.9845384240637,-47.0833,0.0386,39.4682,36.1206,1.3979,-99.7605,82.17365529277536,28.393335625676826,84.29394183772625,-24.699393378363716,-89.02503967285156,-37.90511237250434,-4.4077542748781715,-2.6664212670656715,-3.027535617941677,5.690366956922743,0.13570149739583334,-4.342592027452257,1.289,0.5266,1.7209,0.0406,-0.0388,-0.02128,0.0011311967391520739,0.0009998086607083678,0.0009078942821361125,0.0005136588588356972,0.0004990643355995417,0.0004174651112407446,0.00887990277260542,0.0109335295855999,0.011707479134202003,passive,0
0.9412,rehab,medium,53.31364901393887,-666.6387776733628,287.52551217227483,-177.38941200373694,0.13300686274903,-149.98521910982623,-48.0115,0.0514,38.6485,17.5335,0.7363,-88.8685,82.06777591516476,28.33089847375851,84.22330573053644,-24.563013712565102,-89.02186075846355,-38.00875345865885,-4.353339318001624,-2.61199951171875,-2.7812270362778464,5.44570075141059,0.06785074869791667,-4.410442776150173,1.3677,0.4169,1.4419,0.03872,-0.05262,-0.02153,0.0011311967391520739,0.0009998086607083678,0.0009078942821361125,0.0005136588588356972,0.0004990643355995417,0.0004174651112407446,0.00887990277260542,0.0109335295855999,0.011707479134202003,passive,0
0.9612,rehab,medium,52.523135912939104,-666.6349377556733,288.15416074690916,-177.38965615908043,0.1332348742409827,-149.9844141748635,-48.182,0.0684,37.3336,-19.8391,-0.5127,-63.7784,81.99849950204981,28.290481567382812,84.1786533771175,-24.475538465711804,-89.01971605088976,-38.07783338758681,-4.190087648901609,-2.557584554842203,-2.7694180932375465,5.321290757921007,0.13570149739583334,-4.206882052951388,1.2895,0.4262,1.9483,0.04544,-0.03778,-0.02277,0.0011311967391520739,0.0009998086607083678,0.0009078942821361125,0.0005136588588356972,0.0004990643355995417,0.0004174651112407446,0.00887990277260542,0.0109335295855999,0.011707479134202003,passive,0
0.9813,rehab,medium,51.7387923400853,-666.6283974541554,288.76676484426554,-177.38944596246478,0.13311337651670752,-149.98401720819086,-48.615,0.0678,36.2697,-51.898,-1.7663,-43.9741,81.92973977268332,28.2507581049853,84.13589779693301,-24.391250610351562,-89.01758829752605,-38.14602322048611,-4.298924361125077,-2.2855029719890934,-2.6772172380201886,5.1666259765625,0.13570149739583334,-4.47829352484809,1.2677,0.5582,2.7278,0.0352,-0.02988,-0.02795,0.0011311967391520739,0.0009998086607083678,0.0009078942821361125,0.0005136588588356972,0.0004990643355995417,0.0004174651112407446,0.00887990277260542,0.0109335295855999,0.011707479134202003,passive,0
1.0009,rehab,medium,50.54609789726158,-666.6252068256339,289.6461425230248,-177.38882040482588,0.1325214366842157,-149.98373908899694,-49.394,0.0161,35.2558,-58.3289,-2.1248,-39.6008,81.82530846926245,28.194222025351948,84.07389574711866,-24.270460340711804,-89.0144771999783,-38.24935065375434,-4.4077542748781715,-2.2855029719890934,-2.526427165116414,5.1094818115234375,0.13570149739583334,-4.274732801649305,1.2342,0.4732,2.2115,0.02312,-0.02108,-0.02822,0.0011311967391520739,0.0009998086607083678,0.0009078942821361125,0.0005136588588356972,0.0004990643355995417,0.0004174651112407446,0.00887990277260542,0.0109335295855999,0.011707479134202003,passive,0
1.0212,rehab,medium,49.744794947932085,-666.625910613757,290.20382429478616,-177.3887306353464,0.13245097879261994,-149.98405152503233,-49.9462,-0.0554,33.9144,-45.8295,-1.5358,-43.013,81.75518904582108,28.15859124211982,84.03404311378404,-24.193013509114582,-89.01234096950955,-38.31826951768663,-4.462176030225093,-2.176666259765625,-2.511654088992884,4.827999538845486,0.13570149739583334,-4.342592027452257,1.2099,0.4992,1.8365,0.0386,-0.03185,-0.02588,0.0011311967391520739,0.0009998086607083678,0.0009078942821361125,0.0005136588588356972,0.0004990643355995417,0.0004174651112407446,0.00887990277260542,0.0109335295855999,0.011707479134202003,passive,0
1.0413,rehab,medium,48.343312254984134,-666.6317106688732,291.1356336683677,-177.3883725782811,0.13213142841494555,-149.98381502597084,-51.9392,-0.12,33.5918,-29.0789,-0.4847,-45.7387,81.63263302038212,28.099512534566443,83.96679264484065,-24.063500298394096,-89.0085940890842,-38.439576890733505,-4.244502605778156,-2.176666259765625,-2.3484432107151143,4.688508775499132,0.13570149739583334,-4.206882052951388,1.0333,0.4156,2.2737,0.02521,-0.03046,-0.02286,0.0011311967391520739,0.0009998086607083678,0.0009078942821361125,0.0005136588588356972,0.0004990643355995417,0.0004174651112407446,0.00887990277260542,0.0109335295855999,0.011707479134202003,passive,0
1.0611,rehab,medium,47.737482737299516,-666.6356071245727,291.5175082095508,-177.38841687976637,0.13219060328764,-149.98406904407926,-53.3975,-0.143,33.2913,-6.8413,0.79,-47.3397,81.57967973463606,28.07541875555964,83.93893251324644,-24.009899563259548,-89.00694953070746,-38.49166022406684,-4.298924361125077,-1.9589996337890625,-2.2554197405824565,4.388936360677083,0.20355224609375,-4.614003499348958,1.0519,0.3637,1.4593,0.02821,-0.04509,-0.02088,0.0011311967391520739,0.0009998086607083678,0.0009078942821361125,0.0005136588588356972,0.0004990643355995417,0.0004174651112407446,0.00887990277260542,0.0109335295855999,0.011707479134202003,passive,0
1.0811,rehab,medium,46.325144550967615,-666.6416775601747,292.3742796691109,-177.38923045417422,0.13288026856529,-149.98519003531308,-52.6823,-0.0825,31.7911,22.6883,1.8747,-51.4261,81.4562195126373,28.02106498491646,83.87655654756149,-23.888439602322048,-89.00313483344183,-38.61260308159722,-4.4077542748781715,-1.8501697200359684,-2.0953497556176517,4.329181247287326,0.13570149739583334,-4.139031304253472,0.9861,0.3578,1.2627,0.02455,-0.02975,-0.02032,0.0011311967391520739,0.0009998086607083678,0.0009078942821361125,0.0005136588588356972,0.0004990643355995417,0.0004174651112407446,0.00887990277260542,0.0109335295855999,0.011707479134202003,passive,0
1.1013,rehab,medium,45.51701002455235,-666.6414777161597,292.84475011158804,-177.39019902578622,0.13361246119585818,-149.98588734561835,-51.4948,0.0171,30.6366,43.0258,2.1411,-52.0894,81.3855494130956,27.990811791750463,83.84271376203782,-23.821029663085938,-89.00099860297308,-38.68180168999566,-4.462176030225093,-1.9045846769125154,-2.183573505665996,4.2411549886067705,0.13570149739583334,-4.342592027452257,0.8391,0.3448,1.0652,0.02685,-0.02745,-0.0136,0.0011311967391520739,0.0009998086607083678,0.0009078942821361125,0.0005136588588356972,0.0004990643355995417,0.0004174651112407446,0.00887990277260542,0.0109335295855999,0.011707479134202003,passive,0
1.1209,rehab,medium,44.29800664474446,-666.6368414826861,293.5492037319078,-177.3909825885523,0.1342028355835915,-149.98739351251245,-49.9298,0.0887,29.4888,51.3549,1.45,-49.549,81.27890860680306,27.945132869304995,83.7929625558381,-23.72145758734809,-88.99776882595486,-38.785790337456596,-4.462176030225093,-1.9045846769125154,-2.0547764844233445,4.093873765733507,0.20355224609375,-4.410442776150173,0.7878,0.3545,2.0139,0.02789,-0.0322,-0.01244,0.0011311967391520739,0.0009998086607083678,0.0009078942821361125,0.0005136588588356972,0.0004990643355995417,0.0004174651112407446,0.00887990277260542,0.0109335295855999,0.011707479134202003,passive,0
1.141,rehab,medium,43.48836731592969,-666.6353049675807,294.03058669845717,-177.38977895353318,0.13323502134791648,-149.9883527292965,-48.6231,0.117,28.5246,43.551,0.2045,-41.7832,81.20810933632426,27.914301806157177,83.75918095654781,-23.656285603841145,-88.995607164171,-38.854878743489586,-4.4077542748781715,-1.9045846769125154,-2.058066944084545,4.014129638671875,0.06785074869791667,-4.47829352484809,0.8139,0.413,2.2325,0.02557,-0.02763,-0.01544,0.0011311967391520739,0.0009998086607083678,0.0009078942821361125,0.0005136588588356972,0.0004990643355995417,0.0004174651112407446,0.00887990277260542,0.0109335295855999,0.011707479134202003,passive,0
1.1608,rehab,medium,42.30147249933254,-666.6297806341923,294.7459572035299,-177.3880896963292,0.13189705031232477,-149.98718449428273,-47.6088,0.0922,27.6688,13.9817,-1.0147,-23.744,81.10426949982596,27.868568495948715,83.70879749260327,-23.559154934353298,-88.99233500162761,-38.9587656656901,-4.190087648901609,-1.9045846769125154,-2.154788782100866,4.076173570421007,0.06785074869791667,-4.274732801649305,0.779,0.2052,1.6026,0.01468,-0.02535,-0.01864,0.0011311967391520739,0.0009998086607083678,0.0009078942821361125,0.0005136588588356972,0.0004990643355995417,0.0004174651112407446,0.00887990277260542,0.0109335295855999,0.011707479134202003,passive,0
1.1812,rehab,medium,41.51895247460133,-666.6272852244202,295.21091507686344,-177.38738681730237,0.13133934430404265,-149.98587387403882,-47.7375,0.0112,27.2277,-19.7728,-1.6474,-3.9348,81.03582929856707,27.839178708520265,83.67532862295019,-23.495084974500866,-88.99016486273871,-39.02777777777778,-4.353339318001624,-1.686918050935953,-2.0807058504312343,4.079835679796007,0.13570149739583334,-4.274732801649305,0.9804,0.2348,1.687,0.02936,-0.03326,-0.01847,0.0011311967391520739,0.0009998086607083678,0.0009078942821361125,0.0005136588588356972,0.0004990643355995417,0.0004174651112407446,0.00887990277260542,0.0109335295855999,0.011707479134202003,passive,0
1.2012,rehab,medium,40.723368180874814,-666.630160099284,295.670799740506,-177.38699563158147,0.13102723583267956,-149.98536939802855,-49.4409,-0.0686,27.843,-38.5284,-1.2171,9.1152,80.96633533440014,27.810849482470218,83.64090116897432,-23.430709838867188,-88.98799472384982,-39.09703572591146,-4.353339318001624,-1.686918050935953,-2.1512807713876856,4.066806369357638,0.13570149739583334,-4.206882052951388,0.7172,0.2848,1.72,0.02634,-0.03395,-0.00987,0.0011311967391520739,0.0009998086607083678,0.0009078942821361125,0.0005136588588356972,0.0004990643355995417,0.0004174651112407446,0.00887990277260542,0.0109335295855999,0.011707479134202003,passive,0
1.2212,rehab,medium,39.510940708067146,-666.6338833869663,296.33069667346024,-177.3886204303414,0.1323416337690019,-149.98615968814656,-49.9991,-0.0852,27.839,-39.5509,-0.0782,16.0862,80.86044915831916,27.77026941280554,83.59034774327041,-23.334299723307293,-88.98474799262152,-39.2010243733724,-4.571005943978187,-1.686918050935953,-2.10338554760017,4.0750376383463545,0.20355224609375,-4.206882052951388,0.7843,0.2346,1.9414,0.02781,-0.02638,-0.01339,0.0011311967391520739,0.0009998086607083678,0.0009078942821361125,0.0005136588588356972,0.0004990643355995417,0.0004174651112407446,0.00887990277260542,0.0109335295855999,0.011707479134202003,passive,0
1.2414,rehab,medium,38.69621285071116,-666.6354784735631,296.76789584333875,-177.38982530841872,0.13326854195960067,-149.98803586169393,-51.5237,-0.0497,28.5326,-35.1012,1.1554,21.2921,80.78930996432163,27.74342905176748,83.55674970268022,-23.270238240559895,-88.98265414767795,-39.26955329047309,-4.462176030225093,-1.6325030940594059,-2.16024115534112,3.970506456163194,0.06785074869791667,-4.274732801649305,0.7562,0.2866,1.8771,0.02532,-0.03093,-0.01279,0.0011311967391520739,0.0009998086607083678,0.0009078942821361125,0.0005136588588356972,0.0004990643355995417,0.0004174651112407446,0.00887990277260542,0.0109335295855999,0.011707479134202003,passive,0
1.2609,rehab,medium,37.281779807473676,-666.6397547583083,297.53430629768764,-177.391511975183,0.1346364074973616,-149.9892371493652,-52.2097,0.0072,29.0698,-18.6703,1.8607,17.6722,80.66582934691174,27.697049886873454,83.4969707526783,-23.158187866210938,-88.97889879014757,-39.39054701063368,-4.298924361125077,-1.686918050935953,-2.140586777488784,4.071036444769965,0.13570149739583334,-4.410442776150173,0.6395,0.1844,1.9134,0.02139,-0.02558,-0.01787,0.0011311967391520739,0.0009998086607083678,0.0009078942821361125,0.0005136588588356972,0.0004990643355995417,0.0004174651112407446,0.00887990277260542,0.0109335295855999,0.011707479134202003,passive,0
1.2811,rehab,medium,36.489724659203716,-666.6381741596307,297.98624481533864,-177.39127987405888,0.13451837019799692,-149.98854552370415,-51.9666,0.0805,29.2938,11.2261,1.6179,1.4789,80.59662091850053,27.66953647726833,83.46257049258392,-23.094397650824654,-88.97669474283855,-39.45971171061198,-4.4077542748781715,-1.686918050935953,-2.131578804242729,4.04264662000868,0.13570149739583334,-4.47829352484809,0.6631,0.2779,1.8747,0.03608,-0.03275,-0.00997,0.0011311967391520739,0.0009998086607083678,0.0009078942821361125,0.0005136588588356972,0.0004990643355995417,0.0004174651112407446,0.00887990277260542,0.0109335295855999,0.011707479134202003,passive,0
1.3012,rehab,medium,35.315238772913354,-666.6331400988165,298.6729580815992,-177.390292379629,0.1337646882577864,-149.98611232858497,-50.6284,0.1235,28.8978,27.1713,0.4807,-11.6809,80.49397081431776,27.627827861521503,83.41048061257541,-22.998631795247395,-88.97342258029514,-39.56369188096788,-4.298924361125077,-1.795747964689047,-2.1758912341429455,3.9067501491970487,0.13570149739583334,-4.274732801649305,0.4361,0.302,1.7133,0.02125,-0.0074,-0.00503,0.0011311967391520739,0.0009998086607083678,0.0009078942821361125,0.0005136588588356972,0.0004990643355995417,0.0004174651112407446,0.00887990277260542,0.0109335295855999,0.011707479134202003,passive,0
1.3212,rehab,medium,34.524089562866116,-666.627284745848,299.12780429791144,-177.3899330087317,0.13337494318793475,-149.98577952572288,-50.2106,0.1118,28.7863,32.969,-0.9225,-21.5446,80.42482357213993,27.60004931157178,83.37612794177367,-22.934900919596355,-88.9713626437717,-39.63244120279948,-4.4077542748781715,-1.686918050935953,-2.2172871202525526,3.9597574869791665,0.13570149739583334,-4.47829352484809,0.4406,0.1738,1.2357,0.02081,-0.00507,-0.00207,0.0011311967391520739,0.0009998086607083678,0.0009078942821361125,0.0005136588588356972,0.0004990643355995417,0.0004174651112407446,0.00887990277260542,0.0109335295855999,0.011707479134202003,passive,0
1.341,rehab,medium,33.34359210715774,-666.6243124928296,299.8112172843876,-177.38875931771184,0.1323988514385964,-149.98395465715956,-50.4801,0.0582,28.7133,31.2509,-1.9227,-27.9229,80.32172476891243,27.55936046638111,83.32312026826462,-22.83951653374566,-88.96814982096355,-39.736268785264755,-4.190087648901609,-1.7413330078125,-2.1868435699160735,3.9762369791666665,0.06785074869791667,-4.342592027452257,0.4935,0.2971,1.6296,0.029,-0.02013,-0.01182,0.0011311967391520739,0.0009998086607083678,0.0009078942821361125,0.0005136588588356972,0.0004990643355995417,0.0004174651112407446,0.00887990277260542,0.0109335295855999,0.011707479134202003,passive,0
1.3608,rehab,medium,32.5503987442137,-666.6265666339157,300.2567482131575,-177.38856019706625,0.13228098006751524,-149.98316660760648,-48.4072,-0.0154,27.079,16.9481,-2.2338,-24.6118,80.25252313897161,27.533539875899212,83.28716315845452,-22.775819566514755,-88.96597120496962,-39.80552673339844,-4.298924361125077,-1.686918050935953,-2.2580779424988395,3.96132575141059,0.13570149739583334,-4.342592027452257,0.2556,0.27,1.8697,0.01848,-0.02418,-0.00534,0.0011311967391520739,0.0009998086607083678,0.0009078942821361125,0.0005136588588356972,0.0004990643355995417,0.0004174651112407446,0.00887990277260542,0.0109335295855999,0.011707479134202003,passive,0
1.3813,rehab,medium,31.353129320979438,-666.6277444675205,300.92243668144545,-177.38860772269055,0.13233417744384915,-149.9823429648134,-48.5767,-0.0834,26.6044,-0.1094,-1.8578,-15.6058,80.14806464166925,27.494992548876468,83.23325128838567,-22.6800537109375,-88.96274142795139,-39.90971035427517,-4.4077542748781715,-1.5780813387124846,-2.2188031791460396,4.028837415907118,0.13570149739583334,-4.410442776150173,0.3798,0.0645,1.3319,0.01866,-0.02846,-0.00624,0.0011311967391520739,0.0009998086607083678,0.0009078942821361125,0.0005136588588356972,0.0004990643355995417,0.0004174651112407446,0.00887990277260542,0.0109335295855999,0.011707479134202003,passive,0
1.401,rehab,medium,30.54636757431984,-666.6317541203232,301.35324435844603,-177.38935650652815,0.132961695407724,-149.98296157304821,-49.3441,-0.1082,26.7265,-7.504,-0.9078,-7.7164,80.07774806258702,27.470613234113937,83.1971242168162,-22.616424560546875,-88.96061367458768,-39.97868008083767,-4.4077542748781715,-1.5236663818359375,-2.3354921246519185,3.9587826199001737,0.13570149739583334,-4.410442776150173,0.365,0.0779,1.0681,0.01551,-0.03624,-0.00387,0.0011311967391520739,0.0009998086607083678,0.0009078942821361125,0.0005136588588356972,0.0004990643355995417,0.0004174651112407446,0.00887990277260542,0.0109335295855999,0.011707479134202003,passive,0
1.4212,rehab,medium,29.332691949656546,-666.6349791279474,302.00328279100415,-177.39020604938818,0.1336626181766951,-149.98436519997531,-49.4396,-0.0948,26.6764,-14.9855,0.3454,3.3125,79.9719502666209,27.43377912162554,83.14285202781753,-22.520997789171005,-88.95744323730469,-40.081982082790795,-4.571005943978187,-1.4148296696124691,-2.298800780041383,3.966556125217014,0.20355224609375,-4.206882052951388,0.23,0.1017,0.697,0.02364,-0.02132,0.00323,0.0011311967391520739,0.0009998086607083678,0.0009078942821361125,0.0005136588588356972,0.0004990643355995417,0.0004174651112407446,0.00887990277260542,0.0109335295855999,0.011707479134202003,passive,0
1.4411,rehab,medium,28.52253061444826,-666.637441177748,302.4310122991533,-177.39092924287658,0.13435913527577717,-149.98502963880273,-49.9847,-0.0603,27.0568,-30.2341,1.3649,18.3628,79.90133455484221,27.409780521203977,83.10666377001469,-22.45764838324653,-88.95524766710069,-40.15120612250434,-4.462176030225093,-1.4692514249593904,-2.197421989818611,4.0283966064453125,0.20355224609375,-4.342592027452257,0.3597,0.1129,1.5242,0.00763,-0.04339,-0.00624,0.0011311967391520739,0.0009998086607083678,0.0009078942821361125,0.0005136588588356972,0.0004990643355995417,0.0004174651112407446,0.00887990277260542,0.0109335295855999,0.011707479134202003,passive,0
1.4611,rehab,medium,27.720025042489386,-666.6341310352601,302.86600795998686,-177.39126423092137,0.134635919416734,-149.98519125098966,-50.5534,-0.0223,27.5526,-29.7126,1.9645,22.102,79.83131710845645,27.38485053034112,83.07092421125657,-22.394383748372395,-88.95312839084201,-40.2203369140625,-4.4077542748781715,-1.6325030940594059,-2.2774603815362005,4.046579996744792,0.13570149739583334,-4.139031304253472,0.2944,-0.1008,1.147,0.01339,-0.03805,-0.00795,0.0011311967391520739,0.0009998086607083678,0.0009078942821361125,0.0005136588588356972,0.0004990643355995417,0.0004174651112407446,0.00887990277260542,0.0109335295855999,0.011707479134202003,passive,0
1.4808,rehab,medium,26.333444603510635,-666.6343357156985,303.6293242762155,-177.39144936107886,0.13479681166786728,-149.9836780685353,-50.6898,0.0151,27.7731,-12.1767,2.0376,12.0871,79.71044710367033,27.34236688897161,83.00642032434445,-22.28335910373264,-88.94941541883681,-40.34144931369357,-4.244502605778156,-1.5236663818359375,-2.4131442532681002,4.054328070746528,0.13570149739583334,-4.274732801649305,0.3708,0.0978,1.2541,0.03824,-0.02875,-0.00159,0.0011311967391520739,0.0009998086607083678,0.0009078942821361125,0.0005136588588356972,0.0004990643355995417,0.0004174651112407446,0.00887990277260542,0.0109335295855999,0.011707479134202003,passive,0
1.501,rehab,medium,25.53871818508828,-666.6332738809186,304.07663340108996,-177.39078458551472,0.13421401500482172,-149.9840219620121,-50.8037,0.0548,27.9278,6.0216,1.6701,-1.4811,79.64117748902575,27.317525278223624,82.96894715564086,-22.219789293077255,-88.94734700520833,-40.409647623697914,-4.462176030225093,-1.5780813387124846,-2.3216980282622988,3.9268069797092013,0.13570149739583334,-4.139031304253472,0.1574,0.032,1.4718,0.00689,-0.0185,-0.0033,0.0011311967391520739,0.0009998086607083678,0.0009078942821361125,0.0005136588588356972,0.0004990643355995417,0.0004174651112407446,0.00887990277260542,0.0109335295855999,0.011707479134202003,passive,0
1.5209,rehab,medium,24.329996316388183,-666.6349243201402,304.7441078644765,-177.3894933097826,0.13321990826720592,-149.98534372947765,-51.862,0.0823,28.5123,21.0894,0.995,-13.8906,79.53588957833772,27.281065081605817,82.91218672648515,-22.124964396158855,-88.94412570529514,-40.51252577039931,-4.298924361125077,-1.6325030940594059,-2.301737719243116,3.8895585801866317,0.13570149739583334,-4.206882052951388,0.0667,-0.0229,1.5447,0.00711,-0.02971,-0.0048,0.0011311967391520739,0.0009998086607083678,0.0009078942821361125,0.0005136588588356972,0.0004990643355995417,0.0004174651112407446,0.00887990277260542,0.0109335295855999,0.011707479134202003,passive,0
1.5412,rehab,medium,23.5209419014577,-666.6327790386338,305.18929818086303,-177.38877251602665,0.13258541937353255,-149.9860986909059,-51.0093,0.0933,27.9506,31.7741,0.0319,-22.8504,79.46538944055538,27.256563394376546,82.87458438684445,-22.061648898654514,-88.94203186035156,-40.58154635959201,-4.353339318001624,-1.5780813387124846,-2.320936599580368,3.938412136501736,0.06785074869791667,-4.206882052951388,0.2963,-0.1202,1.5181,0.02331,-0.04077,-0.00429,0.0011311967391520739,0.0009998086607083678,0.0009078942821361125,0.0005136588588356972,0.0004990643355995417,0.0004174651112407446,0.00887990277260542,0.0109335295855999,0.011707479134202003,passive,0
1.5613,rehab,medium,22.29967434199349,-666.6309525255202,305.8443682302336,-177.3884911932399,0.132251524080124,-149.9876944337246,-49.4518,0.0954,26.8877,32.5395,-1.0001,-24.3321,79.3590273715482,27.22102099125928,82.8180958965037,-21.966781616210938,-88.93893771701389,-40.6852298312717,-4.353339318001624,-1.5236663818359375,-2.385318114025758,3.9566802978515625,0.13570149739583334,-4.342592027452257,0.088,-0.0028,1.2713,3e-05,-0.0213,-0.00298,0.0011311967391520739,0.0009998086607083678,0.0009078942821361125,0.0005136588588356972,0.0004990643355995417,0.0004174651112407446,0.00887990277260542,0.0109335295855999,0.011707479134202003,passive,0
1.5809,rehab,medium,21.496021143453703,-666.6276317671528,306.2786876881136,-177.38857413799008,0.13228386022117067,-149.98815349564404,-48.1345,0.0761,25.94,23.4928,-1.8227,-18.9165,79.28900992516243,27.197484686823174,82.78047995992226,-21.903372870551216,-88.93686930338542,-40.75406392415365,-4.4077542748781715,-1.4692514249593904,-2.4664034701810023,3.980882432725694,0.13570149739583334,-4.071180555555555,0.1641,-0.2327,1.2561,0.01105,-0.0229,-0.00285,0.0011311967391520739,0.0009998086607083678,0.0009078942821361125,0.0005136588588356972,0.0004990643355995417,0.0004174651112407446,0.00887990277260542,0.0109335295855999,0.011707479134202003,passive,0
1.6012,rehab,medium,20.30014981315881,-666.625305586686,306.9251578177137,-177.38900365016642,0.13273942240555076,-149.98795485164996,-47.6987,0.0243,25.5512,9.9395,-2.2938,-10.7894,79.18486415749729,27.163193202254796,82.72315525772548,-21.807869805230034,-88.9336649576823,-40.85731506347656,-4.298924361125077,-1.5236663818359375,-2.3486607617670945,4.046223958333333,0.13570149739583334,-4.206882052951388,0.0339,-0.0826,1.6395,0.02132,-0.03235,-0.00241,0.0011311967391520739,0.0009998086607083678,0.0009078942821361125,0.0005136588588356972,0.0004990643355995417,0.0004174651112407446,0.00887990277260542,0.0109335295855999,0.011707479134202003,passive,0
1.6211,rehab,medium,19.499608930892705,-666.6238969626401,307.36265143546285,-177.3885557576904,0.1323218255731739,-149.98804900773783,-48.35,-0.045,25.9035,-13.1233,-2.2292,2.527,79.11517983615988,27.14013958921527,82.6845127521175,-21.744605170355904,-88.93159654405382,-40.92618306477865,-4.516590987101639,-1.4148296696124691,-2.3704498593169863,4.01338365342882,0.06785074869791667,-4.342592027452257,-0.0415,-0.0828,1.2935,0.00313,-0.01969,-0.00181,0.0011311967391520739,0.0009998086607083678,0.0009078942821361125,0.0005136588588356972,0.0004990643355995417,0.0004174651112407446,0.00887990277260542,0.0109335295855999,0.011707479134202003,passive,0
1.6413,rehab,medium,18.68920806407466,-666.6266839060751,307.78564482895456,-177.3890435103809,0.1326862553508346,-149.9884298133511,-48.864,-0.1058,26.2366,-35.5122,-1.6782,16.1733,79.04472728767017,27.118595236598853,82.6455303229908,-21.68127271864149,-88.92953660753038,-40.99553426106771,-4.353339318001624,-1.360414712735922,-2.5400105089244276,3.8892449273003473,0.06785074869791667,-4.410442776150173,-0.1029,-0.0283,1.031,0.00922,-0.02838,0.004,0.0011311967391520739,0.0009998086607083678,0.0009078942821361125,0.0005136588588356972,0.0004990643355995417,0.0004174651112407446,0.00887990277260542,0.0109335295855999,0.011707479134202003,passive,0
1.6613,rehab,medium,17.49548202254856,-666.6309474746607,308.42512755185237,-177.3894139575403,0.13299357074282556,-149.98762911348,-50.2507,-0.1285,26.9776,-42.9563,-0.8144,21.9494,78.94096223434599,27.086424874787284,82.58615928121132,-21.58596462673611,-88.92641703287761,-41.09901428222656,-4.298924361125077,-1.305999755859375,-2.531022931089496,4.041680230034722,0.13570149739583334,-4.274732801649305,-0.0091,0.0824,1.3068,0.02202,-0.01206,0.00723,0.0011311967391520739,0.0009998086607083678,0.0009078942821361125,0.0005136588588356972,0.0004990643355995417,0.0004174651112407446,0.00887990277260542,0.0109335295855999,0.011707479134202003,passive,0
1.681,rehab,medium,16.709086244069503,-666.6355466686471,308.8393889733715,-177.39044150697302,0.13385182814392846,-149.98632509166248,-50.9718,-0.1288,27.2497,-35.0864,0.2067,18.9588,78.87265120402421,27.06613823919013,82.54645621422493,-21.522445678710938,-88.9243655734592,-41.16790771484375,-4.353339318001624,-1.251584798982828,-2.5027005035098235,3.964962429470486,0.13570149739583334,-4.410442776150173,0.0743,0.0155,0.8876,0.03839,-0.02592,0.01034,0.0011311967391520739,0.0009998086607083678,0.0009078942821361125,0.0005136588588356972,0.0004990643355995417,0.0004174651112407446,0.00887990277260542,0.0109335295855999,0.011707479134202003,passive,0
1.7011,rehab,medium,15.327516561257474,-666.6382986369679,309.59493261235275,-177.38991272828173,0.1334101173954621,-149.98520171295368,-51.5405,-0.0999,27.4319,-14.2496,1.1637,8.851,78.75258341874226,27.02858348884205,82.47612603820197,-21.411429511176216,-88.92073737250433,-41.287833319769966,-4.244502605778156,-1.360414712735922,-2.591413743425124,4.032406277126736,0.13570149739583334,-4.342592027452257,-0.0764,-0.0987,1.2605,0.01245,-0.02493,0.00434,0.0011311967391520739,0.0009998086607083678,0.0009078942821361125,0.0005136588588356972,0.0004990643355995417,0.0004174651112407446,0.00887990277260542,0.0109335295855999,0.011707479134202003,passive,0
1.721,rehab,medium,14.525371500100297,-666.6389879415202,310.0249008649546,-177.38982155797535,0.133244065530119,-149.98501466087507,-51.9302,-0.0554,27.6871,4.2972,1.7924,0.7048,78.68289229893448,27.00733147045173,82.43584510123375,-21.347868177625866,-88.91871982150607,-41.35698954264323,-4.353339318001624,-1.360414712735922,-2.511946423218982,3.9598931206597223,0.06785074869791667,-4.274732801649305,-0.0837,-0.1748,1.319,0.01088,-0.02879,-0.00101,0.0011311967391520739,0.0009998086607083678,0.0009078942821361125,0.0005136588588356972,0.0004990643355995417,0.0004174651112407446,0.00887990277260542,0.0109335295855999,0.011707479134202003,passive,0
1.7414,rehab,medium,13.326326180337436,-666.636845346547,310.66368231182867,-177.39013746910877,0.1335562528996844,-149.98495579779402,-51.1488,-0.0183,27.4326,23.7272,2.0848,-7.1708,78.57867174809522,26.975752575562733,82.3757806154761,-21.252483791775173,-88.91559176974826,-41.460181342230904,-4.462176030225093,-1.251584798982828,-2.507581805238629,4.0106964111328125,0.13570149739583334,-4.47829352484809,0.1402,-0.1305,1.1534,0.02565,-0.03625,-0.0026,0.0011311967391520739,0.0009998086607083678,0.0009078942821361125,0.0005136588588356972,0.0004990643355995417,0.0004174651112407446,0.00887990277260542,0.0109335295855999,0.011707479134202003,passive,0
1.7609,rehab,medium,12.526368789241939,-666.636270849546,311.0800373477183,-177.39112372970192,0.1344995810157424,-149.9856736409518,-50.7921,0.0151,27.4027,35.2888,2.0987,-11.6681,78.50917098545791,26.955595110902692,82.33558805862276,-21.18859185112847,-88.91349792480469,-41.528235541449654,-4.135672692025062,-1.251584798982828,-2.5412138381806932,4.058837890625,0.06785074869791667,-4.274732801649305,-0.2843,-0.291,0.8238,-0.00582,-0.02945,0.00826,0.0011311967391520739,0.0009998086607083678,0.0009078942821361125,0.0005136588588356972,0.0004990643355995417,0.0004174651112407446,0.00887990277260542,0.0109335295855999,0.011707479134202003,passive,0
1.7811,rehab,medium,11.329738724443734,-666.6375800669342,311.7145873661543,-177.391805437497,0.13519856532938088,-149.98540589739756,-49.4966,0.0459,26.8429,28.2713,1.711,-8.7899,78.40526996272625,26.92540990244044,82.27391233538637,-21.092453002929688,-88.91034444173177,-41.63130866156684,-4.190087648901609,-1.360414712735922,-2.567755066522277,3.93965827094184,0.20355224609375,-4.206882052951388,-0.1894,-0.2794,1.1377,0.01889,-0.02818,0.00804,0.0011311967391520739,0.0009998086607083678,0.0009078942821361125,0.0005136588588356972,0.0004990643355995417,0.0004174651112407446,0.00887990277260542,0.0109335295855999,0.011707479134202003,passive,0
1.8016,rehab,medium,10.537533407969088,-666.6360934530609,312.15321680057053,-177.3910983379822,0.13456206578410596,-149.98483878262397,-48.8997,0.081,26.6906,15.1471,0.9509,-5.781,78.33646944253752,26.90432104733911,82.23225130893216,-21.028450859917534,-88.9083014594184,-41.69994778103298,-4.135672692025062,-1.305999755859375,-2.6765169955716273,4.075046115451388,0.06785074869791667,-4.071180555555555,-0.0654,-0.2661,1.338,0.02121,-0.02911,0.00022,0.0011311967391520739,0.0009998086607083678,0.0009078942821361125,0.0005136588588356972,0.0004990643355995417,0.0004174651112407446,0.00887990277260542,0.0109335295855999,0.011707479134202003,passive,0
1.821,rehab,medium,9.347642235924255,-666.6374522651389,312.8188251490799,-177.38954874232272,0.13312936422107116,-149.98359600205166,-48.8789,0.1044,26.7587,-1.5089,0.0264,-1.3559,78.23322787143216,26.873075277498454,82.16811453942024,-20.931854248046875,-88.90525817871094,-41.80333455403646,-4.353339318001624,-1.305999755859375,-2.7527074530573175,3.9686075846354165,0.13570149739583334,-4.071180555555555,-0.1771,-0.3622,1.0653,0.01402,-0.02404,0.0062,0.0011311967391520739,0.0009998086607083678,0.0009078942821361125,0.0005136588588356972,0.0004990643355995417,0.0004174651112407446,0.00887990277260542,0.0109335295855999,0.011707479134202003,passive,0
1.8413,rehab,medium,8.547718906517481,-666.6342970549927,313.2648301922518,-177.38848480294268,0.13208908310040313,-149.98380780324126,-48.3839,0.1094,26.4123,-10.3254,-1.0818,0.6348,78.16378149655786,26.851823259108137,82.12568528581373,-20.86745368109809,-88.90328301323784,-41.871838039822045,-4.4077542748781715,-1.360414712735922,-2.670248805886448,4.0886179606119795,0.06785074869791667,-4.342592027452257,-0.2477,-0.2067,1.6658,0.00517,-0.02179,0.00045,0.0011311967391520739,0.0009998086607083678,0.0009078942821361125,0.0005136588588356972,0.0004990643355995417,0.0004174651112407446,0.00887990277260542,0.0109335295855999,0.011707479134202003,passive,0
1.8615,rehab,medium,7.3502283812844125,-666.6298364049953,313.91289009310685,-177.38854424588817,0.132246557027203,-149.98339389005343,-49.8482,0.0877,27.016,-14.2621,-2.018,2.8232,78.05981928759282,26.821556469001393,82.06224196028,-20.770263671875,-88.90012953016493,-41.975106133355034,-4.353339318001624,-1.251584798982828,-2.6895292678681932,4.078759087456597,0.13570149739583334,-4.274732801649305,-0.1979,-0.1561,0.9952,0.02783,-0.01882,0.00543,0.0011311967391520739,0.0009998086607083678,0.0009078942821361125,0.0005136588588356972,0.0004990643355995417,0.0004174651112407446,0.00887990277260542,0.0109335295855999,0.011707479134202003,passive,0
1.8811,rehab,medium,6.5415240247267485,-666.6268758037934,314.34691165575305,-177.38850269564952,0.1322052844008628,-149.98374908330408,-50.9828,0.0135,27.3396,-29.8936,-2.4733,13.6031,77.98964547638846,26.801494182926593,82.01949997703628,-20.705286661783855,-88.89807807074652,-42.04418606228298,-4.244502605778156,-1.251584798982828,-2.636276849425665,4.040459526909722,0.13570149739583334,-4.274732801649305,-0.1868,-0.1598,1.4869,0.00321,-0.02767,0.00011,0.0011311967391520739,0.0009998086607083678,0.0009078942821361125,0.0005136588588356972,0.0004990643355995417,0.0004174651112407446,0.00887990277260542,0.0109335295855999,0.011707479134202003,passive,0
1.9009,rehab,medium,5.733809278321969,-666.6250860734046,314.77440902248543,-177.38904016379803,0.13263720841570736,-149.9840500206945,-50.6719,-0.056,27.0533,-30.8348,-2.3059,17.8329,77.9196008361212,26.782159333181852,81.97647245803682,-20.640004475911457,-88.8960689968533,-42.113189697265625,-4.353339318001624,-1.1971630436359066,-2.692806130588645,4.067781236436632,0.13570149739583334,-4.342592027452257,-0.1422,-0.3582,0.8831,0.01715,-0.03544,0.00851,0.0011311967391520739,0.0009998086607083678,0.0009078942821361125,0.0005136588588356972,0.0004990643355995417,0.0004174651112407446,0.00887990277260542,0.0109335295855999,0.011707479134202003,passive,0
1.9211,rehab,medium,4.31542308419984,-666.6293117060476,315.5193512670077,-177.39013952615122,0.13364746890552417,-149.985776480687,-50.8237,-0.1141,27.3066,-10.2924,-1.4729,11.0703,77.79677287186726,26.749907389725788,81.8991738498801,-20.52508036295573,-88.89251708984375,-42.23298814561632,-4.4077542748781715,-1.1427480867593596,-2.863216588992884,4.183468288845486,0.13570149739583334,-4.342592027452257,-0.1666,-0.3121,1.0757,0.01312,-0.02276,0.00131,0.0011311967391520739,0.0009998086607083678,0.0009078942821361125,0.0005136588588356972,0.0004990643355995417,0.0004174651112407446,0.00887990277260542,0.0109335295855999,0.011707479134202003,passive,0
1.9409,rehab,medium,3.5067870085988875,-666.6339361391551,315.95979827316046,-177.3899767917171,0.13348272967919386,-149.98656054662302,-49.6759,-0.1402,26.9843,20.0374,-0.2534,-2.1892,77.72681661171488,26.731252387018486,81.8532637794419,-20.458526611328125,-88.89051649305556,-42.30140686035156,-4.353339318001624,-1.1427480867593596,-2.8305227449624843,4.158333672417535,0.06785074869791667,-4.342592027452257,-0.3332,-0.3133,0.7874,0.0156,-0.03003,0.01046,0.0011311967391520739,0.0009998086607083678,0.0009078942821361125,0.0005136588588356972,0.0004990643355995417,0.0004174651112407446,0.00887990277260542,0.0109335295855999,0.011707479134202003,passive,0
1.9621,rehab,medium,2.298101942111703,-666.6402770875992,316.61219297250375,-177.39047895983708,0.13397404319822706,-149.9880346853202,-51.4548,-0.1064,28.265,49.8866,1.2116,-16.6435,77.62226973429765,26.70404490858021,81.78425250667156,-20.358293321397568,-88.88749864366319,-42.403344048394096,-4.244502605778156,-1.1971630436359066,-2.8400474019569923,4.104359944661458,0.13570149739583334,-4.274732801649305,-0.3579,-0.3625,0.8531,0.02274,-0.02077,0.01113,0.0011311967391520739,0.0009998086607083678,0.0009078942821361125,0.0005136588588356972,0.0004990643355995417,0.0004174651112407446,0.00887990277260542,0.0109335295855999,0.011707479134202003,passive,0
1.9812,rehab,medium,1.511661992023071,-666.6425226554092,317.05772834133705,-177.38990523328417,0.13341333998856325,-149.98732610181622,-51.6809,-0.0669,28.5514,57.1989,2.089,-22.4762,77.55423064279084,26.685267533406172,81.73792093107016,-20.291773478190105,-88.88553195529514,-42.4713389078776,-4.081257735148514,-1.1971630436359066,-2.8659087832611387,4.144948323567708,0.06785074869791667,-4.206882052951388,-0.2846,-0.3728,1.1953,0.00551,-0.0287,0.00023,0.0011311967391520739,0.0009998086607083678,0.0009078942821361125,0.0005136588588356972,0.0004990643355995417,0.0004174651112407446,0.00887990277260542,0.0109335295855999,0.011707479134202003,passive,0
2.0012,rehab,medium,0.36433718905055273,-666.6388741984518,317.70733781570453,-177.39015941000272,0.13367933234872464,-149.9854527332044,-47.432,-0.0037,26.2997,60.4681,2.3045,-30.102,77.45485060285813,26.657522975808323,81.67041891872293,-20.192896525065105,-88.88257344563802,-42.571470472547745,-3.9724210229250465,-1.1427480867593596,-2.7499472740853186,4.038798014322917,0.13570149739583334,-4.0033213297526045,-0.2878,-0.2802,0.6167,0.0158,-0.00717,0.00934,0.0011311967391520739,0.0009998086607083678,0.0009078942821361125,0.0005136588588356972,0.0004990643355995417,0.0004174651112407446,0.00887990277260542,0.0109335295855999,0.011707479134202003,passive,0
2.021,rehab,medium,-0.40024399374980013,-666.6385368988258,318.1338869749489,-177.3899501489667,0.13358207205823322,-149.9859733109314,-45.5796,0.0568,25.2874,64.4588,2.0241,-38.3618,77.38868788917466,26.639724580368192,81.62563059589651,-20.12841118706597,-88.88060675726996,-42.63637966579861,-4.190087648901609,-1.1427480867593596,-2.7591659999129794,4.070349799262153,0.06785074869791667,-4.071180555555555,-0.2115,-0.3249,1.1117,0.01759,-0.0243,0.00226,0.0011311967391520739,0.0009998086607083678,0.0009078942821361125,0.0005136588588356972,0.0004990643355995417,0.0004174651112407446,0.00887990277260542,0.0109335295855999,0.011707479134202003,passive,0
2.0411,rehab,medium,-1.5470472819579009,-666.6334712314607,318.7591635418838,-177.39003573281502,0.1337438572368783,-149.98817667877162,-43.968,0.0875,24.3053,68.1122,1.32,-45.4397,77.28940982629757,26.613428096960085,81.5601409307801,-20.033315022786457,-88.87774149576823,-42.73237440321181,-4.190087648901609,-1.0883331298828125,-2.770356282149211,3.8631778293185763,0.13570149739583334,-4.071180555555555,-0.3477,-0.3084,1.0083,0.01273,-0.02891,0.01212,0.0011311967391520739,0.0009998086607083678,0.0009078942821361125,0.0005136588588356972,0.0004990643355995417,0.0004174651112407446,0.00887990277260542,0.0109335295855999,0.011707479134202003,passive,0
2.0616,rehab,medium,-2.2941009630618927,-666.6339755967293,319.15917669795016,-177.39006096547035,0.1337161712544393,-149.98920192355487,-44.2821,0.0944,24.2416,63.4249,0.5865,-47.2356,77.22484475315207,26.597302125232055,81.51719499342512,-19.972186618381077,-88.87594434950087,-42.79522365993923,-3.918006066048499,-0.9250814607827971,-2.7431352067701886,3.770497639973958,0.06785074869791667,-3.9354705810546875,-0.2278,-0.2756,0.9623,0.01257,-0.01616,0.0063,0.0011311967391520739,0.0009998086607083678,0.0009078942821361125,0.0005136588588356972,0.0004990643355995417,0.0004174651112407446,0.00887990277260542,0.0109335295855999,0.011707479134202003,passive,0
2.081,rehab,medium,-3.019672469069711,-666.6356935250441,319.54681588702135,-177.39005185756443,0.13359072906495875,-149.98982986754828,-43.7574,0.0805,23.558,44.2903,-0.1195,-41.9929,77.1621832517114,26.581985171478575,81.47513285721882,-19.912889268663193,-88.87424045138889,-42.85658942328559,-3.9724210229250465,-0.979496417659344,-2.550357780834236,3.582424587673611,0.06785074869791667,-3.9354705810546875,-0.396,-0.224,1.5057,0.0049,-0.01577,0.00381,0.0011311967391520739,0.0009998086607083678,0.0009078942821361125,0.0005136588588356972,0.0004990643355995417,0.0004174651112407446,0.00887990277260542,0.0109335295855999,0.011707479134202003,passive,0
2.1013,rehab,medium,-4.051771059174072,-666.6323391977703,320.1122408975464,-177.38924098086042,0.13285337852740056,-149.9890758623103,-42.2496,0.0728,22.3524,44.8912,-0.8644,-50.0554,77.07293293263652,26.558979147731666,81.41518394545753,-19.828109741210938,-88.87162950303819,-42.94563293457031,-3.5370877709719215,-0.979496417659344,-2.4916869815033262,3.4702894422743054,0.06785074869791667,-3.664059109157986,-0.3136,-0.349,1.1013,0.01195,-0.02044,0.00749,0.0011311967391520739,0.0009998086607083678,0.0009078942821361125,0.0005136588588356972,0.0004990643355995417,0.0004174651112407446,0.00887990277260542,0.0109335295855999,0.011707479134202003,passive,0
2.121,rehab,medium,-4.70632792345841,-666.6312200596437,320.47071731912814,-177.3883890006966,0.13209455031740025,-149.98813482069616,-41.1329,0.0604,21.2991,68.3565,-1.2194,-70.1809,77.0163628606513,26.544627576771347,81.37697654195351,-19.774822658962673,-88.86994255913628,-43.002539740668404,-3.5370877709719215,-0.87066650390625,-2.3281497766475865,3.1887563069661455,0.06785074869791667,-3.664059109157986,-0.3018,-0.4855,0.6395,-0.00315,-0.01908,0.00179,0.0011311967391520739,0.0009998086607083678,0.0009078942821361125,0.0005136588588356972,0.0004990643355995417,0.0004174651112407446,0.00887990277260542,0.0109335295855999,0.011707479134202003,passive,0
2.141,rehab,medium,-5.805412194114833,-666.6290234930133,321.0298219365364,-177.38838634429052,0.13206669989936914,-149.98735224020876,-39.4154,0.042,19.7745,96.3833,-1.3326,-90.0789,76.92141542340269,26.522797688399212,81.31585829328782,-19.68878004286024,-88.8671875,-43.09729682074653,-3.428251058748453,-0.7074148348062346,-1.9945284399655785,2.9178958468967013,0.06785074869791667,-3.324796888563368,-0.3363,-0.421,0.3534,-5e-05,-0.01483,0.00416,0.0011311967391520739,0.0009998086607083678,0.0009078942821361125,0.0005136588588356972,0.0004990643355995417,0.0004174651112407446,0.00887990277260542,0.0109335295855999,0.011707479134202003,passive,0
2.161,rehab,medium,-6.39818939097732,-666.627361640336,321.31156476244985,-177.38887402201357,0.13249277574873836,-149.98675391643093,-37.7949,0.0148,18.0942,118.3583,-1.435,-103.047,76.87021614301322,26.512008515915067,81.2844697555693,-19.644266764322918,-88.86570400661893,-43.14859178331163,-3.047339562142249,-0.6529998779296875,-1.8846311663637068,2.7838643391927085,0.13570149739583334,-3.1890869140625,-0.3276,-0.4563,0.5717,0.00016,-0.00976,0.00299,0.0011311967391520739,0.0009998086607083678,0.0009078942821361125,0.0005136588588356972,0.0004990643355995417,0.0004174651112407446,0.00887990277260542,0.0109335295855999,0.011707479134202003,passive,0
2.1813,rehab,medium,-7.2287796794416295,-666.6273010558767,321.6890960932532,-177.3893890757799,0.13300162945700075,-149.98517886761752,-35.0801,-0.034,15.4599,130.9126,-1.3905,-110.0473,76.79853307138575,26.49803086082534,81.24168018303295,-19.58438449435764,-88.86355082194011,-43.22117275661892,-2.938502849918781,-0.544163165706219,-1.6532724210531404,2.2829522026909723,0.13570149739583334,-2.8498246934678817,-0.3781,-0.3284,1.0575,-0.00893,-0.01277,0.00051,0.0011311967391520739,0.0009998086607083678,0.0009078942821361125,0.0005136588588356972,0.0004990643355995417,0.0004174651112407446,0.00887990277260542,0.0109335295855999,0.011707479134202003,passive,0
2.2011,rehab,medium,-7.744824474244227,-666.6294926352205,321.9172437695189,-177.38888806297635,0.13249603874205115,-149.98436920901446,-32.0601,-0.0584,12.9911,142.0638,-0.9868,-114.7351,76.75406427666692,26.489831905553835,81.21583239866955,-19.549569023980034,-88.8622538248698,-43.26605902777778,-2.7208362239422184,-0.435333251953125,-1.5541575214650372,2.068820529513889,0.13570149739583334,-2.781973944769965,-0.175,-0.4359,0.4724,0.01721,-0.02097,0.00997,0.0011311967391520739,0.0009998086607083678,0.0009078942821361125,0.0005136588588356972,0.0004990643355995417,0.0004174651112407446,0.00887990277260542,0.0109335295855999,0.011707479134202003,passive,0
2.2213,rehab,medium,-8.47771742264496,-666.6317089249975,322.20168234927667,-177.38854555637633,0.13215097305308576,-149.98519010729552,-28.5874,-0.0653,10.5241,152.6177,-0.4285,-114.7838,76.69092008382967,26.479865347984994,81.18300938370204,-19.505225287543404,-88.86043972439236,-43.327882554796005,-2.557584554842203,-0.435333251953125,-1.2051988356184251,1.665980021158854,0.06785074869791667,-2.374852498372396,-0.1514,-0.4366,1.0002,0.01009,-0.0297,0.00407,0.0011311967391520739,0.0009998086607083678,0.0009078942821361125,0.0005136588588356972,0.0004990643355995417,0.0004174651112407446,0.00887990277260542,0.0109335295855999,0.011707479134202003,passive,0
2.2409,rehab,medium,-8.930291242252885,-666.6345517378202,322.3604692196,-177.3881680105369,0.1317946474350887,-149.98621308815268,-25.6129,-0.0853,8.5991,157.6201,-0.0796,-107.0315,76.65197164705484,26.474623727326346,81.16423880699837,-19.480489095052082,-88.85932074652777,-43.36552937825521,-2.2310880151125465,-0.2176666259765625,-1.1103261815439356,1.4687686496310763,0.06785074869791667,-2.307001749674479,-0.2165,-0.4142,1.3217,0.01382,-0.03084,0.00325,0.0011311967391520739,0.0009998086607083678,0.0009078942821361125,0.0005136588588356972,0.0004990643355995417,0.0004174651112407446,0.00887990277260542,0.0109335295855999,0.011707479134202003,passive,0
2.2612,rehab,medium,-9.544599884932351,-666.6356978910457,322.5394151214195,-177.38872431486269,0.13232500852222756,-149.9881705823674,-22.7401,-0.0816,6.7649,161.3387,0.2031,-93.1001,76.59906595060141,26.46891981068224,81.142204964515,-19.45031060112847,-88.85780334472656,-43.4161376953125,-2.0134145906656093,-0.2176666259765625,-0.7803012356899752,1.1170535617404513,-0.0,-1.832029554578993,-0.4817,-0.3977,1.1028,-0.01066,-0.02579,0.004,0.0011311967391520739,0.0009998086607083678,0.0009078942821361125,0.0005136588588356972,0.0004990643355995417,0.0004174651112407446,0.00887990277260542,0.0109335295855999,0.011707479134202003,passive,0
2.281,rehab,medium,-9.896019371077726,-666.634369187593,322.63188789964414,-177.38906902970353,0.13266752296739456,-149.98908097001305,-19.8883,-0.0398,4.8612,164.3788,0.518,-80.0294,76.56876516814279,26.465840103602645,81.13096029451577,-19.434534708658855,-88.85691324869792,-43.445349799262154,-1.795747964689047,-0.2176666259765625,-0.6512322756323484,0.8820512559678819,0.13570149739583334,-1.7641703287760415,-0.4273,-0.4841,0.7691,0.00014,-0.02522,0.00791,0.0011311967391520739,0.0009998086607083678,0.0009078942821361125,0.0005136588588356972,0.0004990643355995417,0.0004174651112407446,0.00887990277260542,0.0109335295855999,0.011707479134202003,passive,0
2.3013,rehab,medium,-10.19625747932868,-666.6348797641474,322.7082314662069,-177.38896330642072,0.13259719323630628,-149.98907476104247,-16.363,-0.016,3.1886,167.4184,0.8932,-69.0445,76.54291058530902,26.463481034382735,81.12155800998801,-19.422047932942707,-88.85611640082465,-43.4710693359375,-1.4148296696124691,-0.16324487062964108,-0.5010744604733911,0.7018873426649306,0.06785074869791667,-1.4927588568793402,-0.4046,-0.5357,0.1811,0.00271,-0.01507,0.01469,0.0011311967391520739,0.0009998086607083678,0.0009078942821361125,0.0005136588588356972,0.0004990643355995417,0.0004174651112407446,0.00887990277260542,0.0109335295855999,0.011707479134202003,passive,0
2.3214,rehab,medium,-10.561113811849483,-666.6370437904428,322.7828312484995,-177.38898571925776,0.13266038687502182,-149.9888685405618,-12.9083,-0.0316,1.9615,177.1027,1.3098,-62.5061,76.51152884606087,26.46161145502978,81.11155746006729,-19.409077962239582,-88.85513305664062,-43.502510918511284,-1.1427480867593596,-0.0,-0.3074132333887686,0.40712992350260413,-0.0,-1.0856458875868056,-0.436,-0.5171,0.2234,0.00274,-0.02375,0.01214,0.0011311967391520739,0.0009998086607083678,0.0009078942821361125,0.0005136588588356972,0.0004990643355995417,0.0004174651112407446,0.00887990277260542,0.0109335295855999,0.011707479134202003,passive,0
2.3409,rehab,medium,-10.749808638296006,-666.6397430583467,322.8013479613681,-177.38949149079988,0.13316416857523342,-149.98867252648682,-9.1394,-0.0313,0.9553,183.4102,1.5094,-57.0676,76.49533488962909,26.461774618318767,81.10775711512801,-19.404186672634548,-88.8546159532335,-43.51884629991319,-0.87066650390625,-0.0,-0.16332645227413367,0.1830715603298611,0.06785074869791667,-0.9499359130859375,-0.3248,-0.4246,0.4224,-0.00193,-0.02745,0.00679,0.0011311967391520739,0.0009998086607083678,0.0009078942821361125,0.0005136588588356972,0.0004990643355995417,0.0004174651112407446,0.00887990277260542,0.0109335295855999,0.011707479134202003,passive,0
2.361,rehab,medium,-10.963906275109439,-666.6348859191326,322.78526004445496,-177.39143601018236,0.13497422217894503,-149.98848246685725,-5.2362,0.0163,-0.058,183.0035,1.4593,-52.3399,76.47680905785892,26.46268561334893,81.10789988300589,-19.401965671115452,-88.85405646430121,-43.537538316514755,-0.435333251953125,-0.0,0.017832387792001855,-0.00335693359375,-0.0,-0.4071129692925347,-0.3457,-0.4679,0.4738,-0.01506,-0.01883,0.00431,0.0011311967391520739,0.0009998086607083678,0.0009078942821361125,0.0005136588588356972,0.0004990643355995417,0.0004174651112407446,0.00887990277260542,0.0109335295855999,0.011707479134202003,passive,0
2.3811,rehab,medium,-11.025227212914041,-666.6353483673834,322.77954956265353,-177.39100768145437,0.13460860144192274,-149.98858542025278,-2.0,0.0778,-1.0386,176.9673,1.4982,-52.3506,76.47154024331877,26.463045932278774,81.10843696216546,-19.40325419108073,-88.85386149088542,-43.54271782769097,-0.16324487062964108,0.05441495687654703,0.04614121843092513,-0.11522928873697916,-0.0,-0.20355224609375,-0.3129,-0.4061,0.647,0.00299,-0.01196,0.00679,0.0011311967391520739,0.0009998086607083678,0.0009078942821361125,0.0005136588588356972,0.0004990643355995417,0.0004174651112407446,0.00887990277260542,0.0109335295855999,0.011707479134202003,passive,0
2.4012,rehab,medium,-10.972945227296387,-666.6383169192367,322.761681046208,-177.38832773893756,0.13209013237199424,-149.9828321060727,1.6139,0.1121,-2.175,163.6577,1.56,-55.0247,76.47608162152885,26.46352182520498,81.11197216676013,-19.410900539822048,-88.85378519694011,-43.544014824761284,0.2720815828531095,0.05441495687654703,0.27093264135983913,-0.4953681098090278,-0.06785074869791667,0.06785074869791667,-0.4541,-0.4807,0.3915,-0.02087,-0.01483,0.00084,0.0011311967391520739,0.0009998086607083678,0.0009078942821361125,0.0005136588588356972,0.0004990643355995417,0.0004174651112407446,0.00887990277260542,0.0109335295855999,0.011707479134202003,passive,0
2.4212,rehab,medium,-10.906576533125474,-666.6364500902592,322.72782674747003,-177.38650475251816,0.1303923160884507,-149.9790209214574,4.7891,0.1276,-3.2607,146.1967,1.0367,-55.7241,76.48174474735072,26.464133687538677,81.11760130023012,-19.419691297743054,-88.85379367404514,-43.542260064019096,0.489748208829672,0.05441495687654703,0.4811345468653311,-0.6110297309027778,-0.06785074869791667,0.20355224609375,-0.4418,-0.4492,0.6704,-0.0131,-0.02354,0.00372,0.0011311967391520739,0.0009998086607083678,0.0009078942821361125,0.0005136588588356972,0.0004990643355995417,0.0004174651112407446,0.00887990277260542,0.0109335295855999,0.011707479134202003,passive,0
2.4414,rehab,medium,-10.744331155865282,-666.6270258262624,322.63244736047824,-177.38552414839603,0.12980497823899043,-149.97816212562552,8.1585,0.1331,-4.5805,136.3343,-0.1777,-55.9701,76.49549125444771,26.466180027121364,81.1309806899269,-19.436653984917534,-88.85389539930556,-43.529552883572045,0.544163165706219,0.10882991375309406,0.6315778977800124,-0.7834286159939235,-0.0,0.7463751898871528,-0.3034,-0.371,0.2865,-0.00048,-0.0173,0.00634,0.0011311967391520739,0.0009998086607083678,0.0009078942821361125,0.0005136588588356972,0.0004990643355995417,0.0004174651112407446,0.00887990277260542,0.0109335295855999,0.011707479134202003,passive,0
2.4613,rehab,medium,-10.622086615048481,-666.6228372718919,322.54446305437614,-177.3854230643864,0.13007130907355927,-149.98176424579123,10.5319,0.1261,-5.7117,136.0319,-1.3435,-55.4036,76.50592010800202,26.468885818330367,81.1416746838258,-19.450403849283855,-88.85403103298611,-43.51566738552517,0.7618297916827815,0.16324487062964108,0.6826819995842358,-0.9223768446180556,-0.0,0.9499359130859375,-0.4401,-0.4938,0.2854,-0.02951,-0.00899,0.00305,0.0011311967391520739,0.0009998086607083678,0.0009078942821361125,0.0005136588588356972,0.0004990643355995417,0.0004174651112407446,0.00887990277260542,0.0109335295855999,0.011707479134202003,passive,0
2.4811,rehab,medium,-10.370886454962603,-666.6244290566802,322.3878199333868,-177.3850917093019,0.1303404081930032,-149.9871659090961,12.719,0.1115,-6.8809,137.2711,-2.0083,-52.8404,76.52756643767404,26.474807286026454,81.15910596186572,-19.474699232313366,-88.85438707139757,-43.48887973361545,1.0883331298828125,0.2720815828531095,0.7622173044941213,-1.0326978895399306,-0.0,1.2892066107855902,-0.3562,-0.3827,0.3607,-0.00264,-0.00774,0.00661,0.0011311967391520739,0.0009998086607083678,0.0009078942821361125,0.0005136588588356972,0.0004990643355995417,0.0004174651112407446,0.00887990277260542,0.0109335295855999,0.011707479134202003,passive,0
2.5009,rehab,medium,-10.136096293799701,-666.625293725255,322.26656879179626,-177.38504506357748,0.13054936117461174,-149.9888145532651,14.795,0.0586,-7.6346,141.2069,-2.3165,-50.4189,76.5477986855082,26.47930107494392,81.17269610414411,-19.49339124891493,-88.8548363579644,-43.467203776041664,1.360414712735922,0.2720815828531095,0.8944679486869586,-1.2322574191623263,-0.0,1.4249081081814237,-0.3709,-0.595,-0.6955,-0.00799,-0.02118,0.00764,0.0011311967391520739,0.0009998086607083678,0.0009078942821361125,0.0005136588588356972,0.0004990643355995417,0.0004174651112407446,0.00887990277260542,0.0109335295855999,0.011707479134202003,passive,0
2.5214,rehab,medium,-9.702838323631068,-666.621217552442,322.05523499161484,-177.38605492212773,0.13181307205327183,-149.99055822212668,18.0665,-0.0289,-8.5746,154.0067,-2.4635,-49.7769,76.58502710927831,26.486589035185258,81.19674909232866,-19.52440897623698,-88.85574340820312,-43.42857360839844,1.686918050935953,0.3809114966062036,1.0345436322807084,-1.364500257703993,-0.06785074869791667,1.7641703287760415,-0.3047,-0.5696,0.3605,-0.02599,-0.02116,-0.00139,0.0011311967391520739,0.0009998086607083678,0.0009078942821361125,0.0005136588588356972,0.0004990643355995417,0.0004174651112407446,0.00887990277260542,0.0109335295855999,0.011707479134202003,passive,0
2.541,rehab,medium,-9.356277715928478,-666.6223819079282,321.90758031420256,-177.38621978116785,0.13197981144397314,-149.99054145285908,22.0631,-0.0859,-9.7421,167.1206,-2.1604,-49.3321,76.61491998351447,26.492034609955137,81.21334415851253,-19.547195434570312,-88.85660807291667,-43.39895460340712,1.9589996337890625,0.3809114966062036,1.0554625256226795,-1.5492333306206596,-0.13570149739583334,1.9677310519748263,-0.2902,-0.4098,0.3081,-0.00522,-0.01141,0.00669,0.0011311967391520739,0.0009998086607083678,0.0009078942821361125,0.0005136588588356972,0.0004990643355995417,0.0004174651112407446,0.00887990277260542,0.0109335295855999,0.011707479134202003,passive,0
2.5609,rehab,medium,-8.987320443831049,-666.6262098844641,321.7488526033893,-177.386252225281,0.13181099237972946,-149.99131445680126,25.0457,-0.0996,-10.4819,168.4782,-1.3855,-46.3088,76.6468320034518,26.498228016466197,81.23078223502282,-19.571990966796875,-88.85771009657118,-43.36655510796441,2.067836346012531,0.435333251953125,1.1425305357073794,-1.595696343315972,-0.06785074869791667,2.2391425238715277,-0.404,-0.2923,0.2753,-0.00743,-0.00568,0.00818,0.0011311967391520739,0.0009998086607083678,0.0009078942821361125,0.0005136588588356972,0.0004990643355995417,0.0004174651112407446,0.00887990277260542,0.0109335295855999,0.011707479134202003,passive,0
2.5815,rehab,medium,-8.347614551333901,-666.626095049174,321.47979937582204,-177.38757567847045,0.13263286284901818,-149.99093581072185,28.6215,-0.1135,-11.5816,162.0966,-0.4729,-42.7492,76.70202878442142,26.508153783212794,81.2606411169071,-19.612045288085938,-88.85962592230902,-43.31219991048177,2.448754641089109,0.435333251953125,1.274434457911123,-1.7462327745225694,-0.13570149739583334,2.374852498372396,-0.2388,-0.3216,0.9123,0.00263,-0.01836,0.00293,0.0011311967391520739,0.0009998086607083678,0.0009078942821361125,0.0005136588588356972,0.0004990643355995417,0.0004174651112407446,0.00887990277260542,0.0109335295855999,0.011707479134202003,passive,0
2.601,rehab,medium,-7.873064167661615,-666.6297490839415,321.29387052849097,-177.38770962155618,0.13248718864091727,-149.989904686791,31.879,-0.1278,-12.5267,136.9001,0.389,-34.3008,76.74305075466043,26.51536016180964,81.28113170661548,-19.641053941514755,-88.86099921332465,-43.27254401312934,2.6664212670656715,0.435333251953125,1.3234174369585396,-1.9016181098090277,-0.06785074869791667,2.5784132215711804,-0.2731,-0.4504,0.0604,-0.01378,-0.01794,0.00654,0.0011311967391520739,0.0009998086607083678,0.0009078942821361125,0.0005136588588356972,0.0004990643355995417,0.0004174651112407446,0.00887990277260542,0.0109335295855999,0.011707479134202003,passive,0
2.6209,rehab,medium,-6.971240546254774,-666.6339850808292,320.94121307347103,-177.38848379577587,0.13289434287601404,-149.9881486598142,34.595,-0.1052,-13.1788,98.9515,0.9643,-21.6523,76.82094762821009,26.528936707147277,81.31985579386796,-19.69500223795573,-88.8634745279948,-43.197021484375,2.938502849918781,0.435333251953125,1.4809719878848235,-1.9611612955729165,-0.13570149739583334,2.8498246934678817,-0.199,-0.4033,-0.3803,-0.00602,-0.00896,0.00665,0.0011311967391520739,0.0009998086607083678,0.0009078942821361125,0.0005136588588356972,0.0004990643355995417,0.0004174651112407446,0.00887990277260542,0.0109335295855999,0.011707479134202003,passive,0
2.6413,rehab,medium,-6.422457558462345,-666.6366636661398,320.73509936902076,-177.38843941363766,0.1327400112197054,-149.98813783912664,36.2755,-0.0637,-13.4934,77.3939,1.0924,-14.5781,76.86836016060101,26.536863723603805,81.34275984055925,-19.727520412868923,-88.86495802137587,-43.14999050564236,2.8296661376953125,0.489748208829672,1.4280730899017635,-1.9724697536892362,-0.06785074869791667,3.121236165364583,-0.2711,-0.3858,0.1666,-0.01685,-0.00729,0.00573,0.0011311967391520739,0.0009998086607083678,0.0009078942821361125,0.0005136588588356972,0.0004990643355995417,0.0004174651112407446,0.00887990277260542,0.0109335295855999,0.011707479134202003,passive,0
2.6612,rehab,medium,-5.5604381028758425,-666.6356260664368,320.4109574306203,-177.38908709284803,0.1333254684934074,-149.98963843324267,37.7739,-0.0505,-13.7234,70.717,0.9813,-13.1735,76.94273542649675,26.54893100851833,81.37904327694733,-19.777475992838543,-88.86722140842014,-43.074679904513886,3.2105844327718907,0.489748208829672,1.5504591535813737,-2.10829840766059,-0.06785074869791667,3.324796888563368,-0.0778,-0.2882,0.5612,0.00828,-0.01465,0.00505,0.0011311967391520739,0.0009998086607083678,0.0009078942821361125,0.0005136588588356972,0.0004990643355995417,0.0004174651112407446,0.00887990277260542,0.0109335295855999,0.011707479134202003,passive,0
2.6808,rehab,medium,-4.9513771599644585,-666.6353525470724,320.1999523354997,-177.3887006754794,0.13280224613856229,-149.989815943315,38.0353,-0.0372,-13.6159,71.1397,0.7402,-16.0168,76.9953215948426,26.556715257097,81.40323903300974,-19.811816745334202,-88.86890835232205,-43.022308349609375,3.373836101871906,0.489748208829672,1.514882758112237,-2.189932929144965,-0.06785074869791667,3.324796888563368,-0.2558,-0.4068,-0.1875,-0.00327,-0.01528,0.00943,0.0011311967391520739,0.0009998086607083678,0.0009078942821361125,0.0005136588588356972,0.0004990643355995417,0.0004174651112407446,0.00887990277260542,0.0109335295855999,0.011707479134202003,passive,0
2.701,rehab,medium,-3.9909446733819505,-666.6352331653441,319.8648060908984,-177.3886326717996,0.13261404953975256,-149.9910899157052,38.4338,-0.0105,-13.6131,78.044,0.4339,-23.1261,77.07826293341004,26.569421598226718,81.4408549695912,-19.865061442057293,-88.8715108235677,-42.93869866265191,3.5915027278484684,0.544163165706219,1.6280704913753095,-2.276602851019965,-0.06785074869791667,3.799769083658854,-0.228,-0.3527,0.589,-0.01884,-0.01561,-0.00216,0.0011311967391520739,0.0009998086607083678,0.0009078942821361125,0.0005136588588356972,0.0004990643355995417,0.0004174651112407446,0.00887990277260542,0.0109335295855999,0.011707479134202003,passive,0
2.7211,rehab,medium,-3.316535098121881,-666.6363811899242,319.6291801338131,-177.38890498608012,0.13277734693319476,-149.99106138306564,40.9143,-0.0071,-14.4105,91.6956,0.2246,-33.0357,77.13653942145923,26.578715107228497,81.46658038148786,-19.90166558159722,-88.87331644694011,-42.880867852105034,3.64592448319539,0.6529998779296875,1.6495944485806002,-2.3176998562282987,-0.13570149739583334,3.7319098578559027,-0.2428,-0.3533,0.3169,-0.01967,-0.01203,3e-05,0.0011311967391520739,0.0009998086607083678,0.0009078942821361125,0.0005136588588356972,0.0004990643355995417,0.0004174651112407446,0.00887990277260542,0.0109335295855999,0.011707479134202003,passive,0
2.7412,rehab,medium,-2.6161233671544712,-666.6370811085422,319.3738896388285,-177.38999575394763,0.13374624473438623,-149.99081235774818,43.8205,-0.0235,-15.5034,107.6625,0.2344,-43.7785,77.19705940473197,26.589014789845685,81.49367228592976,-19.93955824110243,-88.87514750162761,-42.82102796766493,3.918006066048499,0.6529998779296875,1.7249011049176206,-2.460623847113715,-0.13570149739583334,3.799769083658854,-0.2903,-0.3574,-0.4302,-0.01912,-0.00486,0.00208,0.0011311967391520739,0.0009998086607083678,0.0009078942821361125,0.0005136588588356972,0.0004990643355995417,0.0004174651112407446,0.00887990277260542,0.0109335295855999,0.011707479134202003,passive,0
2.7611,rehab,medium,-1.5410193933408705,-666.639076986909,318.98998764372016,-177.3906163894133,0.13431382284462132,-149.99125276377296,46.5019,-0.0298,-16.6253,113.6175,0.3717,-50.082,77.29000129322014,26.604644473236387,81.53470785310952,-19.998414781358505,-88.87794494628906,-42.72831386990017,3.754754396948484,0.6529998779296875,1.6709008547339108,-2.5169796413845487,-0.13570149739583334,3.8676198323567705,-0.2267,-0.291,0.477,-0.01053,-0.01542,-0.00123,0.0011311967391520739,0.0009998086607083678,0.0009078942821361125,0.0005136588588356972,0.0004990643355995417,0.0004174651112407446,0.00887990277260542,0.0109335295855999,0.011707479134202003,passive,0
2.7809,rehab,medium,-0.8078132970312187,-666.6379844293986,318.7282553885675,-177.3903767944376,0.13401289400906663,-149.99146104033252,48.2055,-0.0098,-17.483,97.0118,0.4805,-46.8729,77.35336983557976,26.615005342086942,81.56348577820428,-20.039994981553818,-88.87990315755208,-42.6652103000217,3.8635911091719524,0.6529998779296875,1.7934228878210086,-2.58453369140625,-0.13570149739583334,3.9354705810546875,-0.1585,-0.2163,0.5699,-0.00803,-0.01369,0.00408,0.0011311967391520739,0.0009998086607083678,0.0009078942821361125,0.0005136588588356972,0.0004990643355995417,0.0004174651112407446,0.00887990277260542,0.0109335295855999,0.011707479134202003,passive,0
2.801,rehab,medium,0.5227232862357614,-666.6371569843262,318.2495613078321,-177.38947266835058,0.132994122208428,-149.99031109803371,49.5631,0.0164,-18.2604,57.288,0.6965,-33.5658,77.46842714819577,26.634360587242806,81.6157048291499,-20.11661105685764,-88.88344658745659,-42.552176581488716,4.244502605778156,0.7618297916827815,1.9257755090694617,-2.793553670247396,-0.13570149739583334,4.071180555555555,-0.0968,-0.1942,0.535,-0.00323,-0.01558,0.00466,0.0011311967391520739,0.0009998086607083678,0.0009078942821361125,0.0005136588588356972,0.0004990643355995417,0.0004174651112407446,0.00887990277260542,0.0109335295855999,0.011707479134202003,passive,0
2.821,rehab,medium,1.308705966003713,-666.637976815566,317.95987791269306,-177.38928674941562,0.1327851429052466,-149.98901916761957,51.1815,0.0288,-19.123,11.7325,1.0103,-15.3911,77.53643224735072,26.64652984921295,81.64638632594949,-20.161895751953125,-88.88547261555989,-42.48597886827257,4.4077542748781715,0.7618297916827815,1.8238664381574876,-2.8499772813585067,-0.13570149739583334,4.206882052951388,-0.0668,-0.1915,0.9688,-0.00786,-0.00425,-0.00069,0.0011311967391520739,0.0009998086607083678,0.0009078942821361125,0.0005136588588356972,0.0004990643355995417,0.0004174651112407446,0.00887990277260542,0.0109335295855999,0.011707479134202003,passive,0
2.8409,rehab,medium,2.5047813429492125,-666.6375228717409,317.50684067941717,-177.38961672587723,0.13320353271387714,-149.98796381625985,51.4128,0.0448,-19.4403,-18.2646,1.0095,-0.9163,77.6399049664488,26.665749124961323,81.69373087363668,-20.231238471137154,-88.88845655653212,-42.384346856011284,4.353339318001624,0.7618297916827815,2.004984487401377,-2.921939425998264,-0.13570149739583334,4.342592027452257,-0.0698,-0.1767,0.4828,-0.00494,-0.02163,-0.00073,0.0011311967391520739,0.0009998086607083678,0.0009078942821361125,0.0005136588588356972,0.0004990643355995417,0.0004174651112407446,0.00887990277260542,0.0109335295855999,0.011707479134202003,passive,0
2.861,rehab,medium,3.292151187163615,-666.6358419864672,317.2056003380484,-177.38936004682458,0.13298233425854009,-149.98826439576504,50.0628,0.0643,-19.0919,-25.4216,0.6215,5.4935,77.70803243807046,26.678441869150294,81.72560210275178,-20.278345743815105,-88.89049953884549,-42.31645372178819,4.081257735148514,0.8162515470297029,2.047495322652382,-3.039457533094618,-0.13570149739583334,4.274732801649305,0.0224,-0.1982,1.0436,-0.00701,-0.01891,-0.00683,0.0011311967391520739,0.0009998086607083678,0.0009078942821361125,0.0005136588588356972,0.0004990643355995417,0.0004174651112407446,0.00887990277260542,0.0109335295855999,0.011707479134202003,passive,0
2.881,rehab,medium,4.465926328106851,-666.6333593942712,316.74674255982416,-177.3893479369514,0.1328847175689616,-149.9902924581033,48.6135,0.0708,-18.6489,-21.4354,0.1397,6.3322,77.80964917475634,26.698123440884128,81.77345653571705,-20.349290635850693,-88.8936784532335,-42.21361796061198,4.244502605778156,0.87066650390625,1.974615720239016,-3.02001953125,-0.13570149739583334,4.410442776150173,0.0059,-0.1338,0.878,-0.00822,-0.02066,-0.0058,0.0011311967391520739,0.0009998086607083678,0.0009078942821361125,0.0005136588588356972,0.0004990643355995417,0.0004174651112407446,0.00887990277260542,0.0109335295855999,0.011707479134202003,passive,0
2.9011,rehab,medium,5.262805640237135,-666.6337530875079,316.43409299074534,-177.38965024767927,0.1331809372780031,-149.99051510787058,47.6232,0.0843,-18.2155,-11.1402,-0.3735,1.3103,77.87868084293781,26.712067103621983,81.80505582601717,-20.396635267469616,-88.89574686686198,-42.14490254720052,4.516590987101639,0.87066650390625,1.955797554242729,-2.9507276746961804,-0.13570149739583334,4.274732801649305,0.0355,-0.1934,0.4427,-0.00657,-0.01639,0.00111,0.0011311967391520739,0.0009998086607083678,0.0009078942821361125,0.0005136588588356972,0.0004990643355995417,0.0004174651112407446,0.00887990277260542,0.0109335295855999,0.011707479134202003,passive,0
2.9212,rehab,medium,6.4922037370351955,-666.6322907016039,315.97317292836084,-177.38965019646594,0.1332915244211136,-149.9884621131268,47.5232,0.0779,-18.1445,5.354,-0.9566,-10.3172,77.98515168747099,26.73262567803411,81.85187009301517,-20.46728346082899,-88.89881557888455,-42.04128689236111,4.571005943978187,0.87066650390625,2.036508994527382,-3.011949327256944,-0.13570149739583334,4.139031304253472,0.2327,-0.1034,0.6029,0.01381,-0.02186,0.00063,0.0011311967391520739,0.0009998086607083678,0.0009078942821361125,0.0005136588588356972,0.0004990643355995417,0.0004174651112407446,0.00887990277260542,0.0109335295855999,0.011707479134202003,passive,0
2.9417,rehab,medium,7.30493328284574,-666.6288128474239,315.66611604445893,-177.3896527672158,0.1332848768961895,-149.98800768381005,49.5167,0.0359,-19.0487,29.3712,-1.5064,-29.5697,78.05552945278659,26.746181827960626,81.8833062200263,-20.514517890082466,-88.90093485514323,-41.97190178765191,4.4077542748781715,0.87066650390625,1.997961667504641,-2.9233466254340277,-0.13570149739583334,4.274732801649305,0.1117,-0.0503,0.5842,0.00513,-0.01536,0.00125,0.0011311967391520739,0.0009998086607083678,0.0009078942821361125,0.0005136588588356972,0.0004990643355995417,0.0004174651112407446,0.00887990277260542,0.0109335295855999,0.011707479134202003,passive,0
2.9611,rehab,medium,8.112948837334027,-666.6282013148957,315.35155619750645,-177.3895716957472,0.13317870503581297,-149.98755112973305,50.7068,0.0035,-19.8953,43.5524,-1.609,-46.6209,78.12557409305384,26.760574189743192,81.91474914550781,-20.56271023220486,-88.90306260850694,-41.90286424424913,4.353339318001624,0.9250814607827971,1.9728345210009282,-3.0597856309678817,-0.13570149739583334,4.139031304253472,0.1394,-0.063,0.6519,-0.00939,-0.00954,-0.00273,0.0011311967391520739,0.0009998086607083678,0.0009078942821361125,0.0005136588588356972,0.0004990643355995417,0.0004174651112407446,0.00887990277260542,0.0109335295855999,0.011707479134202003,passive,0
2.9813,rehab,medium,9.333375991750149,-666.6295544473393,314.87165806721885,-177.38918737466383,0.1327792269401978,-149.9857189299221,51.0279,-0.0325,-20.7811,36.3661,-1.3123,-56.2552,78.2314398737237,26.783077126682393,81.96197811919863,-20.636316935221355,-88.90625,-41.79967244466146,4.516590987101639,0.9250814607827971,2.0552251834680537,-3.0973137749565973,-0.20355224609375,4.274732801649305,0.1918,0.0153,0.9128,-0.01399,-0.00775,-0.00752,0.0011311967391520739,0.0009998086607083678,0.0009078942821361125,0.0005136588588356972,0.0004990643355995417,0.0004174651112407446,0.00887990277260542,0.0109335295855999,0.011707479134202003,passive,0
3.0009,rehab,medium,10.1520442080003,-666.6286474420986,314.541138137442,-177.38886375585838,0.13251372426743213,-149.98404120998202,51.534,-0.0706,-22.0573,23.5392,-0.7816,-61.1793,78.30243629984336,26.798502855961864,81.99461757546604,-20.68701002332899,-88.9083268907335,-41.7309315999349,4.6798426562016555,0.979496417659344,2.079142202245127,-3.1855265299479165,-0.13570149739583334,4.274732801649305,0.4574,0.0157,0.1808,0.01186,-0.01818,-0.00149,0.0011311967391520739,0.0009998086607083678,0.0009078942821361125,0.0005136588588356972,0.0004990643355995417,0.0004174651112407446,0.00887990277260542,0.0109335295855999,0.011707479134202003,passive,0
3.021,rehab,medium,11.549506838215374,-666.6335700075471,313.93214690337095,-177.38819694111342,0.13201853693107865,-149.9846485354101,51.3045,-0.0853,-23.1746,4.5026,-0.0615,-57.6248,78.42380259296682,26.82798102350518,82.05307762221534,-20.77965630425347,-88.9119381374783,-41.61001417371962,4.081257735148514,1.0883331298828125,2.102760088325727,-3.420003255208333,-0.13570149739583334,4.139031304253472,0.2825,-0.0535,0.1254,0.00053,-0.01894,0.00109,0.0011311967391520739,0.0009998086607083678,0.0009078942821361125,0.0005136588588356972,0.0004990643355995417,0.0004174651112407446,0.00887990277260542,0.0109335295855999,0.011707479134202003,passive,0
3.0412,rehab,medium,12.339163637025182,-666.6348828959793,313.56506610651195,-177.38777095985344,0.1316202202876165,-149.985098490264,52.1729,-0.0657,-24.6918,-13.8004,0.4234,-47.8737,78.49239236057394,26.845650248008198,82.088463660514,-20.835486518012154,-88.91403198242188,-41.54161241319444,4.190087648901609,1.0883331298828125,2.254427163907797,-3.624479505750868,-0.13570149739583334,4.410442776150173,0.2598,0.0721,0.6569,0.00401,-0.013,-0.00108,0.0011311967391520739,0.0009998086607083678,0.0009078942821361125,0.0005136588588356972,0.0004990643355995417,0.0004174651112407446,0.00887990277260542,0.0109335295855999,0.011707479134202003,passive,0
3.0612,rehab,medium,13.522359209300248,-666.6351407523846,312.9796870325022,-177.38828621278932,0.13196294286232452,-149.98616568573865,50.9641,-0.0276,-25.2593,-24.7698,0.7415,-34.8155,78.59517843416421,26.87395228017675,82.14410234205793,-20.922105577256943,-88.917236328125,-41.438751220703125,4.298924361125077,1.251584798982828,2.3987586899559097,-3.762825859917535,-0.13570149739583334,4.274732801649305,0.3789,0.0615,0.4265,0.00642,-0.00783,0.00229,0.0011311967391520739,0.0009998086607083678,0.0009078942821361125,0.0005136588588356972,0.0004990643355995417,0.0004174651112407446,0.00887990277260542,0.0109335295855999,0.011707479134202003,passive,0
3.0813,rehab,medium,14.313463016210411,-666.6382339371614,312.5680401685627,-177.38909439314762,0.1326582632173774,-149.98649592719363,50.4247,-0.0102,-25.8749,-32.8586,0.9923,-19.2428,78.66396535741221,26.894442869885133,82.18205140368774,-20.981665717230904,-88.91932169596355,-41.37031555175781,4.135672692025062,1.251584798982828,2.3993841492303525,-3.782246907552083,-0.13570149739583334,4.47829352484809,0.3408,0.158,0.8569,0.00254,-0.00904,0.0015,0.0011311967391520739,0.0009998086607083678,0.0009078942821361125,0.0005136588588356972,0.0004990643355995417,0.0004174651112407446,0.00887990277260542,0.0109335295855999,0.011707479134202003,passive,0
3.1012,rehab,medium,15.514731374386223,-666.6349186605014,311.93913891914315,-177.39019965742764,0.1337730574145328,-149.98738101265235,50.7845,0.0049,-26.6204,-28.6128,0.9762,-8.923,78.76828788530709,26.924995195747602,82.24125248370784,-21.07317606608073,-88.922364976671,-41.26614888509115,4.244502605778156,1.305999755859375,2.4960787933651765,-3.7333424886067705,-0.13570149739583334,4.342592027452257,0.4036,0.1096,0.9809,0.00817,-0.01944,-0.00306,0.0011311967391520739,0.0009998086607083678,0.0009078942821361125,0.0005136588588356972,0.0004990643355995417,0.0004174651112407446,0.00887990277260542,0.0109335295855999,0.011707479134202003,passive,0
3.121,rehab,medium,16.323916358408866,-666.6334854109213,311.51303621975734,-177.3907108378583,0.13423269570254928,-149.98653980052845,48.9797,0.0083,-25.9797,-21.5468,0.8354,-0.7346,78.83859766591894,26.945975275322944,82.28105072927947,-21.135457356770832,-88.92443339029948,-41.19739108615451,4.4077542748781715,1.305999755859375,2.4689528965713956,-3.9698367648654513,-0.06785074869791667,4.410442776150173,0.1992,0.0633,1.2117,-0.00454,-0.01122,-0.00819,0.0011311967391520739,0.0009998086607083678,0.0009078942821361125,0.0005136588588356972,0.0004990643355995417,0.0004174651112407446,0.00887990277260542,0.0109335295855999,0.011707479134202003,passive,0
3.1411,rehab,medium,17.529308870656543,-666.6330389952675,310.8840642790213,-177.39018309481085,0.1336940269039492,-149.9859038487224,48.4877,0.0118,-25.7435,-12.7991,0.7524,5.5138,78.94340968368077,26.97730262680809,82.33989828884012,-21.229663425021702,-88.9276123046875,-41.09429253472222,4.353339318001624,1.360414712735922,2.399180195119121,-3.9153798421223955,-0.13570149739583334,4.342592027452257,0.4835,0.24,1.3034,0.02337,-0.00601,-0.00364,0.0011311967391520739,0.0009998086607083678,0.0009078942821361125,0.0005136588588356972,0.0004990643355995417,0.0004174651112407446,0.00887990277260542,0.0109335295855999,0.011707479134202003,passive,0
3.161,rehab,medium,18.32660186974984,-666.6339878496656,310.46284305334916,-177.3898421901948,0.13339539519536647,-149.9862351201661,48.1877,0.0417,-25.5144,-2.1189,0.7161,8.1845,79.01277447691058,26.998643025313275,82.37873795008895,-21.29248725043403,-88.92970614963107,-41.02531433105469,4.244502605778156,1.4692514249593904,2.4695035726717203,-3.9187113444010415,-0.20355224609375,4.342592027452257,0.4771,0.2936,1.5868,0.00813,-0.01432,-0.00714,0.0011311967391520739,0.0009998086607083678,0.0009078942821361125,0.0005136588588356972,0.0004990643355995417,0.0004174651112407446,0.00887990277260542,0.0109335295855999,0.011707479134202003,passive,0
3.1816,rehab,medium,19.511382134796946,-666.6362596300515,309.8369489246912,-177.38904313558223,0.13271544283973657,-149.9873867374139,49.2867,0.0517,-25.8875,13.1978,0.5388,5.0747,79.11589367554919,27.0307454024211,82.435994667582,-21.38616773817274,-88.93283420138889,-40.92211405436198,4.135672692025062,1.305999755859375,2.4208197263207767,-3.7613762749565973,-0.13570149739583334,4.410442776150173,0.3911,0.2282,1.2346,0.00357,-0.00505,-0.0029,0.0011311967391520739,0.0009998086607083678,0.0009078942821361125,0.0005136588588356972,0.0004990643355995417,0.0004174651112407446,0.00887990277260542,0.0109335295855999,0.011707479134202003,passive,0
3.2009,rehab,medium,20.29427832531168,-666.6343202998144,309.4208951103966,-177.3887160060523,0.13242977845109147,-149.98919613404456,50.1453,0.0636,-26.1164,36.0527,0.0294,-5.4131,79.18400075175974,27.051868249874303,82.47432444355276,-21.448245578342014,-88.93494500054253,-40.852906968858505,4.4077542748781715,1.360414712735922,2.3739986608524135,-3.805711534288194,-0.13570149739583334,4.342592027452257,0.4728,0.1542,1.2227,0.01046,-0.00855,-0.00651,0.0011311967391520739,0.0009998086607083678,0.0009078942821361125,0.0005136588588356972,0.0004990643355995417,0.0004174651112407446,0.00887990277260542,0.0109335295855999,0.011707479134202003,passive,0
3.221,rehab,medium,21.082179411616277,-666.6327514751853,309.0005765915056,-177.38902129968932,0.1326769997524214,-149.98986299175922,49.5519,0.0767,-25.5628,37.6604,-0.8354,-8.644,79.252556527015,27.073534974957457,82.51223271436031,-21.509594387478298,-88.93704732259114,-40.784386528862846,4.026835979801594,1.305999755859375,2.3568053292756033,-3.833940294053819,-0.20355224609375,4.274732801649305,0.5962,0.1485,0.9725,-0.00149,-0.01713,-0.01414,0.0011311967391520739,0.0009998086607083678,0.0009078942821361125,0.0005136588588356972,0.0004990643355995417,0.0004174651112407446,0.00887990277260542,0.0109335295855999,0.011707479134202003,passive,0
3.2411,rehab,medium,22.49086304884546,-666.6271422873784,308.285419134201,-177.38889403713927,0.13258701534651385,-149.98894338545014,50.2725,0.0544,-25.6665,17.1556,-1.7777,-3.2312,79.37509215704286,27.110600235438582,82.57677739209468,-21.615159776475693,-88.94071790907118,-40.663977728949654,4.353339318001624,1.360414712735922,2.273136554378094,-3.725272284613715,-0.13570149739583334,4.274732801649305,0.5454,0.2338,1.4246,0.00136,-0.02644,-0.011,0.0011311967391520739,0.0009998086607083678,0.0009078942821361125,0.0005136588588356972,0.0004990643355995417,0.0004174651112407446,0.00887990277260542,0.0109335295855999,0.011707479134202003,passive,0
3.2611,rehab,medium,23.29776132872896,-666.6271146962233,307.87543842827245,-177.38917611564457,0.1328111703915623,-149.98847784873973,51.26,0.0116,-26.0454,-7.1654,-2.2878,2.2567,79.44535434836209,27.13256609321821,82.61250335391205,-21.674669053819443,-88.94285413953993,-40.59486389160156,4.462176030225093,1.4148296696124691,2.272701452274134,-3.7459648980034723,-0.13570149739583334,4.071180555555555,0.6327,0.2696,1.5126,0.01057,-0.01584,-0.01186,0.0011311967391520739,0.0009998086607083678,0.0009078942821361125,0.0005136588588356972,0.0004990643355995417,0.0004174651112407446,0.00887990277260542,0.0109335295855999,0.011707479134202003,passive,0
3.2809,rehab,medium,24.501881432386433,-666.6277018723899,307.27474658277833,-177.38836578217536,0.1320658264338225,-149.98821708926346,52.569,-0.0543,-26.8711,-24.721,-2.1816,2.8031,79.55024794776841,27.165042386196628,82.66500794061339,-21.76400926378038,-88.94608391655815,-40.49125671386719,4.4077542748781715,1.4148296696124691,2.189093863609994,-3.6802419026692705,-0.20355224609375,4.139031304253472,0.6405,0.3641,1.6296,0.01792,-0.02,-0.01431,0.0011311967391520739,0.0009998086607083678,0.0009078942821361125,0.0005136588588356972,0.0004990643355995417,0.0004174651112407446,0.00887990277260542,0.0109335295855999,0.011707479134202003,passive,0
3.3009,rehab,medium,25.303908758078403,-666.6291725359354,306.85926354087064,-177.38868611619048,0.13232065064718285,-149.98765746692436,51.0801,-0.1237,-26.3972,-27.0537,-1.6162,-5.1247,79.62014302168743,27.187878448184172,82.7002988003268,-21.823883056640625,-88.94821166992188,-40.422609117296005,4.462176030225093,1.5236663818359375,2.127656086836711,-3.7627071804470487,-0.13570149739583334,4.139031304253472,0.6849,0.2399,0.6424,0.01467,-0.02136,-0.01065,0.0011311967391520739,0.0009998086607083678,0.0009078942821361125,0.0005136588588356972,0.0004990643355995417,0.0004174651112407446,0.00887990277260542,0.0109335295855999,0.011707479134202003,passive,0
3.3213,rehab,medium,26.5199896766441,-666.6347015770467,306.2329156059948,-177.38849025660693,0.1321196084425703,-149.98547389844825,48.414,-0.1606,-25.6324,-27.844,-0.5501,-14.2517,79.7261923610574,27.222992547667854,82.75274220079478,-21.91494411892361,-88.95140753851996,-40.31979031032986,4.353339318001624,1.5236663818359375,2.168358528968131,-3.900180392795139,-0.13570149739583334,4.342592027452257,0.5672,0.3232,1.392,-0.00141,-0.0016,-0.01291,0.0011311967391520739,0.0009998086607083678,0.0009078942821361125,0.0005136588588356972,0.0004990643355995417,0.0004174651112407446,0.00887990277260542,0.0109335295855999,0.011707479134202003,passive,0
3.3412,rehab,medium,27.322343548400656,-666.6387492974413,305.7971992281561,-177.38917807684413,0.13268065071155555,-149.9849865715256,47.928,-0.148,-26.0318,-25.3438,0.7578,-23.9291,79.79618941203202,27.24759621195274,82.78854294578628,-21.976615058051216,-88.95354376898871,-40.25099012586806,4.353339318001624,1.4692514249593904,2.262612522238552,-3.887956407335069,-0.13570149739583334,4.274732801649305,0.6852,0.3319,0.7615,0.00623,-0.00989,-0.01343,0.0011311967391520739,0.0009998086607083678,0.0009078942821361125,0.0005136588588356972,0.0004990643355995417,0.0004174651112407446,0.00887990277260542,0.0109335295855999,0.011707479134202003,passive,0
3.361,rehab,medium,28.51781443373631,-666.6402440544883,305.1337015514298,-177.38959488654967,0.13304356093971567,-149.98645844232726,47.7508,-0.0925,-26.7205,-11.9639,1.9869,-36.9567,79.90044395522315,27.284552696907873,82.84416803038947,-22.071914672851562,-88.95675659179688,-40.14635721842448,4.298924361125077,1.5780813387124846,2.3517812596689356,-4.126756456163195,-0.13570149739583334,4.342592027452257,0.6915,0.32,0.7065,-0.0021,-0.02142,-0.014,0.0011311967391520739,0.0009998086607083678,0.0009078942821361125,0.0005136588588356972,0.0004990643355995417,0.0004174651112407446,0.00887990277260542,0.0109335295855999,0.011707479134202003,passive,0
3.3812,rehab,medium,29.309875153832206,-666.6427132249406,304.6720916496963,-177.39014962422203,0.1335014419270076,-149.986914903317,48.7799,-0.0377,-28.2107,17.1851,2.9135,-58.7723,79.96955720504911,27.310516055267637,82.88232104613049,-22.137459648980034,-88.95887586805556,-40.0775400797526,4.353339318001624,1.5780813387124846,2.3477361697961787,-4.184960259331597,-0.13570149739583334,4.342592027452257,0.7011,0.3497,1.2529,0.00105,-0.01803,-0.01242,0.0011311967391520739,0.0009998086607083678,0.0009078942821361125,0.0005136588588356972,0.0004990643355995417,0.0004174651112407446,0.00887990277260542,0.0109335295855999,0.011707479134202003,passive,0
3.4009,rehab,medium,30.10610788209302,-666.6423660391284,304.2076048737913,-177.39004218066623,0.1333453350847613,-149.98712018224748,49.6111,0.0177,-29.6939,48.1213,2.9604,-84.0905,80.0390103783938,27.33634344421991,82.9215142278388,-22.204810248480904,-88.9610375298394,-40.00865512424045,4.244502605778156,1.6325030940594059,2.5578496951868037,-4.250132242838542,-0.13570149739583334,4.274732801649305,0.7583,0.4298,1.572,0.01,-0.02595,-0.0186,0.0011311967391520739,0.0009998086607083678,0.0009078942821361125,0.0005136588588356972,0.0004990643355995417,0.0004174651112407446,0.00887990277260542,0.0109335295855999,0.011707479134202003,passive,0
3.4211,rehab,medium,31.316085273929644,-666.6392412748573,303.4725406338297,-177.39057943285258,0.13380966844456824,-149.98589910542913,50.2343,0.0792,-31.2009,55.4687,2.0432,-99.8437,80.14451584013382,27.37709347564395,82.98333951742342,-22.309883965386284,-88.96417405870226,-39.90557352701823,4.4077542748781715,1.686918050935953,2.5563064424118194,-4.546593560112847,-0.13570149739583334,4.342592027452257,0.7111,0.3717,1.1111,-0.00269,-0.01182,-0.01133,0.0011311967391520739,0.0009998086607083678,0.0009078942821361125,0.0005136588588356972,0.0004990643355995417,0.0004174651112407446,0.00887990277260542,0.0109335295855999,0.011707479134202003,passive,0
3.441,rehab,medium,32.12455477813116,-666.6379998460226,302.975608375537,-177.38966748604156,0.13314763229205465,-149.985665493308,50.9526,0.1167,-32.9134,33.7317,0.6152,-95.3481,80.21503637332728,27.404742854656558,83.0255648169187,-22.383041381835938,-88.96621704101562,-39.83612060546875,4.571005943978187,1.686918050935953,2.7677320725846997,-4.713685777452257,-0.13570149739583334,4.274732801649305,0.7361,0.355,1.4583,0.00122,-0.01439,-0.01295,0.0011311967391520739,0.0009998086607083678,0.0009078942821361125,0.0005136588588356972,0.0004990643355995417,0.0004174651112407446,0.00887990277260542,0.0109335295855999,0.011707479134202003,passive,0
3.4613,rehab,medium,33.535794127996,-666.6349110831212,302.0512751152957,-177.3884582729482,0.13216802574501563,-149.9852734570251,51.5899,0.1389,-34.8493,-4.5961,-0.7837,-75.1433,80.33817706721844,27.45609170139426,83.10399876962794,-22.518141004774304,-88.96987915039062,-39.71491495768229,4.571005943978187,1.9045846769125154,2.8379398761409345,-5.036366780598958,-0.13570149739583334,4.139031304253472,0.7552,0.2367,0.6373,-0.00311,-0.01487,-0.01109,0.0011311967391520739,0.0009998086607083678,0.0009078942821361125,0.0005136588588356972,0.0004990643355995417,0.0004174651112407446,0.00887990277260542,0.0109335295855999,0.011707479134202003,passive,0
3.4813,rehab,medium,34.3379105821159,-666.6357098036071,301.4979945472217,-177.3874903718835,0.1313689006220579,-149.98509123061004,52.7764,0.111,-37.3411,-27.2883,-1.589,-63.4211,80.40822850595606,27.48716071100518,83.15052070239983,-22.599122789171005,-88.97196451822917,-39.6459706624349,4.244502605778156,1.9589996337890625,3.00355061446086,-4.938719007703993,-0.13570149739583334,4.410442776150173,0.8689,0.5098,1.2194,0.00206,-0.0125,-0.01567,0.0011311967391520739,0.0009998086607083678,0.0009078942821361125,0.0005136588588356972,0.0004990643355995417,0.0004174651112407446,0.00887990277260542,0.0109335295855999,0.011707479134202003,passive,0
3.5012,rehab,medium,35.52966855795383,-666.6309383229328,300.62327293719113,-177.3870942448074,0.1310620335440784,-149.9859531870449,52.34,0.0311,-39.2039,-29.5312,-1.9215,-61.5067,80.51225190115447,27.535606610893023,83.2245900371287,-22.725338406032986,-88.97506713867188,-39.54252454969618,4.244502605778156,2.122251302889078,3.206382978080523,-5.38087632921007,-0.13570149739583334,4.206882052951388,0.7651,0.5379,1.0246,0.00331,-0.00808,-0.01442,0.0011311967391520739,0.0009998086607083678,0.0009078942821361125,0.0005136588588356972,0.0004990643355995417,0.0004174651112407446,0.00887990277260542,0.0109335295855999,0.011707479134202003,passive,0
3.521,rehab,medium,36.32302139804965,-666.6284178312138,300.01203840998676,-177.3873241228698,0.13129891433952476,-149.9863732772622,50.0323,-0.0405,-39.2146,-25.3191,-1.8586,-58.7294,80.58152151579904,27.569673745939046,83.2757553251663,-22.812364366319443,-88.97709316677518,-39.47382609049479,4.4077542748781715,2.122251302889078,3.349116863590656,-5.526343451605903,-0.13570149739583334,4.410442776150173,0.8347,0.6616,1.0486,0.01395,-0.00669,-0.00976,0.0011311967391520739,0.0009998086607083678,0.0009078942821361125,0.0005136588588356972,0.0004990643355995417,0.0004174651112407446,0.00887990277260542,0.0109335295855999,0.011707479134202003,passive,0
3.5412,rehab,medium,37.51125978843976,-666.6292442985014,299.05371019223463,-177.38807766915264,0.1319162145895801,-149.987915951846,46.9977,-0.0861,-38.2505,-28.3497,-1.4262,-45.3153,80.68537494923808,27.623830360941366,83.35463117844988,-22.94762505425347,-88.98020426432292,-39.36997307671441,4.353339318001624,2.2855029719890934,3.3324538127030476,-5.555470784505208,-0.13570149739583334,4.342592027452257,0.8502,0.5256,1.2192,-0.00728,-0.00795,-0.01726,0.0011311967391520739,0.0009998086607083678,0.0009078942821361125,0.0005136588588356972,0.0004990643355995417,0.0004174651112407446,0.00887990277260542,0.0109335295855999,0.011707479134202003,passive,0
3.5613,rehab,medium,38.30585474432946,-666.6326292325973,298.3923988016587,-177.38869128364922,0.13239817608338333,-149.9880286810491,47.4669,-0.065,-39.7067,-29.1529,-0.5052,-33.9509,80.75487571187539,27.66171143786742,83.40820992347038,-23.040415445963543,-88.98226420084636,-39.30141872829861,4.4077542748781715,2.448754641089109,3.4077468720993194,-5.956302218967013,-0.13570149739583334,4.410442776150173,0.8631,0.573,1.3859,0.00312,-0.01055,-0.014,0.0011311967391520739,0.0009998086607083678,0.0009078942821361125,0.0005136588588356972,0.0004990643355995417,0.0004174651112407446,0.00887990277260542,0.0109335295855999,0.011707479134202003,passive,0
3.5812,rehab,medium,39.497303108157716,-666.6398215218607,297.375546959751,-177.38926565891222,0.1329098192588296,-149.9882979912594,50.0153,-0.03,-42.6429,2.0534,0.7767,-51.1637,80.85913025506652,27.7204162295502,83.4900431113668,-23.18334791395399,-88.98529052734375,-39.198523627387154,4.190087648901609,2.503169597965656,3.4119211329091894,-6.1072540283203125,-0.13570149739583334,4.206882052951388,0.8443,0.6081,1.2713,0.00277,-0.01679,-0.01219,0.0011311967391520739,0.0009998086607083678,0.0009078942821361125,0.0005136588588356972,0.0004990643355995417,0.0004174651112407446,0.00887990277260542,0.0109335295855999,0.011707479134202003,passive,0
3.6009,rehab,medium,40.291496260229955,-666.6412542698289,296.68736422774407,-177.38930225290636,0.13296113449176092,-149.98832386566227,50.2628,-0.0294,-43.5921,38.963,1.5484,-75.204,80.92859022688157,27.759881350073485,83.5460353133702,-23.280843098958332,-88.98729960123698,-39.130147298177086,4.4077542748781715,2.3943328857421875,3.4654862809889386,-6.271353827582465,-0.13570149739583334,4.274732801649305,0.9165,0.5843,1.7995,0.00438,-0.00787,-0.01758,0.0011311967391520739,0.0009998086607083678,0.0009078942821361125,0.0005136588588356972,0.0004990643355995417,0.0004174651112407446,0.00887990277260542,0.0109335295855999,0.011707479134202003,passive,0
3.621,rehab,medium,41.095178669886906,-666.6392251858591,295.99426131482505,-177.38901065634448,0.13271774932413846,-149.98852857517863,49.9917,-0.0202,-44.153,50.7487,1.4178,-81.2164,80.99884561973043,27.799421253770884,83.60295210734452,-23.37980482313368,-88.98935953776042,-39.06081305609809,4.462176030225093,2.448754641089109,3.5427237029122836,-6.27640618218316,-0.13570149739583334,4.47829352484809,0.8869,0.7163,1.8113,0.00677,-0.02037,-0.01648,0.0011311967391520739,0.0009998086607083678,0.0009078942821361125,0.0005136588588356972,0.0004990643355995417,0.0004174651112407446,0.00887990277260542,0.0109335295855999,0.011707479134202003,passive,0
