t,trajectory_type,trajectory_variant,x,y,z,rx,ry,rz,vx,vy,vz,ax,ay,az,j1,j2,j3,j4,j5,j6,dj1,dj2,dj3,dj4,dj5,dj6,fx,fy,fz,tx,ty,tz,Mx,My,Mz,Bx,By,Bz,Kx,Ky,Kz,mode,comfort
0.0007,rehab,safe_near_limit_slow,80.2195463848624,-666.635053893404,262.47557621908663,-177.65188250594497,0.29203263788807693,-149.8520563500996,0.3403,0.1067,-0.6933,-11.2709,-3.1644,31.8193,84.4282320230314,30.0637945798364,85.69201327786587,-27.523023817274304,-89.11313374837239,-35.81669277615017,-0.0,-0.0,0.016608663124613243,-0.019700792100694444,0.06785074869791667,-0.0,-2.1088,-0.9967,-0.9754,-0.00156,-0.00857,0.03621,0.0008511565974913538,0.0009780877735465765,0.0008152628433890641,0.00040977494791150093,0.0005042317789047956,0.00040525998338125646,0.012134268879890442,0.01189246866852045,0.01164538785815239,passive,0
0.0208,rehab,safe_near_limit_slow,80.21955871889145,-666.634925500873,262.47586032658336,-177.65186609824252,0.2920217422890722,-149.85208166822042,0.2422,0.0694,-0.4314,-10.9416,-2.829,26.9978,84.4282320230314,30.06376058748453,85.69202687480661,-27.523023817274304,-89.11313374837239,-35.81666734483507,-0.05441495687654703,0.05441495687654703,0.006166212629563738,0.027211507161458332,0.06785074869791667,-0.0,-2.1181,-0.9533,-0.6432,-0.01557,-0.00547,0.04011,0.0008511565974913538,0.0009780877735465765,0.0008152628433890641,0.00040977494791150093,0.0005042317789047956,0.00040525998338125646,0.012134268879890442,0.01189246866852045,0.01164538785815239,passive,0
0.0407,rehab,safe_near_limit_slow,80.21944913229196,-666.634922459749,262.4762407210692,-177.65184149981727,0.2919828642120285,-149.85208053464436,0.0275,0.0044,0.0575,-10.6605,-2.1475,18.5772,84.42822522456103,30.06373339360303,85.69202007633625,-27.52303229437934,-89.11315070258246,-35.8166758219401,-0.0,0.05441495687654703,-0.020721737701113862,0.003161960177951389,-0.0,-0.0,-2.3019,-0.9871,-1.0335,-0.01928,-0.01699,0.04025,0.0008511565974913538,0.0009780877735465765,0.0008152628433890641,0.00040977494791150093,0.0005042317789047956,0.00040525998338125646,0.012134268879890442,0.01189246866852045,0.01164538785815239,passive,0
0.0608,rehab,safe_near_limit_slow,80.2194025112,-666.634753450168,262.47704431077193,-177.65178143844665,0.29195072094125823,-149.85210374044644,-0.2242,-0.042,0.4811,-11.1917,-1.4575,12.6314,84.42821842609065,30.063672207369663,85.692033673277,-27.523023817274304,-89.11315070258246,-35.816658867730034,-0.0,-0.0,-0.019817541141321164,0.003238254123263889,-0.0,-0.0,-2.1057,-0.8728,-0.4259,-0.01523,0.00107,0.03672,0.0008511565974913538,0.0009780877735465765,0.0008152628433890641,0.00040977494791150093,0.0005042317789047956,0.00040525998338125646,0.012134268879890442,0.01189246866852045,0.01164538785815239,passive,0
0.0812,rehab,safe_near_limit_slow,80.21855330424265,-666.6346337240439,262.4788950658781,-177.65165032890573,0.2918568510279634,-149.85218636461062,-0.5296,-0.0714,0.864,-13.0314,-0.7998,9.6631,84.42816403832767,30.063563431843672,85.69201327786587,-27.523023817274304,-89.1131591796875,-35.816650390625,-0.05441495687654703,-0.0,-0.005160039014155322,0.022557576497395832,-0.0,-0.0,-2.162,-0.8675,-0.5719,-0.00042,-0.00613,0.03801,0.0008511565974913538,0.0009780877735465765,0.0008152628433890641,0.00040977494791150093,0.0005042317789047956,0.00040525998338125646,0.012134268879890442,0.01189246866852045,0.01164538785815239,passive,0
0.1008,rehab,safe_near_limit_slow,80.2145078505676,-666.6342287371597,262.4873198682362,-177.65105465921275,0.29141827040952933,-149.85252881581633,-0.857,-0.07,1.0922,-16.7467,-0.2361,10.6026,84.42792609186456,30.063101135858215,85.69195889010288,-27.523006863064236,-89.1131591796875,-35.816658867730034,-0.05441495687654703,-0.0,0.008368917030863243,0.02288818359375,-0.0,-0.0,-2.0922,-1.0055,-0.4257,-0.00142,0.00195,0.03845,0.0008511565974913538,0.0009780877735465765,0.0008152628433890641,0.00040977494791150093,0.0005042317789047956,0.00040525998338125646,0.012134268879890442,0.01189246866852045,0.01164538785815239,passive,0
0.1207,rehab,safe_near_limit_slow,80.18387556272219,-666.6370776967282,262.5308238626211,-177.6480710518168,0.2892661035060595,-149.85506308123774,-1.1261,-0.0463,1.1284,-19.7184,0.6117,12.1609,84.42579817063738,30.06055170946782,85.69081674707998,-27.522506713867188,-89.1131591796875,-35.81671820746528,-0.16324487062964108,-0.16324487062964108,-0.10589977302173577,0.06115383572048611,-0.06785074869791667,-0.06785074869791667,-2.1465,-0.9811,-0.5066,-0.00799,-0.00223,0.0398,0.0008511565974913538,0.0009780877735465765,0.0008152628433890641,0.00040977494791150093,0.0005042317789047956,0.00040525998338125646,0.012134268879890442,0.01189246866852045,0.01164538785815239,passive,0
0.1407,rehab,safe_near_limit_slow,80.14962601634502,-666.6409489958751,262.5704614117544,-177.64622528755376,0.28794076946517994,-149.85740555480672,-1.537,-0.0339,1.3262,-21.2724,1.4984,14.7702,84.42280004520228,30.057825522847693,85.6887976013788,-27.520556979709202,-89.1131591796875,-35.8170657687717,-0.16324487062964108,-0.16324487062964108,-0.10799370189704517,0.13532850477430555,-0.0,-0.0,-2.1155,-1.0629,-1.0017,-0.00101,0.00536,0.0442,0.0008511565974913538,0.0009780877735465765,0.0008152628433890641,0.00040977494791150093,0.0005042317789047956,0.00040525998338125646,0.012134268879890442,0.01189246866852045,0.01164538785815239,passive,0
0.1609,rehab,safe_near_limit_slow,80.1032784005872,-666.6416671260081,262.6094146103648,-177.64629136918657,0.28790305704534414,-149.85796283033926,-1.9852,-0.0299,1.6134,-24.4832,1.8706,22.432,84.41887052932589,30.054922575997836,85.68654730768488,-27.515843709309895,-89.11314222547743,-35.81997341579861,-0.16324487062964108,-0.10882991375309406,-0.08440300969794245,0.2691311306423611,0.06785074869791667,-0.20355224609375,-2.1699,-0.9238,-1.2902,0.00217,-0.00446,0.04033,0.0008511565974913538,0.0009780877735465765,0.0008152628433890641,0.00040977494791150093,0.0005042317789047956,0.00040525998338125646,0.012134268879890442,0.01189246866852045,0.01164538785815239,passive,0
0.1814,rehab,safe_near_limit_slow,80.0772941419108,-666.6401522279712,262.6229267789949,-177.64757686171671,0.2887641868488522,-149.8575820881905,-2.635,0.0048,2.2381,-32.2493,1.8957,36.5038,84.41587920236115,30.05329774157836,85.68521480749149,-27.510943942599827,-89.11311679416232,-35.823372734917534,-0.2176666259765625,-0.10882991375309406,-0.08106496074412128,0.3400760226779514,-0.0,-0.20355224609375,-2.2156,-0.8767,-0.7549,-0.00901,0.00648,0.03982,0.0008511565974913538,0.0009780877735465765,0.0008152628433890641,0.00040977494791150093,0.0005042317789047956,0.00040525998338125646,0.012134268879890442,0.01189246866852045,0.01164538785815239,passive,0
0.201,rehab,safe_near_limit_slow,80.01421592987292,-666.636235136399,262.6621256718941,-177.65088456330915,0.29100759576122287,-149.85609865265155,-3.5461,0.0781,3.3087,-43.723,1.6826,53.8375,84.41032485206529,30.05000048344678,85.68218268970452,-27.500423855251736,-89.11304897732205,-35.83030700683594,-0.2720815828531095,-0.2176666259765625,-0.19640780911587252,0.5331844753689235,-0.0,-0.339262220594618,-2.0262,-1.1012,-1.446,0.01305,-0.01628,0.04702,0.0008511565974913538,0.0009780877735465765,0.0008152628433890641,0.00040977494791150093,0.0005042317789047956,0.00040525998338125646,0.012134268879890442,0.01189246866852045,0.01164538785815239,passive,0
0.2208,rehab,safe_near_limit_slow,79.95367126947336,-666.6358945666349,262.71671291790256,-177.65220445296302,0.29187296272901814,-149.855189945675,-4.1093,0.1386,4.1897,-57.9675,1.3769,71.2938,84.40502204517327,30.046064169100013,85.67838234476524,-27.49093797471788,-89.1129642062717,-35.83641899956597,-0.3809114966062036,-0.32649653972965653,-0.2968076196047339,0.6649610731336806,-0.0,-0.4071129692925347,-2.1284,-0.9165,-1.0003,0.00716,-0.00046,0.04625,0.0008511565974913538,0.0009780877735465765,0.0008152628433890641,0.00040977494791150093,0.0005042317789047956,0.00040525998338125646,0.012134268879890442,0.01189246866852045,0.01164538785815239,passive,0
0.2408,rehab,safe_near_limit_slow,79.83171165396223,-666.6367949011994,262.846701191007,-177.65277574066042,0.2923478894289576,-149.85376643202815,-5.3251,0.1397,5.7958,-74.3282,0.9297,86.9807,84.39432805127437,30.036940621857596,85.670061017027,-27.472415500217014,-89.11261664496527,-35.848329332139755,-0.489748208829672,-0.489748208829672,-0.37392946753171413,0.9147728814019097,-0.06785074869791667,-0.5428229437934028,-2.0879,-1.0365,-0.7182,-0.00136,-0.00373,0.03969,0.0008511565974913538,0.0009780877735465765,0.0008152628433890641,0.00040977494791150093,0.0005042317789047956,0.00040525998338125646,0.012134268879890442,0.01189246866852045,0.01164538785815239,passive,0
0.2607,rehab,safe_near_limit_slow,79.732084060285,-666.6335035730534,262.96446366867525,-177.65276340961742,0.2923754874411579,-149.85233154231355,-7.0143,0.1267,7.7732,-86.6496,0.0093,94.4717,84.38555802449142,30.02827257213026,85.66344610535272,-27.456843058268227,-89.11233690049913,-35.858357747395836,-0.5985781225827661,-0.6529998779296875,-0.43864410702544865,1.0835181342230902,-0.0,-0.678524441189236,-2.0914,-0.9684,-0.5336,0.0086,-0.01435,0.04255,0.0008511565974913538,0.0009780877735465765,0.0008152628433890641,0.00040977494791150093,0.0005042317789047956,0.00040525998338125646,0.012134268879890442,0.01189246866852045,0.01164538785815239,passive,0
0.2812,rehab,safe_near_limit_slow,79.53839115392029,-666.6263265579361,263.18976841175146,-177.6521474002653,0.292004805507153,-149.85042189734088,-9.1561,0.1155,10.0161,-104.3437,-1.2369,103.4183,84.36850746079247,30.01148035030554,85.65141281279007,-27.428207397460938,-89.11181131998698,-35.876990424262154,-0.87066650390625,-0.7618297916827815,-0.5653743932742884,1.3492329915364583,-0.0,-0.8820851643880208,-2.1649,-1.0627,-0.8629,-0.00256,-0.00847,0.04227,0.0008511565974913538,0.0009780877735465765,0.0008152628433890641,0.00040977494791150093,0.0005042317789047956,0.00040525998338125646,0.012134268879890442,0.01189246866852045,0.01164538785815239,passive,0
0.3011,rehab,safe_near_limit_slow,79.37161365777365,-666.6236106836876,263.375333103271,-177.65128340126162,0.29144035881687663,-149.8497194975132,-11.4939,0.0967,12.2637,-126.4984,-2.1028,115.9083,84.35386355560605,29.997910603438275,85.64123550263962,-27.405064900716145,-89.11138746473524,-35.89207119411892,-0.979496417659344,-0.87066650390625,-0.6828043720509747,1.5407562255859375,0.06785074869791667,-0.9499359130859375,-2.2456,-0.8903,-1.1557,0.00114,-0.00307,0.04488,0.0008511565974913538,0.0009780877735465765,0.0008152628433890641,0.00040977494791150093,0.0005042317789047956,0.00040525998338125646,0.012134268879890442,0.01189246866852045,0.01164538785815239,passive,0
0.321,rehab,safe_near_limit_slow,79.17407492470221,-666.6247613839543,263.5815519103549,-177.65076237756048,0.2910722221513139,-149.84955509172514,-14.1341,0.0709,14.5641,-137.6932,-2.3409,118.9062,84.33656824697363,29.983232705899983,85.62906624066947,-27.378370496961804,-89.11095513237846,-35.9092288547092,-1.1971630436359066,-0.979496417659344,-0.8014920678469214,1.7658657497829862,0.06785074869791667,-1.153496636284722,-2.207,-0.9169,-0.7745,-0.01551,0.00243,0.04143,0.0008511565974913538,0.0009780877735465765,0.0008152628433890641,0.00040977494791150093,0.0005042317789047956,0.00040525998338125646,0.012134268879890442,0.01189246866852045,0.01164538785815239,passive,0
0.3406,rehab,safe_near_limit_slow,78.75634041727247,-666.6257923862538,263.999223898488,-177.6508659076081,0.2911944262863313,-149.8495885033983,-16.5096,0.0091,16.4379,-132.9087,-2.1445,110.7252,84.2999788794187,29.953278645430462,85.60425182380298,-27.322430080837673,-89.11002265082465,-35.94515482584635,-1.5236663818359375,-1.1971630436359066,-0.9258904787573484,2.138036092122396,-0.0,-1.4249081081814237,-2.2475,-1.0282,-1.1241,-0.01437,-0.00248,0.04034,0.0008511565974913538,0.0009780877735465765,0.0008152628433890641,0.00040977494791150093,0.0005042317789047956,0.00040525998338125646,0.012134268879890442,0.01189246866852045,0.01164538785815239,passive,0
0.3611,rehab,safe_near_limit_slow,78.47211447195662,-666.6222901618069,264.2735165112909,-177.65153393399842,0.29169250933148044,-149.84958267947536,-19.1572,-0.0661,18.4977,-119.2745,-1.6396,98.9612,84.27504888855584,29.93305999453705,85.58858814806041,-27.285020616319443,-89.10939534505208,-35.96967061360677,-1.686918050935953,-1.4148296696124691,-1.0349991297957921,2.49039543999566,-0.0,-1.6284688313802083,-2.1574,-0.9563,-0.5083,-0.00758,-0.00511,0.04741,0.0008511565974913538,0.0009780877735465765,0.0008152628433890641,0.00040977494791150093,0.0005042317789047956,0.00040525998338125646,0.012134268879890442,0.01189246866852045,0.01164538785815239,passive,0
0.3811,rehab,safe_near_limit_slow,77.98233252900012,-666.6266513619457,264.74711498586635,-177.65175513102875,0.29187881481782024,-149.8500646759056,-22.8667,-0.101,21.6867,-111.9581,-0.8256,95.717,84.23218453284538,29.899421163124615,85.55987140919902,-27.22119649251302,-89.10833570692274,-36.01133558485243,-1.9589996337890625,-1.5236663818359375,-1.2850672655766553,2.817408243815104,0.06785074869791667,-1.7641703287760415,-2.1301,-0.8674,-0.2365,-0.00577,-0.00068,0.03918,0.0008511565974913538,0.0009780877735465765,0.0008152628433890641,0.00040977494791150093,0.0005042317789047956,0.00040525998338125646,0.012134268879890442,0.01189246866852045,0.01164538785815239,passive,0
0.4008,rehab,safe_near_limit_slow,77.61294727017847,-666.6273970067176,265.10284318088225,-177.6518541378523,0.29194847990683276,-149.85030712246183,-24.633,-0.099,23.2085,-108.5962,0.0964,97.1421,84.19983741080407,29.873879309928064,85.53879615103844,-27.173563639322914,-89.10754733615451,-36.04290432400173,-2.0134145906656093,-1.6325030940594059,-1.3285298866800743,3.152347140842014,0.06785074869791667,-2.0355902777777777,-2.2305,-0.8979,-0.553,-0.00457,-0.00422,0.04089,0.0008511565974913538,0.0009780877735465765,0.0008152628433890641,0.00040977494791150093,0.0005042317789047956,0.00040525998338125646,0.012134268879890442,0.01189246866852045,0.01164538785815239,passive,0
0.421,rehab,safe_near_limit_slow,76.99501463489837,-666.6296662453193,265.6740802708761,-177.65301490478546,0.29279086698529533,-149.85084685046067,-25.9629,-0.073,24.4462,-109.0051,1.0105,101.1045,84.14573518356474,29.832884533570546,85.50445027870707,-27.095294528537327,-89.10622490776909,-36.095589531792534,-2.3399179288656407,-1.8501697200359684,-1.5327831306079827,3.466856214735243,0.06785074869791667,-2.374852498372396,-2.2879,-0.935,0.0184,-0.00593,0.00567,0.04094,0.0008511565974913538,0.0009780877735465765,0.0008152628433890641,0.00040977494791150093,0.0005042317789047956,0.00040525998338125646,0.012134268879890442,0.01189246866852045,0.01164538785815239,passive,0
0.441,rehab,safe_near_limit_slow,76.54165036871831,-666.6326307153281,266.09233806792724,-177.65344731013542,0.29310213218723585,-149.8507363872003,-27.437,-0.0332,26.0201,-113.7367,1.6758,106.2483,84.10605251198947,29.80306644250851,85.47916676738474,-27.038548787434895,-89.10524156358507,-36.134745279947914,-2.503169597965656,-1.9589996337890625,-1.5614182878248761,3.690363566080729,0.06785074869791667,-2.5784132215711804,-2.3006,-0.9677,-0.0915,-0.0187,-0.01096,0.0355,0.0008511565974913538,0.0009780877735465765,0.0008152628433890641,0.00040977494791150093,0.0005042317789047956,0.00040525998338125646,0.012134268879890442,0.01189246866852045,0.01164538785815239,passive,0
0.4613,rehab,safe_near_limit_slow,75.80927156700616,-666.6335620805729,266.78331055844285,-177.65302239208467,0.2928061427778294,-149.85006313911632,-29.606,0.0193,28.1781,-114.2501,1.7528,104.7337,84.04190894400719,29.753593973594135,85.43828756502359,-26.946902804904514,-89.10362243652344,-36.198527018229164,-2.8296661376953125,-2.176666259765625,-1.8430177292021195,4.056294759114583,-0.0,-2.6462639702690973,-2.3682,-0.7379,-0.2091,-0.00186,-0.00289,0.04497,0.0008511565974913538,0.0009780877735465765,0.0008152628433890641,0.00040977494791150093,0.0005042317789047956,0.00040525998338125646,0.012134268879890442,0.01189246866852045,0.01164538785815239,passive,0
0.4814,rehab,safe_near_limit_slow,75.28841836325022,-666.6327750731031,267.28076260933585,-177.65261703331473,0.29250180602043135,-149.84926802103126,-33.2685,0.0447,31.4709,-127.7421,1.2656,113.8116,83.99627761085435,29.718010779654627,85.40886378524327,-26.881103515625,-89.10247802734375,-36.244210137261284,-2.8296661376953125,-2.3399179288656407,-1.8209974836594987,4.225862291124132,0.13570149739583334,-2.8498246934678817,-2.431,-0.7969,-0.6133,0.00185,-0.00646,0.05205,0.0008511565974913538,0.0009780877735465765,0.0008152628433890641,0.00040977494791150093,0.0005042317789047956,0.00040525998338125646,0.012134268879890442,0.01189246866852045,0.01164538785815239,passive,0
0.5009,rehab,safe_near_limit_slow,74.73698751370463,-666.62973666255,267.8181122774556,-177.65134331361406,0.29161543092000475,-149.8484858624189,-36.0354,0.0479,33.8372,-150.7522,0.4228,132.3573,83.9479404864925,29.679483848043006,85.37761801540262,-26.81150648328993,-89.10122341579861,-36.29253811306423,-3.047339562142249,-2.448754641089109,-1.948665958820003,4.4982147216796875,-0.0,-2.985526190863715,-2.294,-1.012,-0.8942,0.00683,-0.01945,0.04953,0.0008511565974913538,0.0009780877735465765,0.0008152628433890641,0.00040977494791150093,0.0005042317789047956,0.00040525998338125646,0.012134268879890442,0.01189246866852045,0.01164538785815239,passive,0
0.5211,rehab,safe_near_limit_slow,73.85229987102277,-666.6247858595606,268.66213030336814,-177.6504849631353,0.2909909898210682,-149.84733088099546,-38.9535,0.063,36.2478,-158.5437,-0.4545,138.3889,83.8703971334023,29.61909303570738,85.32783281685101,-26.700185139973957,-89.09926520453558,-36.36997646755642,-3.5370877709719215,-2.61199951171875,-2.198618520604502,4.874818589952257,0.13570149739583334,-3.392647637261285,-2.34,-0.8442,-0.3042,0.01743,0.00486,0.05048,0.0008511565974913538,0.0009780877735465765,0.0008152628433890641,0.00040977494791150093,0.0005042317789047956,0.00040525998338125646,0.012134268879890442,0.01189246866852045,0.01164538785815239,passive,0
0.5407,rehab,safe_near_limit_slow,73.22476005064127,-666.625353460984,269.25115152281967,-177.64996238619077,0.2906381282912418,-149.84721766048017,-41.4487,0.0541,38.3301,-136.093,-0.8639,119.3588,83.81543150042543,29.577513590897663,85.29212725044476,-26.621983846028645,-89.09787495930989,-36.424170600043404,-3.5370877709719215,-2.6664212670656715,-2.2500149566348235,5.038816663953993,0.06785074869791667,-3.528349134657118,-2.393,-0.8308,-0.6396,0.00514,-0.00567,0.0514,0.0008511565974913538,0.0009780877735465765,0.0008152628433890641,0.00040977494791150093,0.0005042317789047956,0.00040525998338125646,0.012134268879890442,0.01189246866852045,0.01164538785815239,passive,0
0.5611,rehab,safe_near_limit_slow,72.05209637192287,-666.6276706658753,270.3031900736406,-177.65184743461555,0.29201048078560654,-149.84837476514656,-43.2923,0.022,39.9514,-88.7676,-0.7571,80.2797,83.71274740389077,29.503471450050277,85.22671916697284,-26.477347479926216,-89.09537421332465,-36.5240732828776,-3.754754396948484,-2.503169597965656,-2.39227294921875,5.26762220594618,0.13570149739583334,-3.664059109157986,-2.4731,-0.9706,-0.5749,-0.01109,-0.00097,0.04412,0.0008511565974913538,0.0009780877735465765,0.0008152628433890641,0.00040977494791150093,0.0005042317789047956,0.00040525998338125646,0.012134268879890442,0.01189246866852045,0.01164538785815239,passive,0
0.5815,rehab,safe_near_limit_slow,71.34993907360352,-666.6291909488205,270.93300308169654,-177.65310018158968,0.29287762288827573,-149.84862334256792,-47.125,-0.021,43.5454,-54.583,-0.519,54.1418,83.65126883629524,29.45943775743541,85.18705009233834,-26.390397813585068,-89.09390767415364,-36.58432854546441,-3.918006066048499,-2.8296661376953125,-2.482468255675665,5.57143317328559,0.06785074869791667,-4.0033213297526045,-2.3744,-1.0224,-0.3305,0.00141,-0.00328,0.04627,0.0008511565974913538,0.0009780877735465765,0.0008152628433890641,0.00040977494791150093,0.0005042317789047956,0.00040525998338125646,0.012134268879890442,0.01189246866852045,0.01164538785815239,passive,0
0.6007,rehab,safe_near_limit_slow,70.26449958189224,-666.6266918082664,271.9381540131394,-177.65331117115875,0.29302204436368745,-149.84988514915747,-48.7932,-0.0448,45.2777,-37.7957,-0.4757,43.6627,83.55617863116878,29.38918916305693,85.1245653511274,-26.254764133029514,-89.09161037868924,-36.676627265082466,-4.026835979801594,-3.047339562142249,-2.7439510232151143,5.760887993706597,0.06785074869791667,-3.799769083658854,-2.1697,-0.874,-0.2381,0.02785,-0.00985,0.0457,0.0008511565974913538,0.0009780877735465765,0.0008152628433890641,0.00040977494791150093,0.0005042317789047956,0.00040525998338125646,0.012134268879890442,0.01189246866852045,0.01164538785815239,passive,0
0.6207,rehab,safe_near_limit_slow,69.51568880323946,-666.626443106305,272.6462210871965,-177.6519790698869,0.2920383431414158,-149.85077483905346,-47.2112,-0.0226,44.0644,-22.2535,-0.3945,33.3592,83.49059378746712,29.34019938553914,85.08044327839767,-26.16148206922743,-89.0900166829427,-36.740264892578125,-4.081257735148514,-3.1017545190187965,-2.780452010655167,5.834359063042535,0.06785074869791667,-4.139031304253472,-2.2462,-1.121,-0.7424,-0.00322,-0.00874,0.04066,0.0008511565974913538,0.0009780877735465765,0.0008152628433890641,0.00040977494791150093,0.0005042317789047956,0.00040525998338125646,0.012134268879890442,0.01189246866852045,0.01164538785815239,passive,0
0.6407,rehab,safe_near_limit_slow,68.37593688838344,-666.6278088837837,273.73585303599685,-177.65024200653252,0.2907743036940416,-149.8518301177781,-45.537,0.0093,42.7869,-15.6004,-0.1354,28.7633,83.39077864543046,29.26568815023592,85.01100370199373,-26.016888088650173,-89.0875752766927,-36.83738708496094,-4.190087648901609,-3.1561694758953434,-2.946926154712639,6.035224066840278,0.06785074869791667,-4.206882052951388,-2.4084,-1.0333,-0.5318,0.01359,-0.00805,0.05052,0.0008511565974913538,0.0009780877735465765,0.0008152628433890641,0.00040977494791150093,0.0005042317789047956,0.00040525998338125646,0.012134268879890442,0.01189246866852045,0.01164538785815239,passive,0
0.6611,rehab,safe_near_limit_slow,67.60387600603178,-666.6290161706826,274.46491364681305,-177.65038756266952,0.2908655291369058,-149.8519642443495,-45.7631,0.0089,43.2506,-10.1738,0.0528,22.6294,83.32316785755724,29.216229278262297,84.96331923078782,-25.91766357421875,-89.085939195421,-36.903745863172745,-4.081257735148514,-3.1017545190187965,-3.0477474703647123,6.123343573676215,0.06785074869791667,-4.139031304253472,-2.3608,-0.9565,-0.7537,0.0178,-0.0147,0.05345,0.0008511565974913538,0.0009780877735465765,0.0008152628433890641,0.00040977494791150093,0.0005042317789047956,0.00040525998338125646,0.012134268879890442,0.01189246866852045,0.01164538785815239,passive,0
0.6811,rehab,safe_near_limit_slow,66.44779434087631,-666.6299280194429,275.5542319059708,-177.65217812341228,0.29217054196497383,-149.85086508775873,-48.2936,-0.0253,45.8788,-12.6641,-0.1216,23.2664,83.2219114398012,29.14286698445235,84.8905076130782,-25.766372680664062,-89.0834723578559,-37.004403008355034,-4.298924361125077,-3.047339562142249,-3.0908769664197866,6.37253655327691,0.06785074869791667,-4.071180555555555,-2.4632,-0.9724,-0.3967,-0.00619,-0.01175,0.049,0.0008511565974913538,0.0009780877735465765,0.0008152628433890641,0.00040977494791150093,0.0005042317789047956,0.00040525998338125646,0.012134268879890442,0.01189246866852045,0.01164538785815239,passive,0
0.7007,rehab,safe_near_limit_slow,65.66623423864944,-666.627738657221,276.28427126623376,-177.6543421861891,0.29383279996092243,-149.85065153329276,-49.3988,-0.0497,47.2201,-42.7919,-0.5797,51.3494,83.15342364924969,29.093714043645576,84.84126629215656,-25.663299560546875,-89.08177693684895,-37.0719485812717,-4.4077542748781715,-3.1017545190187965,-3.230388376972463,6.437276204427083,0.13570149739583334,-4.274732801649305,-2.5197,-1.0537,-0.0072,-0.01408,-0.00915,0.04989,0.0008511565974913538,0.0009780877735465765,0.0008152628433890641,0.00040977494791150093,0.0005042317789047956,0.00040525998338125646,0.012134268879890442,0.01189246866852045,0.01164538785815239,passive,0
0.7207,rehab,safe_near_limit_slow,64.86824017672532,-666.6274982371922,277.0330382107691,-177.65570113639563,0.2949014236147876,-149.8508923451919,-49.6011,-0.0434,47.5618,-69.2224,-0.8096,76.2779,83.08352177686031,29.04375208486425,84.79044772610806,-25.55881076388889,-89.0800560845269,-37.14043511284722,-4.353339318001624,-3.2105844327718907,-3.2649857927076886,6.581971910264757,0.13570149739583334,-4.206882052951388,-2.6223,-0.9915,-0.6644,-0.0044,-0.00082,0.0546,0.0008511565974913538,0.0009780877735465765,0.0008152628433890641,0.00040977494791150093,0.0005042317789047956,0.00040525998338125646,0.012134268879890442,0.01189246866852045,0.01164538785815239,passive,0
0.7409,rehab,safe_near_limit_slow,63.64626867661699,-666.6291542086209,278.2107568771056,-177.6541360062746,0.2936750995506478,-149.85280671726923,-50.7698,-0.0367,48.6876,-55.9217,-0.4186,61.9567,82.97653424857866,28.965868808255337,84.71118436001315,-25.40066189236111,-89.07755533854167,-37.24372016059028,-4.516590987101639,-3.2650061881188117,-3.315464435237469,6.721064249674479,0.13570149739583334,-4.410442776150173,-2.6762,-1.1353,-0.835,-0.01008,-0.00398,0.05522,0.0008511565974913538,0.0009780877735465765,0.0008152628433890641,0.00040977494791150093,0.0005042317789047956,0.00040525998338125646,0.012134268879890442,0.01189246866852045,0.01164538785815239,passive,0
0.7607,rehab,safe_near_limit_slow,62.63008180098997,-666.6325459916463,279.2137004002001,-177.65121538214632,0.29141041194261413,-149.85400342777666,-50.2191,-0.0499,48.2381,-18.9381,0.3037,22.6776,82.88758986067063,28.900379143138924,84.64311807462485,-25.268300374348957,-89.07547844780815,-37.32996622721354,-4.462176030225093,-3.319421144995359,-3.3734213951790686,6.840413411458333,0.13570149739583334,-4.274732801649305,-2.4886,-0.9146,-1.0799,0.03,-0.00163,0.06218,0.0008511565974913538,0.0009780877735465765,0.0008152628433890641,0.00040977494791150093,0.0005042317789047956,0.00040525998338125646,0.012134268879890442,0.01189246866852045,0.01164538785815239,passive,0
0.782,rehab,safe_near_limit_slow,61.426841263646956,-666.6348415204882,280.38609651083345,-177.65032300021787,0.2907870873643099,-149.85432173129016,-51.636,-0.0707,49.9036,10.6976,0.8462,-12.5528,82.78223396527885,28.82437224435334,84.56152283319152,-25.10878668891059,-89.07290140787761,-37.433200412326386,-4.516590987101639,-3.047339562142249,-3.4156874854965964,6.6114552815755205,0.06785074869791667,-4.342592027452257,-2.5927,-0.999,-0.1073,-0.01214,0.0095,0.05079,0.0008511565974913538,0.0009780877735465765,0.0008152628433890641,0.00040977494791150093,0.0005042317789047956,0.00040525998338125646,0.012134268879890442,0.01189246866852045,0.01164538785815239,passive,0
0.8012,rehab,safe_near_limit_slow,60.62818908145797,-666.6338562944366,281.14485576055347,-177.65142727389457,0.291648319682015,-149.8539524202978,-54.1566,-0.0608,52.4225,24.0427,0.8318,-32.9201,82.71227770512647,28.775219303546564,84.50790329734878,-25.00260247124566,-89.07118903266058,-37.502331203884545,-4.298924361125077,-3.1017545190187965,-3.3599196330155476,6.568976508246528,0.06785074869791667,-4.274732801649305,-2.6836,-1.2057,-0.5453,-0.00786,-0.00984,0.05137,0.0008511565974913538,0.0009780877735465765,0.0008152628433890641,0.00040977494791150093,0.0005042317789047956,0.00040525998338125646,0.012134268879890442,0.01189246866852045,0.01164538785815239,passive,0
0.8206,rehab,safe_near_limit_slow,59.4250176112897,-666.6329057326237,282.26391424000326,-177.65395744451004,0.2935893910095196,-149.85395270060602,-51.9852,-0.0155,49.9331,35.5262,0.5898,-52.3102,82.60690821279394,28.703141920637375,84.42777652551632,-24.844190809461804,-89.06864590115018,-37.60592142740885,-4.081257735148514,-2.992917806795328,-3.413919883199257,6.614083184136285,0.13570149739583334,-4.342592027452257,-2.7119,-1.0737,-0.3219,-0.00477,-0.00028,0.05016,0.0008511565974913538,0.0009780877735465765,0.0008152628433890641,0.00040977494791150093,0.0005042317789047956,0.00040525998338125646,0.012134268879890442,0.01189246866852045,0.01164538785815239,passive,0
0.8407,rehab,safe_near_limit_slow,58.628140991127296,-666.6344008273765,283.02626188481065,-177.65360862289012,0.29326841936394055,-149.85336019622142,-48.6509,0.0358,46.1258,36.1493,0.4632,-64.3232,82.53715590675279,28.654628036045793,84.37324599464341,-24.739600287543404,-89.0669928656684,-37.675086127387154,-4.353339318001624,-2.884087893042234,-3.3887451474029238,6.419711642795138,0.06785074869791667,-4.342592027452257,-2.7078,-0.8768,0.1381,0.00765,-0.00876,0.05592,0.0008511565974913538,0.0009780877735465765,0.0008152628433890641,0.00040977494791150093,0.0005042317789047956,0.00040525998338125646,0.012134268879890442,0.01189246866852045,0.01164538785815239,passive,0
0.861,rehab,safe_near_limit_slow,57.44210100916096,-666.6365053806078,284.18701614279854,-177.65017306352618,0.29062894508949705,-149.85218972942025,-47.5988,0.0465,44.3136,34.1217,0.346,-76.526,82.4333364656656,28.58116376518023,84.29095051076152,-24.585155910915798,-89.06444973415799,-37.7783203125,-4.244502605778156,-3.047339562142249,-3.306653617632271,6.3599395751953125,0.13570149739583334,-4.071180555555555,-2.8255,-0.9138,0.0593,0.00042,-0.00642,0.05731,0.0008511565974913538,0.0009780877735465765,0.0008152628433890641,0.00040977494791150093,0.0005042317789047956,0.00040525998338125646,0.012134268879890442,0.01189246866852045,0.01164538785815239,passive,0
0.8809,rehab,safe_near_limit_slow,56.65518299828709,-666.6335497103235,284.9361399940881,-177.6490900633831,0.2897894623312032,-149.85095624165092,-48.114,0.0109,43.9081,31.0289,0.1586,-84.6737,82.36440677453976,28.533472495503943,84.23778647243387,-24.483651055230034,-89.062745836046,-37.84733242458767,-4.298924361125077,-2.884087893042234,-3.301411996973623,6.307568020290798,0.13570149739583334,-4.274732801649305,-2.7828,-0.9698,-0.6853,0.00214,-0.01089,0.0552,0.0008511565974913538,0.0009780877735465765,0.0008152628433890641,0.00040977494791150093,0.0005042317789047956,0.00040525998338125646,0.012134268879890442,0.01189246866852045,0.01164538785815239,passive,0
0.9008,rehab,safe_near_limit_slow,55.457319308428175,-666.6320007070112,285.99755170190787,-177.65033336040796,0.29072929708616657,-149.85108733505592,-48.4544,-0.0202,43.1211,1.713,-0.0209,-64.3485,82.25954036901493,28.46622882503094,84.16065782603651,-24.33469984266493,-89.06021118164062,-37.95038859049479,-4.4077542748781715,-2.6664212670656715,-3.0601138879757115,6.202935112847222,0.13570149739583334,-4.206882052951388,-2.7506,-0.901,-1.0181,0.00156,-0.00395,0.06198,0.0008511565974913538,0.0009780877735465765,0.0008152628433890641,0.00040977494791150093,0.0005042317789047956,0.00040525998338125646,0.012134268879890442,0.01189246866852045,0.01164538785815239,passive,0
0.9209,rehab,safe_near_limit_slow,54.65573677881824,-666.6297663219502,286.67245300767206,-177.65226241676885,0.2921584559405145,-149.85084975325265,-49.008,-0.0147,42.3044,-33.7472,-0.1152,-38.3918,82.18936655781057,28.42337126779084,84.11126014029625,-24.23800998263889,-89.05854119194878,-38.01971435546875,-4.353339318001624,-2.7208362239422184,-3.0580811453337717,5.997890896267361,0.13570149739583334,-4.274732801649305,-2.751,-0.8927,-0.7813,-0.00608,-0.00392,0.05552,0.0008511565974913538,0.0009780877735465765,0.0008152628433890641,0.00040977494791150093,0.0005042317789047956,0.00040525998338125646,0.012134268879890442,0.01189246866852045,0.01164538785815239,passive,0
0.9408,rehab,safe_near_limit_slow,53.854143586778,-666.6316663706077,287.3383552489059,-177.6532515048287,0.29295800182318366,-149.8510450016884,-49.8646,0.0032,41.3916,-47.3723,-0.0097,-36.4865,82.11924033589882,28.381615062751393,84.06208000560798,-24.143778483072914,-89.05680338541667,-38.088582356770836,-4.4077542748781715,-2.557584554842203,-3.223379154016476,5.72630140516493,0.13570149739583334,-4.342592027452257,-2.7332,-0.9355,-0.581,0.00801,-0.00861,0.06,0.0008511565974913538,0.0009780877735465765,0.0008152628433890641,0.00040977494791150093,0.0005042317789047956,0.00040525998338125646,0.012134268879890442,0.01189246866852045,0.01164538785815239,passive,0
0.9607,rehab,safe_near_limit_slow,52.650414175838335,-666.6362326123362,288.3238239951233,-177.65262823417606,0.2926113988382938,-149.85211656710433,-49.6103,0.0202,39.6435,-39.2358,0.1411,-52.6933,82.01396602215154,28.3200209211595,83.98994143646543,-24.00772942437066,-89.05412462022569,-38.19124009874132,-4.244502605778156,-2.503169597965656,-2.9657307237681776,5.38468254937066,0.13570149739583334,-4.342592027452257,-2.6835,-1.0368,-0.9224,0.0147,-0.01548,0.05618,0.0008511565974913538,0.0009780877735465765,0.0008152628433890641,0.00040977494791150093,0.0005042317789047956,0.00040525998338125646,0.012134268879890442,0.01189246866852045,0.01164538785815239,passive,0
0.9813,rehab,safe_near_limit_slow,51.66474538943195,-666.6371117856518,289.1284272800095,-177.6503629935255,0.29089519262654595,-149.85107548865653,-50.1978,0.0364,38.5254,-19.8118,-0.1499,-75.1967,81.92774102239325,28.269487890866724,83.93226321380918,-23.89982435438368,-89.05190361870659,-38.277274237738716,-4.135672692025062,-2.448754641089109,-2.778738796120823,5.169872707790798,0.13570149739583334,-4.342592027452257,-2.5429,-1.0735,-1.3547,0.01659,-0.01917,0.0556,0.0008511565974913538,0.0009780877735465765,0.0008152628433890641,0.00040977494791150093,0.0005042317789047956,0.00040525998338125646,0.012134268879890442,0.01189246866852045,0.01164538785815239,passive,0
1.0012,rehab,safe_near_limit_slow,50.479632167372486,-666.6338312391583,290.0422518072584,-177.6484096966494,0.2892396850209665,-149.84968092890549,-51.8111,0.0197,38.0107,-5.1563,-0.8527,-89.8245,81.82405755071356,28.21144934928063,83.86752817890432,-23.77655029296875,-89.04935201009114,-38.38094923231337,-4.298924361125077,-2.3399179288656407,-2.56684407149211,5.076963636610243,0.06785074869791667,-4.410442776150173,-2.6352,-0.9979,-0.7442,0.00618,-0.01173,0.05258,0.0008511565974913538,0.0009780877735465765,0.0008152628433890641,0.00040977494791150093,0.0005042317789047956,0.00040525998338125646,0.012134268879890442,0.01189246866852045,0.01164538785815239,passive,0
1.021,rehab,safe_near_limit_slow,49.681047247177645,-666.6300951032581,290.60927222683165,-177.6484533975112,0.2892247877484813,-149.849481593582,-52.3954,-0.0134,36.5916,8.4599,-1.2423,-94.3043,81.75418287220567,28.175063935836942,83.82734921899173,-23.697916666666668,-89.04761420355902,-38.45013088650173,-4.298924361125077,-2.2310880151125465,-2.4365513867670945,4.816530015733507,0.06785074869791667,-4.410442776150173,-2.8058,-0.9503,-0.9669,-0.00858,-0.00356,0.05628,0.0008511565974913538,0.0009780877735465765,0.0008152628433890641,0.00040977494791150093,0.0005042317789047956,0.00040525998338125646,0.012134268879890442,0.01189246866852045,0.01164538785815239,passive,0
1.041,rehab,safe_near_limit_slow,48.473035814575354,-666.6286300050056,291.4013321555589,-177.64975156610956,0.29033977272285505,-149.85028208237605,-52.0294,-0.0349,34.0405,17.6588,-0.9346,-90.3515,81.64854144105817,28.1244153315478,83.77028965713954,-23.585433959960938,-89.04487609863281,-38.55369567871094,-4.462176030225093,-1.9589996337890625,-2.3153414584622523,4.50685289171007,0.06785074869791667,-4.47829352484809,-2.9093,-0.9898,-0.9304,-0.00349,-0.00138,0.05875,0.0008511565974913538,0.0009780877735465765,0.0008152628433890641,0.00040977494791150093,0.0005042317789047956,0.00040525998338125646,0.012134268879890442,0.01189246866852045,0.01164538785815239,passive,0
1.0607,rehab,safe_near_limit_slow,47.668770441053674,-666.6284899713825,291.9043672204575,-177.6508348948318,0.291242235988875,-149.8505600887274,-49.4546,-0.0648,30.6431,24.2983,-0.0951,-80.8605,81.57823166044632,28.092292559028852,83.73384305746248,-23.513403998480904,-89.04305352105034,-38.62291124131944,-4.4077542748781715,-2.067836346012531,-2.297216736444152,4.431525336371528,0.13570149739583334,-4.47829352484809,-2.8402,-1.1781,-1.0228,-0.00446,-0.01022,0.05674,0.0008511565974913538,0.0009780877735465765,0.0008152628433890641,0.00040977494791150093,0.0005042317789047956,0.00040525998338125646,0.012134268879890442,0.01189246866852045,0.01164538785815239,passive,0
1.0815,rehab,safe_near_limit_slow,46.452014639088354,-666.635753768832,292.63062874718116,-177.6525252167353,0.29253405735015053,-149.8519863360753,-48.9182,-0.0943,29.1558,31.341,1.1422,-71.0016,81.47199876237623,28.0467428075205,83.67984280727877,-23.40865241156684,-89.04041714138455,-38.726535373263886,-4.462176030225093,-1.9589996337890625,-2.2028947584699874,4.287380642361111,0.06785074869791667,-4.206882052951388,-2.9618,-1.0507,-0.6157,-0.02034,-0.00773,0.0587,0.0008511565974913538,0.0009780877735465765,0.0008152628433890641,0.00040977494791150093,0.0005042317789047956,0.00040525998338125646,0.012134268879890442,0.01189246866852045,0.01164538785815239,passive,0
1.1007,rehab,safe_near_limit_slow,45.64338450129997,-666.6417515436166,293.11170443304854,-177.6525470175263,0.29258011994219485,-149.8523289554127,-49.3832,-0.0641,28.9959,21.9566,1.9172,-52.8795,81.4014170429494,28.016775150110227,83.64423921792815,-23.340971204969616,-89.03859456380208,-38.79600524902344,-4.4077542748781715,-1.8501697200359684,-2.183709475073484,4.193717108832465,0.06785074869791667,-4.342592027452257,-3.0194,-1.1252,-0.9719,-0.01696,-0.00148,0.06207,0.0008511565974913538,0.0009780877735465765,0.0008152628433890641,0.00040977494791150093,0.0005042317789047956,0.00040525998338125646,0.012134268879890442,0.01189246866852045,0.01164538785815239,passive,0
1.1209,rehab,safe_near_limit_slow,44.42898232055162,-666.6410289306924,293.8238036852135,-177.65192037652375,0.292170682850879,-149.8538178199846,-48.9184,0.0233,28.4289,-0.2584,1.8462,-26.725,81.29530651734606,27.97128658483524,83.59365179987238,-23.24256049262153,-89.03583102756076,-38.89950222439236,-4.462176030225093,-1.9045846769125154,-2.0726292676264695,4.01185777452257,0.06785074869791667,-4.342592027452257,-3.0683,-1.119,-1.0929,-0.01228,-0.00657,0.06109,0.0008511565974913538,0.0009780877735465765,0.0008152628433890641,0.00040977494791150093,0.0005042317789047956,0.00040525998338125646,0.012134268879890442,0.01189246866852045,0.01164538785815239,passive,0
1.1407,rehab,safe_near_limit_slow,43.61991549519335,-666.6375402913571,294.282722741213,-177.6519405765969,0.29213953263115916,-149.85443258577237,-49.5532,0.0954,28.3916,-26.5965,1.1488,-5.8749,81.22459562698214,27.941652052473312,83.56137266253481,-23.17858378092448,-89.0340593126085,-38.968870374891495,-4.462176030225093,-1.8501697200359684,-1.9992057875831528,3.9028422037760415,0.13570149739583334,-4.206882052951388,-2.9531,-0.9969,-1.1346,0.0039,-0.00909,0.06346,0.0008511565974913538,0.0009780877735465765,0.0008152628433890641,0.00040977494791150093,0.0005042317789047956,0.00040525998338125646,0.012134268879890442,0.01189246866852045,0.01164538785815239,passive,0
1.1607,rehab,safe_near_limit_slow,42.81683469488041,-666.6344396166778,294.75011018162127,-177.6507469732735,0.29112378569138103,-149.85499957827525,-49.5306,0.137,27.8825,-36.3909,0.0653,-0.4547,81.15442181577777,27.91169799200379,83.52871960932666,-23.115488688151043,-89.03230455186632,-39.03775533040365,-4.4077542748781715,-1.7413330078125,-2.0176568361792233,4.009568956163195,0.13570149739583334,-4.206882052951388,-2.9339,-1.0774,-1.2143,-0.0025,0.00964,0.06617,0.0008511565974913538,0.0009780877735465765,0.0008152628433890641,0.00040977494791150093,0.0005042317789047956,0.00040525998338125646,0.012134268879890442,0.01189246866852045,0.01164538785815239,passive,0
1.1809,rehab,safe_near_limit_slow,41.63645750122511,-666.6292772065494,295.42765710851313,-177.64984446753084,0.2904308793966768,-149.85301738306714,-50.3837,0.1117,27.6941,-19.4685,-1.2625,-11.0233,81.05125502784654,27.868527705126468,83.4805456482538,-23.022172715928818,-89.02955796983507,-39.141837226019966,-4.298924361125077,-1.7413330078125,-2.0319132285543007,4.0280914306640625,0.20355224609375,-4.342592027452257,-3.0354,-1.1026,-1.3953,-0.0245,0.00236,0.05823,0.0008511565974913538,0.0009780877735465765,0.0008152628433890641,0.00040977494791150093,0.0005042317789047956,0.00040525998338125646,0.012134268879890442,0.01189246866852045,0.01164538785815239,passive,0
1.2007,rehab,safe_near_limit_slow,40.650703902660496,-666.6245456076856,295.9676970315118,-177.6505116281909,0.29103396183661584,-149.85203679680046,-51.2395,0.0262,27.6163,-5.3298,-2.2073,-15.7647,80.96510481126238,27.834195429735843,83.44135926501586,-22.945175170898438,-89.02726067437065,-39.22809176974826,-4.516590987101639,-1.686918050935953,-1.9917070747602104,3.8068389892578125,0.06785074869791667,-4.206882052951388,-3.0342,-1.2213,-1.2138,-0.02401,0.00229,0.05919,0.0008511565974913538,0.0009780877735465765,0.0008152628433890641,0.00040977494791150093,0.0005042317789047956,0.00040525998338125646,0.012134268879890442,0.01189246866852045,0.01164538785815239,passive,0
1.2207,rehab,safe_near_limit_slow,39.44082053061898,-666.6264785636643,296.6062655717682,-177.6513844683279,0.2917925474614987,-149.8533543438715,-51.5749,-0.0583,27.4692,6.9929,-2.0028,-14.8832,80.85951096940748,27.794594339805073,83.39340285499497,-22.853368123372395,-89.02453952365451,-39.33132595486111,-4.516590987101639,-1.5780813387124846,-1.9415615572787748,3.796293470594618,0.06785074869791667,-4.139031304253472,-3.0974,-1.2368,-1.1534,-0.00787,-0.00439,0.0627,0.0008511565974913538,0.0009780877735465765,0.0008152628433890641,0.00040977494791150093,0.0005042317789047956,0.00040525998338125646,0.012134268879890442,0.01189246866852045,0.01164538785815239,passive,0
1.2407,rehab,safe_near_limit_slow,38.630940215333034,-666.6320340461815,297.0167901124193,-177.6527061299276,0.292833705547623,-149.85413261990118,-52.1535,-0.0984,27.6345,15.3123,-0.7665,-10.9728,80.78890885456954,27.769786721408956,83.36117810542041,-22.792578803168404,-89.0227762858073,-39.40046522352431,-4.4077542748781715,-1.4692514249593904,-2.073241129960164,3.756866455078125,0.20355224609375,-4.0033213297526045,-3.1038,-1.2337,-0.4022,-0.0191,-0.00302,0.05701,0.0008511565974913538,0.0009780877735465765,0.0008152628433890641,0.00040977494791150093,0.0005042317789047956,0.00040525998338125646,0.012134268879890442,0.01189246866852045,0.01164538785815239,passive,0
1.2607,rehab,safe_near_limit_slow,37.42171653494818,-666.6356385561245,297.646596200415,-177.653555071501,0.29346961153892054,-149.85466467461762,-49.7695,-0.0983,26.3609,17.6333,0.748,-6.0224,80.68344418365176,27.731484139319694,83.31271181012144,-22.701627943250866,-89.02013142903645,-39.5043690999349,-4.353339318001624,-1.6325030940594059,-2.0538043031598083,3.841094970703125,0.06785074869791667,-4.071180555555555,-3.0256,-1.2258,-0.8814,0.00661,-0.00791,0.06579,0.0008511565974913538,0.0009780877735465765,0.0008152628433890641,0.00040977494791150093,0.0005042317789047956,0.00040525998338125646,0.012134268879890442,0.01189246866852045,0.01164538785815239,passive,0
1.2818,rehab,safe_near_limit_slow,36.621127657383845,-666.6394870766112,298.07088682032355,-177.6535595782507,0.293539474706498,-149.8545668983469,-48.5868,-0.059,25.9935,14.3201,2.0192,-2.7434,80.61363748984762,27.706098650941755,83.27965084869082,-22.64105055067274,-89.01829189724393,-39.573584662543404,-4.516590987101639,-1.6325030940594059,-2.061003883286278,3.8458675808376737,0.06785074869791667,-4.139031304253472,-3.0372,-1.2749,-1.2651,0.00989,-0.00615,0.07078,0.0008511565974913538,0.0009780877735465765,0.0008152628433890641,0.00040977494791150093,0.0005042317789047956,0.00040525998338125646,0.012134268879890442,0.01189246866852045,0.01164538785815239,passive,0
1.3008,rehab,safe_near_limit_slow,35.43858816982141,-666.6366847259552,298.72240846866396,-177.6525278922874,0.29267427275382374,-149.85329569128075,-49.4356,0.0279,26.6972,-3.9003,2.2274,3.2898,80.51042991109414,27.66647716559986,83.2304571170618,-22.550464206271702,-89.01563008626302,-39.67703077528212,-4.298924361125077,-1.6325030940594059,-2.0507109991394645,3.7058766682942705,0.06785074869791667,-4.206882052951388,-3.0881,-1.2737,-0.7258,-0.00011,-0.00642,0.06851,0.0008511565974913538,0.0009780877735465765,0.0008152628433890641,0.00040977494791150093,0.0005042317789047956,0.00040525998338125646,0.012134268879890442,0.01189246866852045,0.01164538785815239,passive,0
1.321,rehab,safe_near_limit_slow,34.65102678778171,-666.6358545662663,299.1542089102532,-177.6516423579192,0.29190023773144824,-149.85218001725994,-49.6202,0.1151,26.8551,-21.6833,1.3741,5.8963,80.44172456949065,27.640507008769724,83.1974981326868,-22.490624321831596,-89.01387532552083,-39.74617004394531,-4.135672692025062,-1.5780813387124846,-2.0689308997428064,3.8189188639322915,0.06785074869791667,-4.206882052951388,-3.0664,-1.2124,-0.4906,0.01504,-0.01101,0.0684,0.0008511565974913538,0.0009780877735465765,0.0008152628433890641,0.00040977494791150093,0.0005042317789047956,0.00040525998338125646,0.012134268879890442,0.01189246866852045,0.01164538785815239,passive,0
1.3409,rehab,safe_near_limit_slow,33.47088674242426,-666.6304279003585,299.7995517583455,-177.65065152229744,0.2910380224009788,-149.84996681081233,-50.8829,0.1344,27.3118,-38.1231,0.0386,7.5062,80.33872094484839,27.601510982702273,83.1483791842319,-22.40067376030816,-89.01121351453993,-39.850362141927086,-4.298924361125077,-1.6325030940594059,-2.039194390325263,3.7159220377604165,0.13570149739583334,-4.274732801649305,-3.3243,-1.2012,-0.647,-0.00423,-0.00143,0.06569,0.0008511565974913538,0.0009780877735465765,0.0008152628433890641,0.00040977494791150093,0.0005042317789047956,0.00040525998338125646,0.012134268879890442,0.01189246866852045,0.01164538785815239,passive,0
1.3608,rehab,safe_near_limit_slow,32.676487230168746,-666.6295058230949,300.22352753439316,-177.65009895126988,0.290586991296537,-149.8492201928781,-51.2182,0.0933,27.0259,-44.467,-1.3621,5.4105,80.26943773326308,27.576343045376316,83.1153386182124,-22.341079711914062,-89.00941636827257,-39.91971333821615,-4.353339318001624,-1.6325030940594059,-2.101386797310102,3.66408454047309,0.13570149739583334,-4.410442776150173,-3.2721,-1.485,-1.0718,-0.01145,-0.00189,0.06774,0.0008511565974913538,0.0009780877735465765,0.0008152628433890641,0.00040977494791150093,0.0005042317789047956,0.00040525998338125646,0.012134268879890442,0.01189246866852045,0.01164538785815239,passive,0
1.3811,rehab,safe_near_limit_slow,31.68068459743939,-666.6250836938227,300.7396164794106,-177.6505973463813,0.29099864698419603,-149.84926111900958,-52.7379,0.0146,27.2216,-14.4402,-2.4913,-12.3097,80.20031088649637,27.551535426980198,83.08303228699334,-22.281417846679688,-89.00764465332031,-39.98870849609375,-4.4077542748781715,-1.5236663818359375,-2.079305365534112,3.766165839301215,0.13570149739583334,-4.342592027452257,-3.3002,-1.5937,-1.3921,-0.01175,-0.00866,0.0673,0.0008511565974913538,0.0009780877735465765,0.0008152628433890641,0.00040977494791150093,0.0005042317789047956,0.00040525998338125646,0.012134268879890442,0.01189246866852045,0.01164538785815239,passive,0
1.4007,rehab,safe_near_limit_slow,30.27468575480593,-666.6258426194074,301.4593453225899,-177.65080369811608,0.291065605840987,-149.84943993263119,-53.0572,-0.051,26.9446,23.1294,-2.6286,-29.4945,80.07778885340926,27.50965684947401,83.02508212552212,-22.177530924479168,-89.00460984971788,-40.10932074652778,-4.353339318001624,-1.5236663818359375,-2.021647538288985,3.7719557020399304,0.13570149739583334,-4.342592027452257,-3.3297,-1.5227,-1.3004,-0.02343,0.00304,0.06386,0.0008511565974913538,0.0009780877735465765,0.0008152628433890641,0.00040977494791150093,0.0005042317789047956,0.00040525998338125646,0.012134268879890442,0.01189246866852045,0.01164538785815239,passive,0
1.4209,rehab,safe_near_limit_slow,29.464571365382685,-666.6290663448696,301.86059546135914,-177.65147090874387,0.29166624314527545,-149.85038380647862,-51.4808,-0.1044,25.8505,50.474,-1.5402,-38.288,80.00723432786394,27.486603236434483,82.99162005433942,-22.11819118923611,-89.00282965766058,-40.17829047309028,-4.4077542748781715,-1.360414712735922,-2.0798968324566833,3.7433285183376737,0.13570149739583334,-4.410442776150173,-3.2203,-1.3572,-0.7646,-0.00765,0.00028,0.06497,0.0008511565974913538,0.0009780877735465765,0.0008152628433890641,0.00040977494791150093,0.0005042317789047956,0.00040525998338125646,0.012134268879890442,0.01189246866852045,0.01164538785815239,passive,0
1.4409,rehab,safe_near_limit_slow,28.248254232937875,-666.6340432408095,302.46894135076263,-177.65174409693546,0.29188366781899694,-149.85092503767322,-51.569,-0.1244,25.7743,63.9864,0.0372,-39.5724,79.88362453951694,27.446743804629484,82.93241217584894,-22.014906141493054,-88.99971008300781,-40.30013190375434,-4.353339318001624,-1.360414712735922,-2.109946071511448,3.6995951334635415,0.06785074869791667,-4.139031304253472,-3.2932,-1.3761,-0.5644,-0.01267,0.00672,0.06482,0.0008511565974913538,0.0009780877735465765,0.0008152628433890641,0.00040977494791150093,0.0005042317789047956,0.00040525998338125646,0.012134268879890442,0.01189246866852045,0.01164538785815239,passive,0
1.4608,rehab,safe_near_limit_slow,27.445716442703457,-666.6369579099885,302.863062529943,-177.6525088028465,0.29262467713537266,-149.85185645439012,-49.1584,-0.1103,24.5726,63.7496,1.3526,-34.9057,79.83111315434522,27.430243917030865,82.9072102461711,-21.970799763997395,-88.9983622233073,-40.351291232638886,-4.190087648901609,-1.360414712735922,-2.1006593609800435,3.680267333984375,0.13570149739583334,-4.274732801649305,-3.3957,-1.4321,-1.679,-0.0145,0.00253,0.0684,0.0008511565974913538,0.0009780877735465765,0.0008152628433890641,0.00040977494791150093,0.0005042317789047956,0.00040525998338125646,0.012134268879890442,0.01189246866852045,0.01164538785815239,passive,0
1.481,rehab,safe_near_limit_slow,26.251666401993152,-666.6378627742571,303.4645508423199,-177.65282922569594,0.29284605540416925,-149.85190881446664,-45.6399,-0.0597,22.795,47.5495,1.9903,-24.3113,79.72712375149868,27.396836233611154,82.85656164188197,-21.883070203993054,-88.99574279785156,-40.453991360134545,-4.244502605778156,-1.4148296696124691,-2.063879636254641,3.6463673909505205,0.06785074869791667,-4.274732801649305,-3.3648,-1.5746,-1.2136,-0.01299,0.00755,0.06593,0.0008511565974913538,0.0009780877735465765,0.0008152628433890641,0.00040977494791150093,0.0005042317789047956,0.00040525998338125646,0.012134268879890442,0.01189246866852045,0.01164538785815239,passive,0
1.501,rehab,safe_near_limit_slow,25.65904285969037,-666.637009590945,303.7631016928598,-177.65323582454812,0.2931724179272909,-149.85178400454487,-46.0894,0.0269,23.0162,9.5843,1.9966,-4.5059,79.6582008588432,27.37442167678682,82.82303838446589,-21.824451022677952,-88.99402194552951,-40.522545708550346,-4.244502605778156,-1.4148296696124691,-2.146562632947865,3.607076009114583,0.06785074869791667,-4.274732801649305,-3.0581,-1.6011,-1.4046,0.01229,-0.0097,0.06525,0.0008511565974913538,0.0009780877735465765,0.0008152628433890641,0.00040977494791150093,0.0005042317789047956,0.00040525998338125646,0.012134268879890442,0.01189246866852045,0.01164538785815239,passive,0
1.5207,rehab,safe_near_limit_slow,24.46345450532404,-666.6376805323763,304.3651819825863,-177.65290605384743,0.29293372191785894,-149.8512121789591,-46.8996,0.079,23.3948,-23.6754,1.5229,11.9503,79.55413667282255,27.34117035818572,82.7720294612469,-21.73742506239149,-88.99135165744357,-40.6261952718099,-4.353339318001624,-1.5236663818359375,-2.1471948906926825,3.655420939127604,0.06785074869791667,-4.274732801649305,-3.3234,-1.5195,-0.4141,-0.01944,-0.00874,0.06286,0.0008511565974913538,0.0009780877735465765,0.0008152628433890641,0.00040977494791150093,0.0005042317789047956,0.00040525998338125646,0.012134268879890442,0.01189246866852045,0.01164538785815239,passive,0
1.5411,rehab,safe_near_limit_slow,23.655891658887946,-666.6335912048529,304.7699895152257,-177.6526222947802,0.2926733455930759,-149.851725886915,-48.1216,0.0872,23.9661,-54.2611,0.7466,26.6793,79.48379969832921,27.31840907937229,82.73843142065671,-21.679331461588543,-88.98960537380643,-40.69535997178819,-4.462176030225093,-1.4148296696124691,-2.078305990389078,3.594784206814236,0.13570149739583334,-4.274732801649305,-3.418,-1.7387,-1.6486,-0.03019,-0.00363,0.06658,0.0008511565974913538,0.0009780877735465765,0.0008152628433890641,0.00040977494791150093,0.0005042317789047956,0.00040525998338125646,0.012134268879890442,0.01189246866852045,0.01164538785815239,passive,0
1.5608,rehab,safe_near_limit_slow,22.837336051467528,-666.6332330062055,305.1700064118989,-177.65235794100872,0.2924893597117768,-149.85345667394049,-49.1419,0.0636,24.4411,-69.5637,-0.0946,33.5123,79.41257892268719,27.296484012414915,82.70431669631807,-21.621500651041668,-88.98782518174913,-40.764194064670136,-4.353339318001624,-1.360414712735922,-2.090278096718363,3.682573106553819,0.13570149739583334,-4.342592027452257,-3.2664,-1.6977,-1.5786,-0.00601,-0.01672,0.06452,0.0008511565974913538,0.0009780877735465765,0.0008152628433890641,0.00040977494791150093,0.0005042317789047956,0.00040525998338125646,0.012134268879890442,0.01189246866852045,0.01164538785815239,passive,0
1.5815,rehab,safe_near_limit_slow,21.626045159042683,-666.6282645347401,305.77053801364616,-177.6520606302254,0.29226730247199734,-149.85464821380666,-51.0126,0.0369,25.3733,-44.2145,-0.9039,18.7959,79.30713464718053,27.263416252513924,82.65332137003983,-21.534635755750866,-88.9851803249783,-40.867462158203125,-4.353339318001624,-1.305999755859375,-2.1673115645304764,3.635152180989583,0.06785074869791667,-4.274732801649305,-3.3308,-1.5981,-1.4987,0.0,-0.00663,0.06708,0.0008511565974913538,0.0009780877735465765,0.0008152628433890641,0.00040977494791150093,0.0005042317789047956,0.00040525998338125646,0.012134268879890442,0.01189246866852045,0.01164538785815239,passive,0
1.601,rehab,safe_near_limit_slow,20.62344483292916,-666.6295231815567,306.26148845236025,-177.65185727887174,0.29211512469629336,-149.85466805325558,-52.4437,0.0223,26.0365,-15.0243,-1.1663,1.0128,79.21996466004022,27.237330521687422,82.61011029234027,-21.462936401367188,-88.98297627766927,-40.95380147298177,-4.462176030225093,-1.360414712735922,-2.226023154683632,3.577906290690104,0.13570149739583334,-4.410442776150173,-3.3461,-1.7207,-0.9119,-0.02674,-2e-05,0.05858,0.0008511565974913538,0.0009780877735465765,0.0008152628433890641,0.00040977494791150093,0.0005042317789047956,0.00040525998338125646,0.012134268879890442,0.01189246866852045,0.01164538785815239,passive,0
1.6209,rehab,safe_near_limit_slow,19.422727894133253,-666.6314915105752,306.865094784252,-177.65036388182054,0.290706373742868,-149.8541015403475,-51.7455,0.0114,25.5864,1.9846,-1.0062,-11.0359,79.11562173673423,27.20557486656869,82.55714340965346,-21.377063327365452,-88.98043314615886,-41.0577392578125,-4.4077542748781715,-1.305999755859375,-2.2045127944190903,3.627946641710069,0.13570149739583334,-4.139031304253472,-3.4603,-1.7354,-1.4042,-0.01585,0.00053,0.064,0.0008511565974913538,0.0009780877735465765,0.0008152628433890641,0.00040977494791150093,0.0005042317789047956,0.00040525998338125646,0.012134268879890442,0.01189246866852045,0.01164538785815239,passive,0
1.6408,rehab,safe_near_limit_slow,18.620109940589693,-666.6329019338998,307.26218772752503,-177.6496012403156,0.2900199481074799,-149.8543958646205,-51.6872,-0.0019,25.3584,13.4755,-0.7971,-19.2694,79.04588982610419,27.18490751663057,82.5218389529993,-21.319995456271702,-88.97871229383681,-41.12653096516927,-4.571005943978187,-1.305999755859375,-2.2176950284750157,3.554068671332465,0.13570149739583334,-4.139031304253472,-3.379,-1.6569,-1.3749,-0.01814,0.00657,0.063,0.0008511565974913538,0.0009780877735465765,0.0008152628433890641,0.00040977494791150093,0.0005042317789047956,0.00040525998338125646,0.012134268879890442,0.01189246866852045,0.01164538785815239,passive,0
1.661,rehab,safe_near_limit_slow,17.433603257820188,-666.6323312791287,307.85152867554984,-177.64885875524524,0.2893394400176748,-149.85320623640956,-49.7107,-0.0277,24.0112,24.5232,-0.7413,-25.4875,78.94277742593596,27.15429400453473,82.46917120300897,-21.23452928331163,-88.97612677680121,-41.229866875542534,-4.353339318001624,-1.251584798982828,-2.22901448164836,3.586883544921875,0.06785074869791667,-4.410442776150173,-3.3103,-1.8174,-1.4699,-0.00512,-0.00105,0.06757,0.0008511565974913538,0.0009780877735465765,0.0008152628433890641,0.00040977494791150093,0.0005042317789047956,0.00040525998338125646,0.012134268879890442,0.01189246866852045,0.01164538785815239,passive,0
1.6812,rehab,safe_near_limit_slow,16.644783199288554,-666.6308649660014,308.2276639606465,-177.64947885676426,0.2899370680808092,-149.85254084862933,-48.9415,-0.0358,23.2574,27.1599,-0.8464,-25.6759,78.87421485221032,27.13491156549737,82.43476414444423,-21.177758110894096,-88.97435506184895,-41.29845513237847,-4.135672692025062,-1.1971630436359066,-2.1667200976079055,3.5287899441189237,0.13570149739583334,-4.342592027452257,-3.3629,-1.8499,-2.25,-0.00879,-0.00396,0.06681,0.0008511565974913538,0.0009780877735465765,0.0008152628433890641,0.00040977494791150093,0.0005042317789047956,0.00040525998338125646,0.012134268879890442,0.01189246866852045,0.01164538785815239,passive,0
1.701,rehab,safe_near_limit_slow,15.464468671529934,-666.6304084401994,308.7801904106022,-177.651263464338,0.29153262236453786,-149.8502227343955,-50.0973,-0.044,23.5177,9.4951,-0.7993,-14.3894,78.7716803220239,27.10705823237353,82.38283062925433,-21.092359754774304,-88.97171868218315,-41.40235053168403,-4.190087648901609,-1.1971630436359066,-2.1250930635055694,3.44557868109809,0.13570149739583334,-4.274732801649305,-3.5516,-1.8129,-1.2014,-0.02324,-0.00078,0.06239,0.0008511565974913538,0.0009780877735465765,0.0008152628433890641,0.00040977494791150093,0.0005042317789047956,0.00040525998338125646,0.012134268879890442,0.01189246866852045,0.01164538785815239,passive,0
1.721,rehab,safe_near_limit_slow,14.663275471557894,-666.6308102335001,309.1507012197042,-177.65190696832016,0.29216611343702736,-149.85084210653292,-50.0962,-0.0638,23.4136,-2.4696,-0.4277,-4.9051,78.70211837315323,27.088552796014465,82.34800886399675,-21.036012437608505,-88.96995544433594,-41.47065904405382,-4.353339318001624,-1.1427480867593596,-2.182016655950263,3.5032229953342013,0.13570149739583334,-4.139031304253472,-3.4642,-1.8469,-1.0161,-0.02664,-0.00522,0.05774,0.0008511565974913538,0.0009780877735465765,0.0008152628433890641,0.00040977494791150093,0.0005042317789047956,0.00040525998338125646,0.012134268879890442,0.01189246866852045,0.01164538785815239,passive,0
1.7411,rehab,safe_near_limit_slow,13.455730024826867,-666.6360807028205,309.70010363663425,-177.6530989413971,0.2932119204250387,-149.85198941845226,-50.0194,-0.0739,23.3955,-11.8674,0.1988,3.1214,78.59740153397664,27.06202516461363,82.29485162413947,-20.951555040147568,-88.96739535861545,-41.573282877604164,-4.4077542748781715,-1.0883331298828125,-2.3109360496596536,3.518702189127604,0.13570149739583334,-4.342592027452257,-3.5744,-1.9039,-1.7996,-0.01888,0.00311,0.06509,0.0008511565974913538,0.0009780877735465765,0.0008152628433890641,0.00040977494791150093,0.0005042317789047956,0.00040525998338125646,0.012134268879890442,0.01189246866852045,0.01164538785815239,passive,0
1.7611,rehab,safe_near_limit_slow,12.651581532133141,-666.6374632625146,310.07658180664333,-177.65307744100008,0.2931351585154569,-149.85246547629552,-49.4137,-0.0854,23.1403,-14.2252,0.7612,6.0315,78.52765602640586,27.043676093073174,82.25913246079247,-20.89541965060764,-88.96572536892361,-41.64192199707031,-4.4077542748781715,-1.1971630436359066,-2.2020517481435644,3.472781711154514,0.13570149739583334,-4.206882052951388,-3.572,-1.9375,-1.9395,-0.01848,-0.00804,0.06828,0.0008511565974913538,0.0009780877735465765,0.0008152628433890641,0.00040977494791150093,0.0005042317789047956,0.00040525998338125646,0.012134268879890442,0.01189246866852045,0.01164538785815239,passive,0
1.7816,rehab,safe_near_limit_slow,11.456482467504268,-666.6384987700424,310.6488226619371,-177.6524112659467,0.292572219481988,-149.85166348055208,-50.5194,-0.0633,23.6789,6.2147,1.2081,-4.2224,78.4239929501373,27.01592473700495,82.20492145802714,-20.811106363932293,-88.96312289767795,-41.74543592664931,-4.298924361125077,-1.1427480867593596,-2.269852893187268,3.497941758897569,0.06785074869791667,-4.342592027452257,-3.6101,-2.0132,-1.9587,-0.03399,-0.00666,0.06604,0.0008511565974913538,0.0009780877735465765,0.0008152628433890641,0.00040977494791150093,0.0005042317789047956,0.00040525998338125646,0.012134268879890442,0.01189246866852045,0.01164538785815239,passive,0
1.8007,rehab,safe_near_limit_slow,10.463387072396293,-666.6405577725706,311.12395244107483,-177.65176205046586,0.2920455732668377,-149.85099355260311,-50.8451,-0.0178,23.7649,9.6794,1.4502,-7.5697,78.33789712131613,26.99331302453976,82.1592901248743,-20.741017659505207,-88.96094428168402,-41.83141072591146,-4.244502605778156,-1.1427480867593596,-2.2758763379389695,3.49320305718316,0.06785074869791667,-4.139031304253472,-3.6675,-1.9962,-1.9085,-0.02898,0.00809,0.06833,0.0008511565974913538,0.0009780877735465765,0.0008152628433890641,0.00040977494791150093,0.0005042317789047956,0.00040525998338125646,0.012134268879890442,0.01189246866852045,0.01164538785815239,passive,0
1.8208,rehab,safe_near_limit_slow,9.676096517242959,-666.6373863760223,311.4981092836331,-177.65176610543395,0.2920362094931729,-149.8501621944259,-49.5239,0.0334,23.0585,3.9223,1.3848,-6.0971,78.26957929252397,26.97514751169941,82.12369333399404,-20.68511962890625,-88.95924886067708,-41.89993116590712,-4.298924361125077,-1.1427480867593596,-2.290703801825495,3.4983062744140625,0.13570149739583334,-4.206882052951388,-3.583,-1.9945,-1.9058,-0.02885,-0.00251,0.06056,0.0008511565974913538,0.0009780877735465765,0.0008152628433890641,0.00040977494791150093,0.0005042317789047956,0.00040525998338125646,0.012134268879890442,0.01189246866852045,0.01164538785815239,passive,0
1.8408,rehab,safe_near_limit_slow,8.484534174881388,-666.6382576571648,312.0407422151678,-177.6526643575463,0.2929075887121136,-149.84899536536255,-50.6693,0.065,23.4522,8.4226,1.1085,-7.7921,78.16630372906675,26.94991158966971,82.06985624709932,-20.60156080457899,-88.95662943522136,-42.00343661838107,-4.353339318001624,-1.0339181730062654,-2.1893929963064664,3.487235175238715,0.13570149739583334,-4.139031304253472,-3.6278,-1.9441,-1.7289,-0.01394,-0.00596,0.06736,0.0008511565974913538,0.0009780877735465765,0.0008152628433890641,0.00040977494791150093,0.0005042317789047956,0.00040525998338125646,0.012134268879890442,0.01189246866852045,0.01164538785815239,passive,0
1.8607,rehab,safe_near_limit_slow,7.678654790384474,-666.6376109934985,312.4013471484506,-177.65330257795387,0.29349879303952986,-149.84896377421643,-48.6931,0.0662,22.39,15.597,0.5683,-9.622,78.09646304291074,26.93317375560798,82.03402150975596,-20.545950995551216,-88.95490010579427,-42.07268608940972,-4.462176030225093,-1.0883331298828125,-2.1892502284286044,3.4697808159722223,0.06785074869791667,-4.342592027452257,-3.7108,-2.0147,-1.7096,-0.02534,-0.00613,0.06589,0.0008511565974913538,0.0009780877735465765,0.0008152628433890641,0.00040977494791150093,0.0005042317789047956,0.00040525998338125646,0.012134268879890442,0.01189246866852045,0.01164538785815239,passive,0
1.8817,rehab,safe_near_limit_slow,6.462975604987224,-666.6332084537987,312.95785054898965,-177.65304283440256,0.29321965623262003,-149.85027523337854,-48.6613,0.0616,22.3024,17.5386,-0.0464,-9.3383,77.9910935505782,26.90702004007774,81.97989208863513,-20.462816026475693,-88.95238240559895,-42.17581007215712,-4.516590987101639,-1.0339181730062654,-2.249613846882735,3.416315714518229,0.06785074869791667,-4.274732801649305,-3.8925,-1.8834,-1.0407,-0.02856,-0.00169,0.06476,0.0008511565974913538,0.0009780877735465765,0.0008152628433890641,0.00040977494791150093,0.0005042317789047956,0.00040525998338125646,0.012134268879890442,0.01189246866852045,0.01164538785815239,passive,0
1.9011,rehab,safe_near_limit_slow,5.654927702083193,-666.6337889661902,313.3299209373852,-177.65258112744286,0.2928104431060996,-149.85113003576717,-50.2682,0.0504,23.0881,5.9812,-0.4115,-4.3779,77.92113729042582,26.890166632019646,81.9428540220355,-20.40739271375868,-88.95068698459201,-42.2442881266276,-4.516590987101639,-1.0339181730062654,-2.3629103556717976,3.594987657335069,0.06785074869791667,-4.139031304253472,-3.7605,-1.88,-1.4012,-0.03475,0.00389,0.0698,0.0008511565974913538,0.0009780877735465765,0.0008152628433890641,0.00040977494791150093,0.0005042317789047956,0.00040525998338125646,0.012134268879890442,0.01189246866852045,0.01164538785815239,passive,0
1.9207,rehab,safe_near_limit_slow,4.4400599568545465,-666.6320428337575,313.89697746492925,-177.65122148475788,0.2915466536468193,-149.85237462019762,-48.7616,0.0428,22.4778,-5.2561,-0.6651,-1.0456,77.81595135679339,26.86435284000812,81.88696379708772,-20.324308607313366,-88.9481692843967,-42.34729342990451,-4.4077542748781715,-1.0339181730062654,-2.3887309461536974,3.44618903266059,0.13570149739583334,-4.342592027452257,-3.6739,-2.0319,-2.0939,-0.02157,0.00398,0.07125,0.0008511565974913538,0.0009780877735465765,0.0008152628433890641,0.00040977494791150093,0.0005042317789047956,0.00040525998338125646,0.012134268879890442,0.01189246866852045,0.01164538785815239,passive,0
1.9407,rehab,safe_near_limit_slow,3.627393104331402,-666.6321649852873,314.27305886171206,-177.6503628774592,0.29077124709974494,-149.85372460477336,-48.8045,0.0318,22.5089,-25.069,-0.7735,5.4706,77.74563477771117,26.847621804416768,81.84927307733214,-20.26889377170139,-88.9464823404948,-42.41563585069444,-4.462176030225093,-1.0339181730062654,-2.315123907410272,3.4502495659722223,0.06785074869791667,-4.342592027452257,-3.7058,-1.9383,-1.3207,-0.00524,0.00079,0.07529,0.0008511565974913538,0.0009780877735465765,0.0008152628433890641,0.00040977494791150093,0.0005042317789047956,0.00040525998338125646,0.012134268879890442,0.01189246866852045,0.01164538785815239,passive,0
1.9607,rehab,safe_near_limit_slow,2.824031116090238,-666.6328065012458,314.64162970585653,-177.64998134517623,0.29039058821697494,-149.8534430420557,-49.0361,0.016,22.4429,-32.358,-0.7797,6.5389,77.67614761201462,26.83155022045173,81.8116027529877,-20.213512844509548,-88.94480387369792,-42.48478359646267,-4.516590987101639,-1.0339181730062654,-2.4240829921004794,3.5225677490234375,0.06785074869791667,-4.342592027452257,-3.6463,-1.8606,-1.4086,-0.01352,-0.00082,0.07012,0.0008511565974913538,0.0009780877735465765,0.0008152628433890641,0.00040977494791150093,0.0005042317789047956,0.00040525998338125646,0.012134268879890442,0.01189246866852045,0.01164538785815239,passive,0
1.981,rehab,safe_near_limit_slow,1.6225473861034858,-666.6320505888398,315.1880315004448,-177.64968825445578,0.29010942949539265,-149.85394065995737,-50.0886,0.0135,22.599,-18.9932,-0.8565,-0.9932,77.57222619387183,26.807864349667387,81.75542019381382,-20.130818684895832,-88.94229465060764,-42.5872802734375,-4.244502605778156,-0.979496417659344,-2.3455810546875,3.512301974826389,0.13570149739583334,-4.206882052951388,-3.6917,-1.9917,-1.6571,-0.02112,-0.0047,0.07156,0.0008511565974913538,0.0009780877735465765,0.0008152628433890641,0.00040977494791150093,0.0005042317789047956,0.00040525998338125646,0.012134268879890442,0.01189246866852045,0.01164538785815239,passive,0
2.0008,rehab,safe_near_limit_slow,0.8294167795394793,-666.6306253795642,315.5473211686594,-177.6499194598343,0.290348321676203,-149.85392143862387,-51.4069,-0.0136,22.8842,-27.2599,-0.9473,2.982,77.50362282932394,26.79245901579904,81.7180082113436,-20.07552252875434,-88.94060770670573,-42.65528361002604,-4.298924361125077,-0.979496417659344,-2.3252264343866025,3.5572306315104165,0.06785074869791667,-4.342592027452257,-3.8827,-1.9153,-1.9542,-0.0252,0.00355,0.07226,0.0008511565974913538,0.0009780877735465765,0.0008152628433890641,0.00040977494791150093,0.0005042317789047956,0.00040525998338125646,0.012134268879890442,0.01189246866852045,0.01164538785815239,passive,0
2.0207,rehab,safe_near_limit_slow,-0.5522625244640195,-666.6317656527942,316.16310559993457,-177.65081675487647,0.29126675994897516,-149.85268291075874,-52.1112,-0.045,23.004,-23.2046,-0.7711,3.4474,77.38421449566832,26.76702593812848,81.65211063800471,-19.979129367404514,-88.93761528862846,-42.774853176540795,-4.462176030225093,-0.87066650390625,-2.316762338770498,3.4291924370659723,0.13570149739583334,-4.342592027452257,-3.9489,-2.0368,-2.1254,-0.03607,-0.00482,0.07613,0.0008511565974913538,0.0009780877735465765,0.0008152628433890641,0.00040977494791150093,0.0005042317789047956,0.00040525998338125646,0.012134268879890442,0.01189246866852045,0.01164538785815239,passive,0
2.0406,rehab,safe_near_limit_slow,-1.3595996022732164,-666.6317895803577,316.5152221505882,-177.65143943346212,0.29178166902677616,-149.85293830606275,-52.5545,-0.0462,23.165,2.3244,-0.3014,-4.3357,77.31447578656791,26.752647173286665,81.61415477790455,-19.923807779947918,-88.93597920735677,-42.84372117784288,-4.4077542748781715,-0.9250814607827971,-2.3367158493193068,3.4999762641059027,0.20355224609375,-4.274732801649305,-3.8584,-2.1249,-1.7646,-0.02729,-0.00846,0.07006,0.0008511565974913538,0.0009780877735465765,0.0008152628433890641,0.00040977494791150093,0.0005042317789047956,0.00040525998338125646,0.012134268879890442,0.01189246866852045,0.01164538785815239,passive,0
2.0608,rehab,safe_near_limit_slow,-2.5798637249777245,-666.6321208092487,317.04100938579666,-177.65261023799295,0.29275310653433806,-149.85457668227124,-50.1704,-0.0541,22.1503,22.0755,0.1411,-9.2351,77.20911989117613,26.731585512066832,81.55674849406327,-19.840562608506943,-88.93356323242188,-42.94651455349392,-4.516590987101639,-0.87066650390625,-2.403361254399366,3.3683607313368054,0.13570149739583334,-4.342592027452257,-3.6428,-2.1798,-1.7589,-0.0137,-0.01308,0.06751,0.0008511565974913538,0.0009780877735465765,0.0008152628433890641,0.00040977494791150093,0.0005042317789047956,0.00040525998338125646,0.012134268879890442,0.01189246866852045,0.01164538785815239,passive,0
2.0816,rehab,safe_near_limit_slow,-3.385483462425797,-666.6363578111346,317.39308015434744,-177.6529524788701,0.2930444000597863,-149.8550704895932,-50.9457,-0.0619,22.5694,40.6716,0.6072,-14.9574,77.13965991936108,26.718138137666305,81.51750092459197,-19.78524949815538,-88.93192715115018,-43.014865451388886,-4.190087648901609,-0.8162515470297029,-2.477580155476485,3.4529876708984375,0.13570149739583334,-4.206882052951388,-3.8143,-2.1862,-1.4217,-0.03275,0.00314,0.06623,0.0008511565974913538,0.0009780877735465765,0.0008152628433890641,0.00040977494791150093,0.0005042317789047956,0.00040525998338125646,0.012134268879890442,0.01189246866852045,0.01164538785815239,passive,0
2.1007,rehab,safe_near_limit_slow,-4.578588593415941,-666.6390471032588,317.92860206414906,-177.65275223249262,0.29294532806209833,-149.85461347967944,-51.2439,-0.0385,22.764,42.4634,0.9175,-15.4436,77.03673787636332,26.697348415261448,81.45868055891282,-19.70259772406684,-88.92938401963976,-43.11731974283854,-4.298924361125077,-0.9250814607827971,-2.5050527742593593,3.453182644314236,0.13570149739583334,-4.342592027452257,-3.8167,-2.1009,-1.7675,-0.01795,0.00042,0.07039,0.0008511565974913538,0.0009780877735465765,0.0008152628433890641,0.00040977494791150093,0.0005042317789047956,0.00040525998338125646,0.012134268879890442,0.01189246866852045,0.01164538785815239,passive,0
2.121,rehab,safe_near_limit_slow,-5.3667816984373315,-666.6362419575802,318.28711524728584,-177.65253648809457,0.29277212390242013,-149.85355484991564,-48.1444,0.0102,21.4296,26.1264,0.8565,-9.1889,76.96867838944539,26.683003642771503,81.42003125483447,-19.64769999186198,-88.92770555284288,-43.18582322862413,-4.4077542748781715,-0.9250814607827971,-2.478722298499381,3.376668294270833,0.13570149739583334,-4.274732801649305,-3.7477,-2.0472,-1.7261,-0.01116,-0.01144,0.07331,0.0008511565974913538,0.0009780877735465765,0.0008152628433890641,0.00040977494791150093,0.0005042317789047956,0.00040525998338125646,0.012134268879890442,0.01189246866852045,0.01164538785815239,passive,0
2.141,rehab,safe_near_limit_slow,-6.551484139298899,-666.6354171690052,318.82280402480745,-177.65218666530419,0.2923879566511148,-149.85200711773666,-48.4405,0.0289,21.6263,2.5982,0.7375,0.2081,76.86649737971844,26.662322695892637,81.36115650139233,-19.565387301974827,-88.92526414659288,-43.288633558485245,-4.298924361125077,-0.87066650390625,-2.465098163869121,3.37615966796875,0.06785074869791667,-4.071180555555555,-3.7474,-2.0994,-1.5319,-0.03152,-0.01053,0.07103,0.0008511565974913538,0.0009780877735465765,0.0008152628433890641,0.00040977494791150093,0.0005042317789047956,0.00040525998338125646,0.012134268879890442,0.01189246866852045,0.01164538785815239,passive,0
2.1607,rehab,safe_near_limit_slow,-7.337609247647503,-666.6366688071389,319.17200140314213,-177.6524528149728,0.292571424897826,-149.8509221881885,-48.2057,0.0261,21.5447,-7.2453,0.6096,4.0095,76.7987574209081,26.649398803710938,81.3216777839283,-19.510489569769966,-88.92367045084636,-43.356848822699654,-4.135672692025062,-0.7618297916827815,-2.382340384001779,3.3274247911241317,0.06785074869791667,-4.206882052951388,-3.9329,-2.1152,-1.6629,-0.03176,-0.00248,0.0764,0.0008511565974913538,0.0009780877735465765,0.0008152628433890641,0.00040977494791150093,0.0005042317789047956,0.00040525998338125646,0.012134268879890442,0.01189246866852045,0.01164538785815239,passive,0
2.1813,rehab,safe_near_limit_slow,-8.526138638516485,-666.6340311780414,319.69126957826427,-177.65321713682013,0.2933754117907411,-149.8499177824987,-48.5668,0.0354,21.6508,-10.7934,0.2974,5.6088,76.6962704800143,26.630009566203203,81.26302738000851,-19.42806667751736,-88.921144273546,-43.45942179361979,-4.298924361125077,-0.8162515470297029,-2.436361029596612,3.3702511257595487,0.13570149739583334,-4.206882052951388,-3.8889,-2.1025,-1.2652,-0.0227,-0.00625,0.07044,0.0008511565974913538,0.0009780877735465765,0.0008152628433890641,0.00040977494791150093,0.0005042317789047956,0.00040525998338125646,0.012134268879890442,0.01189246866852045,0.01164538785815239,passive,0
2.2012,rehab,safe_near_limit_slow,-9.326459697796635,-666.6320997035191,320.04326902617566,-177.65342932003557,0.293629368979592,-149.8501884221559,-50.1263,0.0268,22.3392,-32.042,0.0052,15.1461,76.62728640112546,26.61698369696589,81.22326312678875,-19.372770521375866,-88.91947428385417,-43.527518378363716,-4.353339318001624,-0.8162515470297029,-2.5868995590965347,3.454649183485243,-0.0,-4.47829352484809,-3.9569,-2.2384,-2.0646,-0.03183,0.00043,0.07116,0.0008511565974913538,0.0009780877735465765,0.0008152628433890641,0.00040977494791150093,0.0005042317789047956,0.00040525998338125646,0.012134268879890442,0.01189246866852045,0.01164538785815239,passive,0
2.221,rehab,safe_near_limit_slow,-10.132468063237106,-666.6317250537973,320.40303444842493,-177.65315036762073,0.2934001742566881,-149.85022804874689,-50.9241,0.023,22.7225,-39.1679,0.0011,17.6832,76.55786722013266,26.603930633847074,81.18247910301284,-19.317092895507812,-88.91780429416232,-43.596276177300346,-4.462176030225093,-0.8162515470297029,-2.5638187521755107,3.4148746066623263,0.06785074869791667,-4.274732801649305,-3.9167,-2.2328,-1.8432,-0.02569,-0.00511,0.07256,0.0008511565974913538,0.0009780877735465765,0.0008152628433890641,0.00040977494791150093,0.0005042317789047956,0.00040525998338125646,0.012134268879890442,0.01189246866852045,0.01164538785815239,passive,0
2.2407,rehab,safe_near_limit_slow,-11.544822046138242,-666.637540869341,321.04576932520376,-177.6512862611041,0.29157852126388245,-149.851787357538,-51.0567,0.0379,22.8153,-25.332,0.0475,10.4477,76.43643294230546,26.581543270904238,81.10891965356204,-19.219945271809895,-88.91500684950087,-43.71506585015191,-4.4077542748781715,-0.8162515470297029,-2.570889161364867,3.405643039279514,0.13570149739583334,-4.139031304253472,-3.9534,-2.1865,-1.8097,-0.02607,0.00061,0.07605,0.0008511565974913538,0.0009780877735465765,0.0008152628433890641,0.00040977494791150093,0.0005042317789047956,0.00040525998338125646,0.012134268879890442,0.01189246866852045,0.01164538785815239,passive,0
2.2607,rehab,safe_near_limit_slow,-12.351862160613154,-666.6336102743513,321.4048507369603,-177.65103968768125,0.29129058748404574,-149.85266492141758,-50.4323,0.0371,22.573,-5.2182,-0.2383,0.6081,76.36692538119779,26.568524200137297,81.06824440531211,-19.164445665147568,-88.91342163085938,-43.78307766384548,-4.298924361125077,-0.7618297916827815,-2.5133944974087252,3.4868537055121527,0.13570149739583334,-4.342592027452257,-3.9338,-2.1182,-1.6411,-0.02937,0.00494,0.07398,0.0008511565974913538,0.0009780877735465765,0.0008152628433890641,0.00040977494791150093,0.0005042317789047956,0.00040525998338125646,0.012134268879890442,0.01189246866852045,0.01164538785815239,passive,0
2.2811,rehab,safe_near_limit_slow,-13.553981614939742,-666.6298341916524,321.9425500064929,-177.65058073956536,0.29086334227883504,-149.85307761518013,-51.2082,0.0326,22.8854,17.298,-0.4341,-10.7696,76.26345946057008,26.549604057085396,81.00648030196086,-19.081107245551216,-88.91098022460938,-43.885201348198784,-4.190087648901609,-0.7618297916827815,-2.5522681510094367,3.40287102593316,0.06785074869791667,-4.342592027452257,-4.0114,-2.1076,-1.9249,-0.01763,0.01252,0.07671,0.0008511565974913538,0.0009780877735465765,0.0008152628433890641,0.00040977494791150093,0.0005042317789047956,0.00040525998338125646,0.012134268879890442,0.01189246866852045,0.01164538785815239,passive,0
2.3007,rehab,safe_near_limit_slow,-14.355918015047196,-666.6309457038344,322.29985383312584,-177.65039296980277,0.29071453317759766,-149.85307644648125,-52.0258,0.0309,23.1233,24.7911,-0.2573,-15.5998,76.1945365679146,26.537761121693222,80.9642482039952,-19.025073581271702,-88.90933566623264,-43.95350138346354,-4.244502605778156,-0.7074148348062346,-2.5893266130201886,3.463795979817708,0.13570149739583334,-4.071180555555555,-3.8777,-2.1559,-1.6439,-0.02776,0.00603,0.07451,0.0008511565974913538,0.0009780877735465765,0.0008152628433890641,0.00040977494791150093,0.0005042317789047956,0.00040525998338125646,0.012134268879890442,0.01189246866852045,0.01164538785815239,passive,0
2.3207,rehab,safe_near_limit_slow,-15.544699674332067,-666.6294846626997,322.82190871214004,-177.6512701122987,0.291548266578909,-149.8520450298309,-50.6211,0.0224,22.3285,22.4935,-0.1034,-15.312,76.0923419612469,26.520649371760907,80.90169547808053,-18.940904405381943,-88.90691969129774,-44.055794609917534,-4.298924361125077,-0.7074148348062346,-2.5814607827970297,3.457675509982639,0.13570149739583334,-4.206882052951388,-3.9469,-2.2029,-1.8572,-0.02218,-0.00152,0.07711,0.0008511565974913538,0.0009780877735465765,0.0008152628433890641,0.00040977494791150093,0.0005042317789047956,0.00040525998338125646,0.012134268879890442,0.01189246866852045,0.01164538785815239,passive,0
2.3407,rehab,safe_near_limit_slow,-16.340557961193834,-666.6294036971385,323.1723452088297,-177.65148383875763,0.2917961862244643,-149.85181774465372,-48.9711,-0.0125,21.5067,15.5474,-0.0973,-12.0077,76.02396974469175,26.509411500232055,80.85951096940748,-18.884963989257812,-88.90528361002605,-44.12377251519097,-4.244502605778156,-0.6529998779296875,-2.653680933584081,3.428522745768229,0.06785074869791667,-4.206882052951388,-3.9671,-2.2639,-1.8213,-0.03097,-0.00307,0.07229,0.0008511565974913538,0.0009780877735465765,0.0008152628433890641,0.00040977494791150093,0.0005042317789047956,0.00040525998338125646,0.012134268879890442,0.01189246866852045,0.01164538785815239,passive,0
2.3608,rehab,safe_near_limit_slow,-17.545723050523673,-666.6301076926038,323.706740121545,-177.65098383938766,0.2913448755213545,-149.85221929891884,-48.4046,-0.0237,21.2029,10.5397,-0.1621,-8.0709,75.92050382406404,26.492503704410968,80.79527222283996,-18.801193237304688,-88.90285068088107,-44.22590467664931,-4.4077542748781715,-0.7074148348062346,-2.6979661696028,3.507902357313368,0.06785074869791667,-4.0033213297526045,-4.0195,-2.1706,-1.695,-0.02598,-0.0073,0.07572,0.0008511565974913538,0.0009780877735465765,0.0008152628433890641,0.00040977494791150093,0.0005042317789047956,0.00040525998338125646,0.012134268879890442,0.01189246866852045,0.01164538785815239,passive,0
2.3811,rehab,safe_near_limit_slow,-18.365539045566177,-666.6317980485948,324.06323955607553,-177.65060640196106,0.29090284464134264,-149.8533885185308,-49.1345,0.0254,21.4538,8.75,-0.2887,-3.6256,75.85019404345219,26.481646547223082,80.75181640020692,-18.74524434407552,-88.90129089355469,-44.294425116644966,-4.571005943978187,-0.7074148348062346,-2.717661338277382,3.516905042860243,0.13570149739583334,-4.342592027452257,-3.9618,-2.3336,-2.1468,-0.03028,-0.01194,0.07439,0.0008511565974913538,0.0009780877735465765,0.0008152628433890641,0.00040977494791150093,0.0005042317789047956,0.00040525998338125646,0.012134268879890442,0.01189246866852045,0.01164538785815239,passive,0
2.401,rehab,safe_near_limit_slow,-19.579755095292914,-666.6328928065419,324.5924909300629,-177.65060223880275,0.2908456493483679,-149.8543019961659,-49.7403,0.0393,21.7472,-7.8713,-0.3766,8.0411,75.7460618727278,26.465778917369274,80.6866462631981,-18.660939534505207,-88.89892578125,-44.39670986599392,-4.298924361125077,-0.6529998779296875,-2.770138731097231,3.5192362467447915,0.06785074869791667,-4.274732801649305,-3.9094,-2.195,-1.7566,-0.02893,-0.0103,0.06919,0.0008511565974913538,0.0009780877735465765,0.0008152628433890641,0.00040977494791150093,0.0005042317789047956,0.00040525998338125646,0.012134268879890442,0.01189246866852045,0.01164538785815239,passive,0
2.4211,rehab,safe_near_limit_slow,-20.376576357874697,-666.6316612128759,324.9399819231729,-177.65112411926768,0.29141832982719573,-149.854130912348,-49.809,0.0007,21.8629,-25.3746,-0.4718,18.8847,75.67769645464303,26.455431645459466,80.64347597632077,-18.604448106553818,-88.8972896999783,-44.464619954427086,-4.135672692025062,-0.6529998779296875,-2.5588218764503403,3.557247585720486,0.13570149739583334,-4.342592027452257,-4.0565,-2.2825,-1.765,-0.0239,0.00328,0.07594,0.0008511565974913538,0.0009780877735465765,0.0008152628433890641,0.00040977494791150093,0.0005042317789047956,0.00040525998338125646,0.012134268879890442,0.01189246866852045,0.01164538785815239,passive,0
2.4411,rehab,safe_near_limit_slow,-21.174132306633577,-666.6288698315446,325.2914469711736,-177.65169667547102,0.2919848946333985,-149.85391198972195,-50.6689,-0.0324,22.4164,-26.0762,-0.8033,20.9497,75.6092630518545,26.44490081484955,80.5999249751025,-18.547354804144966,-88.89569600423177,-44.53264024522569,-4.135672692025062,-0.6529998779296875,-2.717511771929146,3.618011474609375,0.06785074869791667,-4.206882052951388,-3.9516,-2.4556,-1.6607,-0.02106,-0.01657,0.07434,0.0008511565974913538,0.0009780877735465765,0.0008152628433890641,0.00040977494791150093,0.0005042317789047956,0.00040525998338125646,0.012134268879890442,0.01189246866852045,0.01164538785815239,passive,0
2.4606,rehab,safe_near_limit_slow,-22.58234788808296,-666.6255833404969,325.91118486024845,-177.6521054148229,0.2923858925559359,-149.85488891065907,-49.9664,-0.0494,22.398,-15.2436,-1.133,16.4342,75.48853581494625,26.426844077535193,80.52267395623839,-18.447621663411457,-88.89293246799045,-44.651285807291664,-4.298924361125077,-0.6529998779296875,-2.768235159392404,3.5712687174479165,0.13570149739583334,-4.206882052951388,-4.1822,-2.3882,-1.6845,-0.03185,-0.00078,0.07755,0.0008511565974913538,0.0009780877735465765,0.0008152628433890641,0.00040977494791150093,0.0005042317789047956,0.00040525998338125646,0.012134268879890442,0.01189246866852045,0.01164538785815239,passive,0
2.4813,rehab,safe_near_limit_slow,-23.375341818674332,-666.6283960264047,326.26929157907426,-177.65213280606534,0.29234035014485665,-149.85343749607517,-50.2386,-0.0603,22.835,-0.4592,-0.8713,8.7685,75.42068708060991,26.417135861840578,80.47704262308555,-18.390062120225693,-88.89138963487413,-44.719950358072914,-4.298924361125077,-0.6529998779296875,-2.7182799990814512,3.5953860812717013,0.13570149739583334,-4.274732801649305,-3.9124,-2.3517,-1.5722,-0.00933,-0.00923,0.07611,0.0008511565974913538,0.0009780877735465765,0.0008152628433890641,0.00040977494791150093,0.0005042317789047956,0.00040525998338125646,0.012134268879890442,0.01189246866852045,0.01164538785815239,passive,0
2.5008,rehab,safe_near_limit_slow,-24.554025302432716,-666.6362692358525,326.80913979158413,-177.65187376120699,0.292100474515275,-149.85179174379255,-51.5853,-0.0685,23.5642,10.9351,-0.0899,2.1905,75.31995414507271,26.403165005221226,80.40738549562964,-18.303485446506077,-88.88903299967448,-44.821370442708336,-4.4077542748781715,-0.5985781225827661,-2.929270527150371,3.6624908447265625,0.06785074869791667,-4.139031304253472,-3.9864,-2.4437,-1.7136,-0.01446,-0.00276,0.07638,0.0008511565974913538,0.0009780877735465765,0.0008152628433890641,0.00040977494791150093,0.0005042317789047956,0.00040525998338125646,0.012134268879890442,0.01189246866852045,0.01164538785815239,passive,0
2.5207,rehab,safe_near_limit_slow,-25.34772696286657,-666.6395809394218,327.17716614331874,-177.6514610375381,0.29177573762873255,-149.85173326535605,-50.9794,-0.0814,23.3105,19.4491,0.5499,-3.2851,75.25210541073639,26.393483983408107,80.36027889440555,-18.24502733018663,-88.88742234971788,-44.88862779405382,-4.298924361125077,-0.6529998779296875,-2.980503799891708,3.5761854383680554,0.13570149739583334,-4.139031304253472,-4.138,-2.4923,-2.1777,-0.01713,-0.00835,0.0735,0.0008511565974913538,0.0009780877735465765,0.0008152628433890641,0.00040977494791150093,0.0005042317789047956,0.00040525998338125646,0.012134268879890442,0.01189246866852045,0.01164538785815239,passive,0
2.541,rehab,safe_near_limit_slow,-26.54476125341438,-666.6371232381525,327.73584529254003,-177.65122124184143,0.29159997562610646,-149.85233219950672,-50.3045,-0.0784,23.0641,18.2804,0.7672,-4.0995,75.14966605913521,26.378153432713876,80.28962239180461,-18.156043158637154,-88.88505723741319,-44.98947991265191,-4.081257735148514,-0.6529998779296875,-2.9841885708346223,3.6082034640842013,0.06785074869791667,-4.274732801649305,-4.034,-2.3753,-1.6154,-0.00458,-0.00065,0.07647,0.0008511565974913538,0.0009780877735465765,0.0008152628433890641,0.00040977494791150093,0.0005042317789047956,0.00040525998338125646,0.012134268879890442,0.01189246866852045,0.01164538785815239,passive,0
2.5607,rehab,safe_near_limit_slow,-27.348195141829887,-666.6364276953293,328.10755101640444,-177.65113796990366,0.29145161250125584,-149.852328869785,-49.0939,-0.0424,22.5572,18.2898,0.7742,-4.4023,75.08097431447246,26.36835003843402,80.24199230836169,-18.09655083550347,-88.88353983561198,-45.05751715766059,-4.298924361125077,-0.5985781225827661,-2.890648416953512,3.6413404676649304,0.06785074869791667,-4.206882052951388,-4.0586,-2.4295,-1.9951,-0.0159,-0.00831,0.07366,0.0008511565974913538,0.0009780877735465765,0.0008152628433890641,0.00040977494791150093,0.0005042317789047956,0.00040525998338125646,0.012134268879890442,0.01189246866852045,0.01164538785815239,passive,0
2.5808,rehab,safe_near_limit_slow,-28.54892515981448,-666.6349424646795,328.6450953180583,-177.65247456170206,0.2927441085908603,-149.8522738079,-48.4776,0.0036,22.3969,19.685,0.703,-3.1311,74.9783446057008,26.35497744720761,80.17112505317914,-18.007125854492188,-88.88124254014757,-45.159216986762154,-4.298924361125077,-0.544163165706219,-2.912519096147896,3.773464626736111,0.06785074869791667,-4.206882052951388,-4.1645,-2.4707,-1.8837,-0.01627,-0.00494,0.08011,0.0008511565974913538,0.0009780877735465765,0.0008152628433890641,0.00040977494791150093,0.0005042317789047956,0.00040525998338125646,0.012134268879890442,0.01189246866852045,0.01164538785815239,passive,0
2.6008,rehab,safe_near_limit_slow,-29.348876721541618,-666.6368943019305,329.0034234744442,-177.65311040648731,0.2935027168026995,-149.8522753477267,-48.4805,0.0194,22.5861,7.2009,0.6114,5.4008,74.91005397079014,26.346628925587872,80.12311425539527,-17.94756571451823,-88.8796149359809,-45.226847330729164,-4.353339318001624,-0.544163165706219,-2.9461103382677134,3.5759735107421875,0.06785074869791667,-4.274732801649305,-4.1377,-2.6532,-1.1698,-0.02842,-0.01142,0.07199,0.0008511565974913538,0.0009780877735465765,0.0008152628433890641,0.00040977494791150093,0.0005042317789047956,0.00040525998338125646,0.012134268879890442,0.01189246866852045,0.01164538785815239,passive,0
2.6211,rehab,safe_near_limit_slow,-30.539684634268472,-666.6395075549692,329.562294035505,-177.65268191871908,0.2931836832684311,-149.8516821051099,-49.2103,0.0041,23.0929,-13.3474,0.4368,16.7734,74.80844403257464,26.33322234200959,80.0496227906482,-17.857877943250866,-88.87723286946614,-45.328055487738716,-4.244502605778156,-0.5985781225827661,-3.0767497449818224,3.8246832953559027,0.06785074869791667,-4.274732801649305,-4.1574,-2.5971,-1.0473,-0.01971,-0.01475,0.07102,0.0008511565974913538,0.0009780877735465765,0.0008152628433890641,0.00040977494791150093,0.0005042317789047956,0.00040525998338125646,0.012134268879890442,0.01189246866852045,0.01164538785815239,passive,0
2.6407,rehab,safe_near_limit_slow,-31.332603870237065,-666.638601534056,329.9450556401233,-177.65237561798364,0.2927902792421421,-149.85107479055782,-49.6077,-0.0073,23.4371,-27.3716,0.2181,23.4661,74.74077205846805,26.323745274307704,79.99983079362623,-17.796885172526043,-88.87575785319011,-45.395660400390625,-4.190087648901609,-0.5985781225827661,-3.1231968945795945,3.8103654649522567,0.13570149739583334,-4.342592027452257,-4.3047,-2.3904,-1.4911,-0.00784,-0.0013,0.07838,0.0008511565974913538,0.0009780877735465765,0.0008152628433890641,0.00040977494791150093,0.0005042317789047956,0.00040525998338125646,0.012134268879890442,0.01189246866852045,0.01164538785815239,passive,0
2.6609,rehab,safe_near_limit_slow,-32.121861789511314,-666.6384574609687,330.33511697789965,-177.65164866338125,0.29195378645164655,-149.84954987853232,-49.2047,-0.0047,23.5042,-17.4493,0.131,17.0547,74.67345360482093,26.314159431079826,79.9492093832186,-17.735544840494793,-88.87428283691406,-45.46382480197482,-4.244502605778156,-0.544163165706219,-3.0786465182162748,3.921830919053819,0.13570149739583334,-4.410442776150173,-4.2636,-2.3346,-1.144,-0.00384,-0.0152,0.07641,0.0008511565974913538,0.0009780877735465765,0.0008152628433890641,0.00040977494791150093,0.0005042317789047956,0.00040525998338125646,0.012134268879890442,0.01189246866852045,0.01164538785815239,passive,0
2.681,rehab,safe_near_limit_slow,-33.50105929363791,-666.6360979071036,330.99394262047565,-177.65256265063763,0.29289796601136064,-149.84885612173517,-50.0401,0.0083,24.1728,7.6147,0.1761,3.0524,74.55581287346264,26.29889686508934,79.8611827888111,-17.627088758680554,-88.87162950303819,-45.58096143934462,-4.081257735148514,-0.544163165706219,-3.2099045857344524,3.9066823323567705,0.06785074869791667,-3.8676198323567705,-4.2144,-2.5332,-1.3785,-0.00539,-0.01561,0.07916,0.0008511565974913538,0.0009780877735465765,0.0008152628433890641,0.00040977494791150093,0.0005042317789047956,0.00040525998338125646,0.012134268879890442,0.01189246866852045,0.01164538785815239,passive,0
2.7007,rehab,safe_near_limit_slow,-34.291518795985326,-666.6353192964885,331.3661151653634,-177.65336058615776,0.293736860337127,-149.84915165586787,-50.1972,0.023,24.3613,30.4701,0.1502,-9.5429,74.48844003205252,26.29073190216971,79.81062256463683,-17.565019395616318,-88.87012057834201,-45.64735412597656,-4.4077542748781715,-0.544163165706219,-3.151879641089109,3.81103515625,0.13570149739583334,-3.9354705810546875,-4.2816,-2.6687,-1.7525,-0.00694,-0.01654,0.07916,0.0008511565974913538,0.0009780877735465765,0.0008152628433890641,0.00040977494791150093,0.0005042317789047956,0.00040525998338125646,0.012134268879890442,0.01189246866852045,0.01164538785815239,passive,0
2.7207,rehab,safe_near_limit_slow,-35.47611040464003,-666.6368617925497,331.9271447226997,-177.65387392554592,0.29430492128577357,-149.85168143459376,-50.3369,0.0308,24.4137,51.5877,0.0331,-21.7814,74.38759832098933,26.27890936218866,79.73405139281017,-17.472652859157986,-88.86791653103299,-45.74464586046007,-4.081257735148514,-0.435333251953125,-3.191242784556776,3.82309807671441,0.06785074869791667,-3.9354705810546875,-4.1094,-2.6172,-1.1158,-0.00347,-0.01149,0.0788,0.0008511565974913538,0.0009780877735465765,0.0008152628433890641,0.00040977494791150093,0.0005042317789047956,0.00040525998338125646,0.012134268879890442,0.01189246866852045,0.01164538785815239,passive,0
2.7407,rehab,safe_near_limit_slow,-36.246119707887246,-666.6380031554611,332.3045074676805,-177.65351371040597,0.2938911488261049,-149.8520959308726,-48.0249,0.0357,23.2349,64.0476,-0.0713,-31.4869,74.32208826046178,26.270832779383895,79.68313764817644,-17.412083943684895,-88.86650933159721,-45.80907185872396,-4.135672692025062,-0.544163165706219,-3.1665847325088956,3.750974867078993,0.06785074869791667,-4.139031304253472,-4.1214,-2.7445,-1.2563,-0.01886,-0.01907,0.07406,0.0008511565974913538,0.0009780877735465765,0.0008152628433890641,0.00040977494791150093,0.0005042317789047956,0.00040525998338125646,0.012134268879890442,0.01189246866852045,0.01164538785815239,passive,0
2.7613,rehab,safe_near_limit_slow,-37.37882532517109,-666.6364647165283,332.8703341430318,-177.6520488159274,0.29227400245463914,-149.8532544303544,-44.7307,0.0229,21.596,77.6117,-0.137,-43.1026,74.22569954749382,26.258221616839418,79.60809613218402,-17.323498196072048,-88.86448330349393,-45.9033203125,-4.081257735148514,-0.544163165706219,-3.1685086996248453,3.5372077094184027,0.06785074869791667,-3.7319098578559027,-4.2469,-2.6761,-1.8538,-0.02678,-0.02078,0.07542,0.0008511565974913538,0.0009780877735465765,0.0008152628433890641,0.00040977494791150093,0.0005042317789047956,0.00040525998338125646,0.012134268879890442,0.01189246866852045,0.01164538785815239,passive,0
2.781,rehab,safe_near_limit_slow,-38.11305164617554,-666.6355658679616,333.23133285446283,-177.65134028695877,0.2915277489915872,-149.8548329401408,-44.2258,-0.005,21.3412,90.1547,-0.1546,-53.7727,74.16324879863474,26.25052574837562,79.55956865065168,-17.266311645507812,-88.86315239800346,-45.96355862087673,-3.754754396948484,-0.489748208829672,-2.9781311337310488,3.537953694661458,0.06785074869791667,-3.8676198323567705,-4.1709,-2.5984,-1.8879,-0.00512,-0.00983,0.07549,0.0008511565974913538,0.0009780877735465765,0.0008152628433890641,0.00040977494791150093,0.0005042317789047956,0.00040525998338125646,0.012134268879890442,0.01189246866852045,0.01164538785815239,passive,0
2.8008,rehab,safe_near_limit_slow,-39.17646656456502,-666.6332785501403,333.731745384237,-177.6517030164731,0.2918948604375709,-149.85588710606598,-42.5889,-0.0097,20.3837,87.9774,-0.1406,-57.8915,74.07280874724435,26.240661167862392,79.49035342377012,-17.183787027994793,-88.86118570963542,-46.05203416612413,-3.7003394400719367,-0.3809114966062036,-2.874032955358524,3.2019975450303817,0.06785074869791667,-3.799769083658854,-4.284,-2.5968,-1.8032,-0.00877,-0.00888,0.07834,0.0008511565974913538,0.0009780877735465765,0.0008152628433890641,0.00040977494791150093,0.0005042317789047956,0.00040525998338125646,0.012134268879890442,0.01189246866852045,0.01164538785815239,passive,0
2.821,rehab,safe_near_limit_slow,-39.84790083411893,-666.6325709551706,334.03909321045194,-177.6525549066407,0.2928546450915051,-149.85573928822396,-41.1536,0.0131,19.2806,72.8517,-0.0689,-57.5421,74.01573558845142,26.23516120532952,79.44663246079247,-17.13140699598524,-88.85987175835503,-46.10867818196615,-3.5915027278484684,-0.32649653972965653,-2.676510197101253,3.1424882676866317,0.13570149739583334,-3.528349134657118,-4.1398,-2.6192,-1.3501,0.00541,-0.02634,0.07592,0.0008511565974913538,0.0009780877735465765,0.0008152628433890641,0.00040977494791150093,0.0005042317789047956,0.00040525998338125646,0.012134268879890442,0.01189246866852045,0.01164538785815239,passive,0
2.8408,rehab,safe_near_limit_slow,-40.49263225889472,-666.6350722171163,334.3335106569635,-177.6531734120758,0.2935464230380143,-149.85461657689743,-40.0546,0.0233,18.1363,69.3024,0.1577,-63.0758,73.96102829734878,26.230409074537825,79.40405364083772,-17.081315782335068,-88.85860866970486,-46.16395738389757,-3.2650061881188117,-0.2720815828531095,-2.5470061349396658,3.0077701144748263,0.13570149739583334,-3.392647637261285,-4.0912,-2.5914,-0.5275,0.00343,-0.01844,0.07337,0.0008511565974913538,0.0009780877735465765,0.0008152628433890641,0.00040977494791150093,0.0005042317789047956,0.00040525998338125646,0.012134268879890442,0.01189246866852045,0.01164538785815239,passive,0
2.8606,rehab,safe_near_limit_slow,-41.568264946138484,-666.638193567765,334.8294505355699,-177.65211031349634,0.29250250400164973,-149.85331208700237,-37.7975,0.021,16.4375,90.484,0.2794,-78.2496,73.86978602645421,26.22194497892172,79.33413137303721,-17.00137668185764,-88.85652330186632,-46.25562032063802,-3.2105844327718907,-0.32649653972965653,-2.377255128161742,2.652494642469618,0.06785074869791667,-3.121236165364583,-4.233,-2.4832,-0.3288,-0.00671,-0.01525,0.07341,0.0008511565974913538,0.0009780877735465765,0.0008152628433890641,0.00040977494791150093,0.0005042317789047956,0.00040525998338125646,0.012134268879890442,0.01189246866852045,0.01164538785815239,passive,0
2.8811,rehab,safe_near_limit_slow,-42.153154897032344,-666.6376563750987,335.0903748463556,-177.65110581592674,0.29138898667708607,-149.8534561807615,-35.8326,0.0137,14.8004,115.4279,-0.0664,-92.0338,73.82015719272123,26.21738320530051,79.29775955653426,-16.960313585069443,-88.85547214084201,-46.30465189615885,-3.1017545190187965,-0.2720815828531095,-2.1444347117206837,2.4446868896484375,0.13570149739583334,-2.9176754421657987,-4.2794,-2.5631,-1.1644,-0.01567,-0.00506,0.07988,0.0008511565974913538,0.0009780877735465765,0.0008152628433890641,0.00040977494791150093,0.0005042317789047956,0.00040525998338125646,0.012134268879890442,0.01189246866852045,0.01164538785815239,passive,0
2.9009,rehab,safe_near_limit_slow,-43.000103444784834,-666.6320607315723,335.4267985027089,-177.65058623197348,0.29073449213481883,-149.8557235036133,-34.5794,0.0092,13.3427,132.5125,-0.3426,-98.7536,73.74821577921952,26.21198521982325,79.24968077404664,-16.90537346733941,-88.85399712456596,-46.37372334798177,-2.8296661376953125,-0.2176666259765625,-1.857423687925433,2.0295291476779513,0.06785074869791667,-2.8498246934678817,-4.1754,-2.565,-1.492,0.00455,-0.0141,0.08205,0.0008511565974913538,0.0009780877735465765,0.0008152628433890641,0.00040977494791150093,0.0005042317789047956,0.00040525998338125646,0.012134268879890442,0.01189246866852045,0.01164538785815239,passive,0
2.9208,rehab,safe_near_limit_slow,-43.52259522279367,-666.6296205166234,335.613174258575,-177.65063547151536,0.29074016471995434,-149.857323559792,-31.8434,0.0199,11.3382,146.6901,0.086,-100.7272,73.70387615543781,26.209728127658956,79.2216982699857,-16.873686048719616,-88.85307312011719,-46.416117350260414,-2.7208362239422184,-0.10882991375309406,-1.6472965655940595,1.8797471788194444,-0.0,-2.5784132215711804,-4.2663,-2.5839,-0.8378,-0.01186,-0.01767,0.07365,0.0008511565974913538,0.0009780877735465765,0.0008152628433890641,0.00040977494791150093,0.0005042317789047956,0.00040525998338125646,0.012134268879890442,0.01189246866852045,0.01164538785815239,passive,0
2.9407,rehab,safe_near_limit_slow,-44.222817849191095,-666.6323251868494,335.8434346188009,-177.65064692711445,0.29077549387063734,-149.85731634432494,-27.1348,0.0268,8.5244,155.5068,0.7888,-96.95,73.64460709071395,26.208314045821087,79.18493894067142,-16.833521525065105,-88.85172526041667,-46.47495693630642,-2.3399179288656407,-0.0,-1.3607138454323948,1.5229034423828125,0.06785074869791667,-2.510553995768229,-4.2406,-2.5854,-1.9091,0.00567,-0.00599,0.08538,0.0008511565974913538,0.0009780877735465765,0.0008152628433890641,0.00040977494791150093,0.0005042317789047956,0.00040525998338125646,0.012134268879890442,0.01189246866852045,0.01164538785815239,passive,0
2.9608,rehab,safe_near_limit_slow,-44.62960472979421,-666.6333617012424,335.95633433867715,-177.65157807776518,0.29172353892701225,-149.85592687418878,-23.7309,0.0016,6.5926,164.4358,1.1072,-89.3246,73.61017283826772,26.208436418287825,79.16512819800046,-16.811319986979168,-88.85093688964844,-46.51054382324219,-2.067836346012531,-0.0,-1.1670866106996443,1.2903934054904513,0.06785074869791667,-2.171291775173611,-4.1232,-2.702,-1.7231,-0.00718,-0.00457,0.07679,0.0008511565974913538,0.0009780877735465765,0.0008152628433890641,0.00040977494791150093,0.0005042317789047956,0.00040525998338125646,0.012134268879890442,0.01189246866852045,0.01164538785815239,passive,0
2.9809,rehab,safe_near_limit_slow,-45.172613517782295,-666.6348897906262,336.09818572687385,-177.65204541660614,0.2923017556037295,-149.8544455305868,-20.9429,0.0073,5.2015,175.6185,0.9485,-80.0875,73.5642151785369,26.208823931099165,79.14017101325611,-16.784439086914062,-88.84980095757378,-46.55769348144531,-1.795747964689047,-0.0,-0.8524330063621597,1.0044691297743056,-0.0,-1.832029554578993,-4.2589,-2.6852,-1.1293,-0.01505,-0.00249,0.08018,0.0008511565974913538,0.0009780877735465765,0.0008152628433890641,0.00040977494791150093,0.0005042317789047956,0.00040525998338125646,0.012134268879890442,0.01189246866852045,0.01164538785815239,passive,0
3.0008,rehab,safe_near_limit_slow,-45.49487480766693,-666.6333442542366,336.1702785163123,-177.65221278999687,0.292535640499284,-149.85456197744966,-18.0046,0.0905,3.834,174.4533,0.4247,-66.4022,73.53689212610226,26.209157056147507,79.12727431495591,-16.77068922254774,-88.84913974338107,-46.58475240071615,-1.686918050935953,0.05441495687654703,-0.7258794803430538,0.7527838812934028,-0.0,-1.4927588568793402,-4.275,-2.717,-1.6061,0.00159,-0.01229,0.08213,0.0008511565974913538,0.0009780877735465765,0.0008152628433890641,0.00040977494791150093,0.0005042317789047956,0.00040525998338125646,0.012134268879890442,0.01189246866852045,0.01164538785815239,passive,0
3.0206,rehab,safe_near_limit_slow,-45.77265184343406,-666.6312695387784,336.2277748169231,-177.65216245879427,0.2924763677108314,-149.85504086083776,-14.6065,0.1431,2.686,167.8261,-0.205,-52.6495,73.51333542625503,26.209476584255103,79.11699502774985,-16.76004197862413,-88.84861416286893,-46.60771687825521,-1.305999755859375,0.05441495687654703,-0.5722680422339109,0.6000349256727431,0.06785074869791667,-1.2892066107855902,-4.1809,-2.7873,-1.754,-0.00899,-0.00557,0.07778,0.0008511565974913538,0.0009780877735465765,0.0008152628433890641,0.00040977494791150093,0.0005042317789047956,0.00040525998338125646,0.012134268879890442,0.01189246866852045,0.01164538785815239,passive,0
3.0407,rehab,safe_near_limit_slow,-46.10910477305859,-666.6284190530903,336.29128279071836,-177.6514701356662,0.2917392067560947,-149.85558739956898,-10.8514,0.105,1.7022,175.8407,-0.6975,-47.8868,73.48480224609375,26.209911686359064,79.10580474551361,-16.749369303385418,-88.84796990288628,-46.635589599609375,-1.0339181730062654,-0.0,-0.3528950001933787,0.339109632703993,-0.0,-0.9499359130859375,-4.2517,-2.7153,-1.6326,-0.01861,-0.01421,0.07678,0.0008511565974913538,0.0009780877735465765,0.0008152628433890641,0.00040977494791150093,0.0005042317789047956,0.00040525998338125646,0.012134268879890442,0.01189246866852045,0.01164538785815239,passive,0
3.0607,rehab,safe_near_limit_slow,-46.2713105917588,-666.6263518220352,336.3161836804163,-177.6509408726347,0.2912094032388262,-149.85576429140144,-7.0826,0.0432,0.8491,185.8746,-1.2375,-47.7726,73.47102854511526,26.21019722211479,79.10133135200726,-16.74547831217448,-88.84763081868489,-46.6491444905599,-0.7618297916827815,-0.0,-0.16980539454091895,0.1697116427951389,-0.0,-0.7463751898871528,-4.284,-2.7947,-1.5294,-0.02058,-0.00095,0.07918,0.0008511565974913538,0.0009780877735465765,0.0008152628433890641,0.00040977494791150093,0.0005042317789047956,0.00040525998338125646,0.012134268879890442,0.01189246866852045,0.01164538785815239,passive,0
3.0812,rehab,safe_near_limit_slow,-46.431110986270006,-666.6165821745434,336.3112026153451,-177.6514902751164,0.2918082569417929,-149.8556806748816,-3.5307,-0.008,-0.0222,187.4585,-1.741,-46.4414,73.4572684410775,26.21074109974474,79.10088265296257,-16.744299994574654,-88.84728325737846,-46.66297912597656,-0.2176666259765625,-0.0,-0.0022842860457920793,-0.013071695963541666,-0.06785074869791667,-0.339262220594618,-4.1404,-2.6621,-1.77,-0.0044,0.00056,0.08333,0.0008511565974913538,0.0009780877735465765,0.0008152628433890641,0.00040977494791150093,0.0005042317789047956,0.00040525998338125646,0.012134268879890442,0.01189246866852045,0.01164538785815239,passive,0
3.1009,rehab,safe_near_limit_slow,-46.42884143921328,-666.6204001459383,336.303242719477,-177.65112176622642,0.29142450350637256,-149.8529018996405,-0.2183,-0.0414,-0.9112,178.9898,-1.2153,-45.1718,73.45754717836286,26.2114413421933,79.10127696424428,-16.74584282769097,-88.84721544053819,-46.665496826171875,0.32649653972965653,-0.0,0.05972456223893874,-0.1674313015407986,-0.0,-0.0,-4.2437,-2.6604,-1.3357,-0.00821,-0.01131,0.07735,0.0008511565974913538,0.0009780877735465765,0.0008152628433890641,0.00040977494791150093,0.0005042317789047956,0.00040525998338125646,0.012134268879890442,0.01189246866852045,0.01164538785815239,passive,0
3.1207,rehab,safe_near_limit_slow,-46.344793256328984,-666.6310164916362,336.27787876919695,-177.64908920369209,0.2892956252115618,-149.8461781510168,4.3793,-0.0449,-2.1974,163.1466,0.2261,-44.1243,73.46490312330793,26.21250870204208,79.10485975813157,-16.753455268012154,-88.84719848632812,-46.66494581434462,0.3809114966062036,0.05441495687654703,0.25589442489170794,-0.4336463080512153,0.06785074869791667,0.13570149739583334,-4.2003,-2.6962,-1.0058,-0.00634,0.00194,0.07318,0.0008511565974913538,0.0009780877735465765,0.0008152628433890641,0.00040977494791150093,0.0005042317789047956,0.00040525998338125646,0.012134268879890442,0.01189246866852045,0.01164538785815239,passive,0
3.1407,rehab,safe_near_limit_slow,-46.24442752830853,-666.6337423234901,336.2437381586972,-177.6477831599422,0.2880123346288454,-149.84202257744926,7.5398,-0.0271,-3.0591,153.1213,1.2433,-43.6348,73.47344200209815,26.21283502862005,79.11070644265354,-16.76160176595052,-88.84721544053819,-46.66064792209201,0.5985781225827661,-0.0,0.4364346041537748,-0.5570390489366319,-0.0,0.5428229437934028,-4.4618,-2.6445,-1.2741,-0.02969,0.00194,0.08013,0.0008511565974913538,0.0009780877735465765,0.0008152628433890641,0.00040977494791150093,0.0005042317789047956,0.00040525998338125646,0.012134268879890442,0.01189246866852045,0.01164538785815239,passive,0
3.1607,rehab,safe_near_limit_slow,-46.06188040007782,-666.6295437085515,336.1612529046967,-177.64700725847246,0.2876160190468461,-149.8453354970031,10.0892,-0.0102,-3.7024,146.3178,1.3917,-41.4919,73.48875895585164,26.213276929194382,79.12422180175781,-16.776996188693577,-88.84733412000868,-46.64217631022135,0.7618297916827815,-0.0,0.6732185288230972,-0.7199011908637153,0.06785074869791667,0.9499359130859375,-4.2051,-2.6398,-1.1025,-0.00443,-0.00377,0.07801,0.0008511565974913538,0.0009780877735465765,0.0008152628433890641,0.00040977494791150093,0.0005042317789047956,0.00040525998338125646,0.012134268879890442,0.01189246866852045,0.01164538785815239,passive,0
3.1808,rehab,safe_near_limit_slow,-45.89816546955556,-666.6268640522824,336.0898590095466,-177.646858218132,0.28775837431374707,-149.84874586892113,12.2513,0.0553,-4.367,138.9516,1.0913,-37.0886,73.50253265683014,26.213854799176207,79.13538489011255,-16.78930494520399,-88.8475121392144,-46.625120374891495,0.979496417659344,0.05441495687654703,0.7561190765683014,-0.826992458767361,-0.06785074869791667,1.153496636284722,-4.1061,-2.5838,-1.1808,-0.00606,-0.01506,0.07388,0.0008511565974913538,0.0009780877735465765,0.0008152628433890641,0.00040977494791150093,0.0005042317789047956,0.00040525998338125646,0.012134268879890442,0.01189246866852045,0.01164538785815239,passive,0
3.2008,rehab,safe_near_limit_slow,-45.4952845903129,-666.6233047068762,335.944658337512,-177.64656940170582,0.28807599716107324,-149.8526647110233,14.8467,0.1236,-5.1758,141.3811,0.5606,-34.3637,73.53095706146543,26.214568638565517,79.1549032985574,-16.81073506673177,-88.84785970052083,-46.59337361653646,1.4148296696124691,-0.0,0.8899061750657488,-0.9502919514973958,-0.0,1.4927588568793402,-4.1825,-2.6679,-1.697,-0.00973,-0.01535,0.07946,0.0008511565974913538,0.0009780877735465765,0.0008152628433890641,0.00040977494791150093,0.0005042317789047956,0.00040525998338125646,0.012134268879890442,0.01189246866852045,0.01164538785815239,passive,0
3.2207,rehab,safe_near_limit_slow,-45.19780059366457,-666.6211725897401,335.850040464256,-177.64651072165978,0.2882882940055166,-149.85357025518945,18.2652,0.1001,-6.022,157.6822,-0.0656,-35.3846,73.55488087871286,26.214860972791616,79.17022025231087,-16.826951768663193,-88.84823269314236,-46.56846788194444,1.5780813387124846,0.05441495687654703,1.0219324697362315,-1.0418955485026042,-0.0,1.696319580078125,-4.1812,-2.6303,-1.4239,-0.00977,-0.00616,0.07872,0.0008511565974913538,0.0009780877735465765,0.0008152628433890641,0.00040977494791150093,0.0005042317789047956,0.00040525998338125646,0.012134268879890442,0.01189246866852045,0.01164538785815239,passive,0
3.2407,rehab,safe_near_limit_slow,-44.94055794639119,-666.6208412351903,335.7739147090876,-177.64663211938716,0.2885256870024297,-149.8537939353961,21.6431,0.0356,-6.6772,171.5111,-0.6427,-35.9955,73.58336646958153,26.215200896310336,79.186638558265,-16.844346788194443,-88.84875827365451,-46.539815266927086,1.8501697200359684,-0.0,1.0515466066870358,-1.1523776584201388,-0.06785074869791667,1.8998803032769096,-4.2832,-2.5962,-2.0189,-0.01756,0.00223,0.08357,0.0008511565974913538,0.0009780877735465765,0.0008152628433890641,0.00040977494791150093,0.0005042317789047956,0.00040525998338125646,0.012134268879890442,0.01189246866852045,0.01164538785815239,passive,0
3.2608,rehab,safe_near_limit_slow,-44.38238796778213,-666.62251408518,335.60795913319294,-177.64691976042442,0.2888603637075248,-149.8554363368814,24.5138,0.0054,-7.144,167.5083,-1.2817,-32.739,73.63068382338722,26.216193472984994,79.21308460802135,-16.872965494791668,-88.849851820204,-46.49116516113281,2.122251302889078,-0.0,1.1731848386254642,-1.3119591606987846,-0.0,2.171291775173611,-4.2473,-2.6832,-1.804,-0.01348,0.00288,0.07983,0.0008511565974913538,0.0009780877735465765,0.0008152628433890641,0.00040977494791150093,0.0005042317789047956,0.00040525998338125646,0.012134268879890442,0.01189246866852045,0.01164538785815239,passive,0
3.2815,rehab,safe_near_limit_slow,-43.96181972699999,-666.6209396572182,335.4794274483258,-177.64777833677593,0.28964275861165295,-149.85604959860626,28.1334,-0.0035,-7.8163,151.4879,-1.9108,-28.3088,73.66628741273786,26.216873320022433,79.23340523597038,-16.894005669487846,-88.8507588704427,-46.455179850260414,2.2855029719890934,0.10882991375309406,1.3153204587426517,-1.3582102457682292,-0.0,2.374852498372396,-4.1652,-2.6501,-1.0199,-0.01991,-0.0088,0.06919,0.0008511565974913538,0.0009780877735465765,0.0008152628433890641,0.00040977494791150093,0.0005042317789047956,0.00040525998338125646,0.012134268879890442,0.01189246866852045,0.01164538785815239,passive,0
3.301,rehab,safe_near_limit_slow,-43.141574455758985,-666.6240019240337,335.2516741366267,-177.6482897409461,0.2897723564041899,-149.8564715879801,32.7195,-0.0236,-8.7981,131.4833,-2.1104,-25.6217,73.73591734631226,26.218042656926826,79.27008978211053,-16.933729383680554,-88.85264078776042,-46.38556586371528,2.61199951171875,0.05441495687654703,1.367818246973623,-1.4835696750217013,-0.06785074869791667,2.714114718967014,-4.087,-2.6417,-1.6257,-0.00456,-0.00537,0.07958,0.0008511565974913538,0.0009780877735465765,0.0008152628433890641,0.00040977494791150093,0.0005042317789047956,0.00040525998338125646,0.012134268879890442,0.01189246866852045,0.01164538785815239,passive,0
3.3208,rehab,safe_near_limit_slow,-42.62947382182474,-666.6222974760625,335.1103266518718,-177.64894505688605,0.2901598790038107,-149.8566818957652,34.7498,-0.0486,-9.1736,109.1284,-2.1385,-24.1911,73.77931878118231,26.218409774327043,79.29325896914642,-16.95797390407986,-88.85384453667534,-46.342222425672745,2.7752511808187657,-0.0,1.4856289400912748,-1.5606180826822915,-0.06785074869791667,2.8498246934678817,-4.1352,-2.6073,-1.3614,-0.01786,-0.0124,0.07312,0.0008511565974913538,0.0009780877735465765,0.0008152628433890641,0.00040977494791150093,0.0005042317789047956,0.00040525998338125646,0.012134268879890442,0.01189246866852045,0.01164538785815239,passive,0
3.341,rehab,safe_near_limit_slow,-41.799971643184655,-666.6235672545974,334.9040773161934,-177.6488208570648,0.28973373508842476,-149.8570069424152,35.8044,-0.0955,-9.3571,93.3442,-2.2942,-23.5868,73.8497237403794,26.218600131497524,79.32818950993,-16.995824178059895,-88.85567559136284,-46.27190483940972,3.1017545190187965,-0.0,1.4893884942083075,-1.614930894639757,-0.0,3.0533854166666665,-4.209,-2.4864,-1.7421,-0.02446,0.00449,0.07478,0.0008511565974913538,0.0009780877735465765,0.0008152628433890641,0.00040977494791150093,0.0005042317789047956,0.00040525998338125646,0.012134268879890442,0.01189246866852045,0.01164538785815239,passive,0
3.3611,rehab,safe_near_limit_slow,-41.20227115559822,-666.6226472721615,334.75084731485447,-177.64970562946135,0.2905279125431849,-149.8565305412076,36.6293,-0.1648,-9.6735,80.2245,-2.1272,-21.47,73.9004131354908,26.218987644308864,79.35322827631884,-17.02172173394097,-88.85692172580295,-46.22197469075521,3.2105844327718907,-0.0,1.5684003168993657,-1.6697269015842013,-0.13570149739583334,3.0533854166666665,-4.0941,-2.4561,-1.4571,-0.01276,-0.01482,0.07679,0.0008511565974913538,0.0009780877735465765,0.0008152628433890641,0.00040977494791150093,0.0005042317789047956,0.00040525998338125646,0.012134268879890442,0.01189246866852045,0.01164538785815239,passive,0
3.3811,rehab,safe_near_limit_slow,-40.24722752925554,-666.6289269233879,334.51177705125224,-177.6504789225815,0.2911884582284579,-149.85500626170514,38.0153,-0.2186,-10.1411,68.6476,-1.1721,-17.0566,73.98162086411278,26.22046971085048,79.39124532265238,-17.062835693359375,-88.8588629828559,-46.14273918999566,3.482672814095374,0.10882991375309406,1.5669522427096225,-1.773003472222222,-0.06785074869791667,3.4604983859592013,-4.2,-2.4881,-1.4198,-0.02999,-0.00096,0.07154,0.0008511565974913538,0.0009780877735465765,0.0008152628433890641,0.00040977494791150093,0.0005042317789047956,0.00040525998338125646,0.012134268879890442,0.01189246866852045,0.01164538785815239,passive,0
3.4008,rehab,safe_near_limit_slow,-39.58729363747602,-666.6337461408829,334.3302746442127,-177.6518069294309,0.2925601364197653,-149.85475770513744,40.4811,-0.2469,-10.7809,80.6371,0.3732,-15.8626,74.03776263246442,26.222454864199797,79.41833722709428,-17.091844346788193,-88.86015997992621,-46.08716328938802,3.5370877709719215,0.10882991375309406,1.7193127622698794,-1.816948784722222,-0.13570149739583334,3.664059109157986,-4.0894,-2.4733,-1.136,-0.03326,-0.00119,0.07194,0.0008511565974913538,0.0009780877735465765,0.0008152628433890641,0.00040977494791150093,0.0005042317789047956,0.00040525998338125646,0.012134268879890442,0.01189246866852045,0.01164538785815239,passive,0
3.4207,rehab,safe_near_limit_slow,-38.917020889638266,-666.640558742952,334.1435952705394,-177.6527466015247,0.2934372511782674,-149.8549253908041,42.2562,-0.2287,-11.1364,109.5722,2.0428,-17.75,74.09486298513885,26.22481393341971,79.44594581528466,-17.122412787543404,-88.8615502251519,-46.03023105197482,3.5370877709719215,0.16324487062964108,1.691466227616414,-1.9266764322916665,-0.06785074869791667,3.7319098578559027,-4.1307,-2.5409,-1.385,-0.02943,0.00912,0.0713,0.0008511565974913538,0.0009780877735465765,0.0008152628433890641,0.00040977494791150093,0.0005042317789047956,0.00040525998338125646,0.012134268879890442,0.01189246866852045,0.01164538785815239,passive,0
3.4411,rehab,safe_near_limit_slow,-37.890430955663135,-666.6458154839163,333.85245121538844,-177.6544127563938,0.29506082482801793,-149.8566977508578,44.4442,-0.159,-11.4158,125.1665,3.491,-16.8241,74.18223012792002,26.228172377784652,79.48939483944733,-17.169825236002605,-88.86367797851562,-45.94161139594184,3.918006066048499,0.10882991375309406,1.8117107731280941,-1.9885084364149306,-0.06785074869791667,3.799769083658854,-4.1828,-2.6826,-0.9393,-0.04394,-0.00034,0.06517,0.0008511565974913538,0.0009780877735465765,0.0008152628433890641,0.00040977494791150093,0.0005042317789047956,0.00040525998338125646,0.012134268879890442,0.01189246866852045,0.01164538785815239,passive,0
3.461,rehab,safe_near_limit_slow,-37.18279645797504,-666.6487146415767,333.6715532404073,-177.65425380924225,0.2948598122854948,-149.85762700575276,46.0606,-0.0542,-11.4619,114.9822,4.129,-13.5973,74.24245777696666,26.22951847491878,79.5181931599532,-17.202233208550346,-88.86511908637152,-45.88080512152778,3.918006066048499,0.05441495687654703,1.8048851088722153,-2.027308146158854,-0.06785074869791667,3.799769083658854,-3.9981,-2.6926,-1.4337,-0.03133,-0.00314,0.0715,0.0008511565974913538,0.0009780877735465765,0.0008152628433890641,0.00040977494791150093,0.0005042317789047956,0.00040525998338125646,0.012134268879890442,0.01189246866852045,0.01164538785815239,passive,0
3.4813,rehab,safe_near_limit_slow,-35.86888013325845,-666.6473268278083,333.3652326877209,-177.6534540659094,0.29396575036466144,-149.85726514475041,48.4123,0.0616,-11.6101,86.3182,3.8218,-11.5398,74.35417024215849,26.230225515837716,79.5697527592725,-17.259351942274304,-88.86775546603732,-45.7700686984592,4.190087648901609,-0.0,1.8562747464321627,-2.071439954969618,-0.06785074869791667,4.139031304253472,-4.0965,-2.5889,-0.9237,-0.04014,0.00876,0.0696,0.0008511565974913538,0.0009780877735465765,0.0008152628433890641,0.00040977494791150093,0.0005042317789047956,0.00040525998338125646,0.012134268879890442,0.01189246866852045,0.01164538785815239,passive,0
3.5011,rehab,safe_near_limit_slow,-35.09247816935251,-666.644970010081,333.18774475922567,-177.65302835734514,0.2934991676156689,-149.85656616616205,52.1927,0.1355,-12.2542,52.8537,2.7191,-12.0374,74.42017659102336,26.230504253123065,79.59982239373839,-17.292471991644966,-88.86929829915364,-45.70511711968316,4.190087648901609,-0.0,1.9377204215172494,-2.071346706814236,-0.0,4.071180555555555,-3.9108,-2.497,-0.6848,-0.01901,-0.00704,0.06897,0.0008511565974913538,0.0009780877735465765,0.0008152628433890641,0.00040977494791150093,0.0005042317789047956,0.00040525998338125646,0.012134268879890442,0.01189246866852045,0.01164538785815239,passive,0
3.5207,rehab,safe_near_limit_slow,-33.91958323193525,-666.6393153961288,332.91717880519565,-177.6525069208633,0.2928858105262614,-149.85571264874605,53.3677,0.1707,-12.6,23.4669,1.0911,-16.0668,74.51989655447478,26.231014138401143,79.64547412230236,-17.34267340766059,-88.87166341145833,-45.606791178385414,4.190087648901609,-0.0,1.9765872766475867,-2.1695370144314237,-0.13570149739583334,4.206882052951388,-3.9309,-2.4924,-1.4882,-0.02953,0.00092,0.068,0.0008511565974913538,0.0009780877735465765,0.0008152628433890641,0.00040977494791150093,0.0005042317789047956,0.00040525998338125646,0.012134268879890442,0.01189246866852045,0.01164538785815239,passive,0
