t,trajectory_type,trajectory_variant,x,y,z,rx,ry,rz,vx,vy,vz,ax,ay,az,j1,j2,j3,j4,j5,j6,dj1,dj2,dj3,dj4,dj5,dj6,fx,fy,fz,tx,ty,tz,Mx,My,Mz,Bx,By,Bz,Kx,Ky,Kz,mode,comfort
0.0005,rehab,small_slow,80.22114418520182,-666.633608916331,262.48275128403463,-177.38938154609988,0.13298138683502053,-149.98560837310458,0.4115,0.0649,-0.7695,-11.6365,-2.3536,31.8129,84.42611769874497,30.033840519366876,85.8556320643661,-27.96629163953993,-89.09211052788628,-35.68871392144097,-0.0,-0.0,0.007872628693533416,-0.029449462890625,-0.06785074869791667,-0.0,1.2818,0.3993,1.7617,0.0078,-0.02641,-0.02365,0.0008820138755254447,0.0009999937610700727,0.0009201358770951629,0.0005079067195765674,0.0005001365789212286,0.0005738979671150446,0.01173606887459755,0.010186107829213142,0.011653736233711243,passive,0
0.0208,rehab,small_slow,80.22102626004234,-666.6335327246888,262.48308855804925,-177.389349589314,0.13298007369713036,-149.98563822602236,0.2761,0.0408,-0.4745,-11.9284,-2.0037,27.4508,84.42610410180423,30.033806527015006,85.85563886283647,-27.96629163953993,-89.09209357367621,-35.688696967230904,-0.05441495687654703,-0.05441495687654703,0.0008022195041769802,-0.01408047146267361,0.06785074869791667,0.06785074869791667,1.3644,0.4502,1.569,0.02058,-0.02868,-0.02439,0.0008820138755254447,0.0009999937610700727,0.0009201358770951629,0.0005079067195765674,0.0005001365789212286,0.0005738979671150446,0.01173606887459755,0.010186107829213142,0.011653736233711243,passive,0
0.041,rehab,small_slow,80.22093468843745,-666.6335122720146,262.48314821495967,-177.389355868968,0.1329738021938082,-149.9856367751328,-0.0116,-0.0013,0.086,-12.9385,-1.3466,20.1217,84.42609730333385,30.033799728544633,85.85563886283647,-27.966283162434895,-89.09210205078125,-35.68870544433594,-0.05441495687654703,-0.0,-0.021476367912670172,-0.003517998589409722,-0.0,-0.06785074869791667,1.188,0.4008,1.8404,0.00062,-0.02098,-0.03234,0.0008820138755254447,0.0009999937610700727,0.0009201358770951629,0.0005079067195765674,0.0005001365789212286,0.0005738979671150446,0.01173606887459755,0.010186107829213142,0.011653736233711243,passive,0
0.0606,rehab,small_slow,80.22084864181089,-666.6334327340263,262.4831985349301,-177.3893608760131,0.13296766635510598,-149.9856608071943,-0.3193,-0.0299,0.561,-14.2521,-0.7514,15.0827,84.42609050486347,30.033786131603883,85.85565245977723,-27.966283162434895,-89.09211052788628,-35.68868849012587,-0.0,-0.0,0.010517233669167698,-0.009875827365451388,-0.06785074869791667,-0.0,1.0954,0.592,2.1314,0.01237,-0.02198,-0.02008,0.0008820138755254447,0.0009999937610700727,0.0009201358770951629,0.0005079067195765674,0.0005001365789212286,0.0005738979671150446,0.01173606887459755,0.010186107829213142,0.011653736233711243,passive,0
0.0806,rehab,small_slow,80.21898787997578,-666.6334180478016,262.48571669509425,-177.38916790118242,0.13284010198459112,-149.9858234247873,-0.6566,-0.0455,0.9645,-15.8844,-0.1973,12.1532,84.42592734157449,30.033588975963024,85.85561846742536,-27.966283162434895,-89.09210205078125,-35.68868849012587,-0.0,-0.05441495687654703,-0.015690869624071783,0.0009409586588541666,-0.06785074869791667,-0.06785074869791667,1.2186,0.4967,1.7696,0.00919,-0.02826,-0.03061,0.0008820138755254447,0.0009999937610700727,0.0009201358770951629,0.0005079067195765674,0.0005001365789212286,0.0005738979671150446,0.01173606887459755,0.010186107829213142,0.011653736233711243,passive,0
0.1006,rehab,small_slow,80.21228374087465,-666.6330202192355,262.49668298187277,-177.38841347044803,0.13229059150244551,-149.9864064123212,-1.0065,-0.0383,1.1949,-17.9822,0.3221,12.4287,84.42534267312229,30.032718771755103,85.85546210260675,-27.966189914279514,-89.09211052788628,-35.68868849012587,-0.05441495687654703,-0.05441495687654703,-0.027146292204904082,0.05109998914930555,-0.06785074869791667,-0.0,1.1698,0.4953,1.9053,0.00668,-0.02313,-0.03252,0.0008820138755254447,0.0009999937610700727,0.0009201358770951629,0.0005079067195765674,0.0005001365789212286,0.0005738979671150446,0.01173606887459755,0.010186107829213142,0.011653736233711243,passive,0
0.1207,rehab,small_slow,80.17077882641468,-666.6356406846352,262.5504232512925,-177.38484492425903,0.1297577887635658,-149.989793999523,-1.2546,-0.0227,1.1769,-19.6823,0.8515,13.7832,84.42175308076462,30.028904829875078,85.85387126053914,-27.96515570746528,-89.09209357367621,-35.68887498643663,-0.2176666259765625,-0.16324487062964108,-0.0889715817895266,0.1006317138671875,-0.0,-0.0,1.2794,0.5557,2.109,0.01262,-0.03384,-0.02742,0.0008820138755254447,0.0009999937610700727,0.0009201358770951629,0.0005079067195765674,0.0005001365789212286,0.0005738979671150446,0.01173606887459755,0.010186107829213142,0.011653736233711243,passive,0
0.1405,rehab,small_slow,80.13967139570845,-666.6373519739453,262.586205133956,-177.3831796342054,0.12853553455550326,-149.99177781416606,-1.6311,-0.0086,1.3659,-21.3177,1.0842,16.8094,84.41906088649637,30.026389395836556,85.85245038023089,-27.963265313042534,-89.09210205078125,-35.68956163194444,-0.16324487062964108,-0.10882991375309406,-0.08907355884514233,0.16615973578559026,-0.06785074869791667,-0.06785074869791667,1.3804,0.5036,2.259,0.01729,-0.0336,-0.0335,0.0008820138755254447,0.0009999937610700727,0.0009201358770951629,0.0005079067195765674,0.0005001365789212286,0.0005738979671150446,0.01173606887459755,0.010186107829213142,0.011653736233711243,passive,0
0.1614,rehab,small_slow,80.09063240165908,-666.6367939018902,262.6271108839014,-177.38314146214591,0.12840281529277314,-149.99265665838576,-2.4042,0.0181,2.0813,-28.0651,0.9991,27.7385,84.4147778501605,30.02321451017172,85.8504584284112,-27.958111233181423,-89.09208509657118,-35.69291008843316,-0.2176666259765625,-0.16324487062964108,-0.06611512439085705,0.2559407552083333,-0.0,-0.20355224609375,1.1385,0.5658,2.0621,0.00386,-0.01528,-0.02321,0.0008820138755254447,0.0009999937610700727,0.0009201358770951629,0.0005079067195765674,0.0005001365789212286,0.0005738979671150446,0.01173606887459755,0.010186107829213142,0.011653736233711243,passive,0
0.1807,rehab,small_slow,80.05680248903839,-666.6355036405749,262.6451829299844,-177.38492172328588,0.12958358032091685,-149.9920452873293,-2.9115,0.0484,2.6623,-38.1698,0.7377,42.6547,84.4118069186069,30.021705249748607,85.84892197410659,-27.95282999674479,-89.09205118815105,-35.6964365641276,-0.16324487062964108,-0.10882991375309406,-0.10303761699412128,0.37707010904947913,-0.0,-0.20355224609375,1.0782,0.6359,1.8332,0.00335,-0.02029,-0.01797,0.0008820138755254447,0.0009999937610700727,0.0009201358770951629,0.0005079067195765674,0.0005001365789212286,0.0005738979671150446,0.01173606887459755,0.010186107829213142,0.011653736233711243,passive,0
0.2005,rehab,small_slow,79.99371541556349,-666.6328759422211,262.6856441208018,-177.3885183102838,0.13196887769392157,-149.99003066716634,-3.5473,0.0673,3.459,-48.7252,0.277,57.308,84.4062593667814,30.018503170202273,85.84536637410079,-27.941546969943577,-89.09197489420573,-35.70387946234809,-0.32649653972965653,-0.2176666259765625,-0.2175646489209468,0.5513085259331597,-0.0,-0.339262220594618,1.0767,0.6129,1.8606,0.01223,-0.0245,-0.02249,0.0008820138755254447,0.0009999937610700727,0.0009201358770951629,0.0005079067195765674,0.0005001365789212286,0.0005738979671150446,0.01173606887459755,0.010186107829213142,0.011653736233711243,passive,0
0.2205,rehab,small_slow,79.93140107752123,-666.632710685364,262.74512534285014,-177.38972443264453,0.13281935623268673,-149.9889064846455,-4.5052,0.056,4.6496,-60.2988,-0.2066,69.3616,84.40078659813003,30.01424732774791,85.84124650105392,-27.931510077582466,-89.09178839789496,-35.710364447699654,-0.3809114966062036,-0.32649653972965653,-0.27488935111772894,0.7078297932942709,0.06785074869791667,-0.4749637179904514,1.1904,0.4821,2.0409,0.00124,-0.02556,-0.03158,0.0008820138755254447,0.0009999937610700727,0.0009201358770951629,0.0005079067195765674,0.0005001365789212286,0.0005738979671150446,0.01173606887459755,0.010186107829213142,0.011653736233711243,passive,0
0.2408,rehab,small_slow,79.78344485787147,-666.6307681474107,262.91499954715334,-177.39001702273734,0.13312254527580514,-149.9865534657989,-5.896,0.036,6.2938,-68.8444,-0.6734,74.6427,84.38776752736308,30.002010081074026,85.83106919090346,-27.908248901367188,-89.09125434027777,-35.72547064887153,-0.544163165706219,-0.544163165706219,-0.43699887719484837,0.9509785970052083,-0.0,-0.6106736924913194,1.2236,0.6531,2.675,0.00294,-0.02414,-0.02906,0.0008820138755254447,0.0009999937610700727,0.0009201358770951629,0.0005079067195765674,0.0005001365789212286,0.0005738979671150446,0.01173606887459755,0.010186107829213142,0.011653736233711243,passive,0
0.261,rehab,small_slow,79.67503477816055,-666.629831705862,263.044631088584,-177.38968995124864,0.13293148056390258,-149.98476234101898,-7.7028,0.0229,8.2278,-77.9751,-1.0872,78.5348,84.3782360718982,29.992750564424117,85.82343450867303,-27.891413370768227,-89.09088134765625,-35.73660108778212,-0.6529998779296875,-0.5985781225827661,-0.5415797469639542,1.1502414279513888,0.06785074869791667,-0.7463751898871528,1.1848,0.6401,2.1422,0.0227,-0.03087,-0.0229,0.0008820138755254447,0.0009999937610700727,0.0009201358770951629,0.0005079067195765674,0.0005001365789212286,0.0005738979671150446,0.01173606887459755,0.010186107829213142,0.011653736233711243,passive,0
0.2805,rehab,small_slow,79.54089626177671,-666.6302186830179,263.1939393600257,-177.38949608777799,0.13285165308308042,-149.9833503864721,-9.353,0.0012,9.867,-87.4746,-1.1897,82.5613,84.36646112120978,29.98215854758083,85.81443333389736,-27.87165323893229,-89.09044053819444,-35.74956258138021,-0.7618297916827815,-0.6529998779296875,-0.5646061661219833,1.2913767496744792,-0.0,-0.8820851643880208,1.1645,0.6915,2.4754,0.02093,-0.03273,-0.02709,0.0008820138755254447,0.0009999937610700727,0.0009201358770951629,0.0005079067195765674,0.0005001365789212286,0.0005738979671150446,0.01173606887459755,0.010186107829213142,0.011653736233711243,passive,0
0.301,rehab,small_slow,79.28433320589171,-666.6328486891101,263.4521438168525,-177.38956682487785,0.13297419121694015,-149.98297293202816,-11.0943,-0.0264,11.3925,-91.4897,-0.9614,81.7757,84.3439785796817,29.963789080629255,85.79877645662515,-27.836854722764755,-89.08970303005643,-35.77202690972222,-1.0883331298828125,-0.8162515470297029,-0.6966256623220916,1.5941619873046875,0.06785074869791667,-1.0856458875868056,1.1024,0.6274,2.0491,0.0123,-0.01695,-0.02157,0.0008820138755254447,0.0009999937610700727,0.0009201358770951629,0.0005079067195765674,0.0005001365789212286,0.0005738979671150446,0.01173606887459755,0.010186107829213142,0.011653736233711243,passive,0
0.3208,rehab,small_slow,79.08692287029015,-666.6324952529226,263.6505449621462,-177.38950474709748,0.13292371809299183,-149.9830297128548,-12.9236,-0.0431,12.8325,-89.449,-0.7305,76.8828,84.32666967410853,29.94938312190594,85.7873006386332,-27.810567220052082,-89.08919440375433,-35.788981119791664,-1.1427480867593596,-0.87066650390625,-0.721691622592435,1.6975487603081596,-0.0,-1.0856458875868056,1.1516,0.4948,2.5403,0.0138,-0.03725,-0.02601,0.0008820138755254447,0.0009999937610700727,0.0009201358770951629,0.0005079067195765674,0.0005001365789212286,0.0005738979671150446,0.01173606887459755,0.010186107829213142,0.011653736233711243,passive,0
0.3408,rehab,small_slow,78.74987078547562,-666.6305624388094,263.9750239680282,-177.39005894038675,0.13334573360017699,-149.9834355418614,-14.1617,-0.056,13.7791,-80.4773,-0.4449,68.1699,84.29710312645034,29.92556128171411,85.76865243439627,-27.76657952202691,-89.08830430772569,-35.81764221191406,-1.305999755859375,-1.0339181730062654,-0.8372452235457921,1.941587660047743,-0.0,-1.357057359483507,1.1995,0.6157,2.3676,0.01516,-0.02778,-0.02546,0.0008820138755254447,0.0009999937610700727,0.0009201358770951629,0.0005079067195765674,0.0005001365789212286,0.0005738979671150446,0.01173606887459755,0.010186107829213142,0.011653736233711243,passive,0
0.362,rehab,small_slow,78.50308880739333,-666.6327974165594,264.2130569766799,-177.39020383175185,0.13349832001478515,-149.98385265377775,-16.4086,-0.0626,15.8062,-75.3913,0.1991,65.9493,84.27548399065981,29.908544710367032,85.75432805731745,-27.73443433973524,-89.08763461642795,-35.83847893608941,-1.360414712735922,-1.1427480867593596,-0.952261745339573,2.11136711968316,-0.0,-1.357057359483507,1.0593,0.5459,2.3972,-0.0047,-0.03111,-0.0264,0.0008820138755254447,0.0009999937610700727,0.0009201358770951629,0.0005079067195765674,0.0005001365789212286,0.0005738979671150446,0.01173606887459755,0.010186107829213142,0.011653736233711243,passive,0
0.3806,rehab,small_slow,78.10386402350144,-666.6355517105262,264.60826233584,-177.38993671786497,0.13334744883019162,-149.98429271665535,-18.2214,-0.0442,17.5068,-70.6971,0.9742,66.1985,84.24050586058361,29.880324259842975,85.73074416358872,-27.681961059570312,-89.08657497829861,-35.87242126464844,-1.5780813387124846,-1.251584798982828,-1.0007212421681622,2.31797112358941,0.06785074869791667,-1.4927588568793402,1.0216,0.5011,2.1596,0.00345,-0.0344,-0.02094,0.0008820138755254447,0.0009999937610700727,0.0009201358770951629,0.0005079067195765674,0.0005001365789212286,0.0005738979671150446,0.01173606887459755,0.010186107829213142,0.011653736233711243,passive,0
0.4008,rehab,small_slow,77.80856135030426,-666.6368539361673,264.8826772988894,-177.39038148526822,0.13369544867091207,-149.98508321934548,-18.8279,-0.0302,18.1039,-60.4142,1.6951,62.8329,84.21463088233872,29.860506718701654,85.71444143163096,-27.644568549262154,-89.08580356174045,-35.89708116319444,-1.5236663818359375,-1.305999755859375,-1.0092193301361385,2.3749627007378473,0.06785074869791667,-1.6284688313802083,0.9918,0.5507,2.0538,0.0049,-0.02772,-0.01968,0.0008820138755254447,0.0009999937610700727,0.0009201358770951629,0.0005079067195765674,0.0005001365789212286,0.0005738979671150446,0.01173606887459755,0.010186107829213142,0.011653736233711243,passive,0
0.4207,rehab,small_slow,77.34912534249004,-666.635817646085,265.32556355468773,-177.3908349066601,0.13403376716259982,-149.98534169728035,-19.9692,-0.011,19.2714,-53.6052,2.0569,60.3099,84.17434314690014,29.82842473700495,85.68843048397858,-27.584779527452255,-89.08459981282552,-35.936431884765625,-1.795747964689047,-1.360414712735922,-1.13647989707418,2.546725802951389,0.06785074869791667,-1.7641703287760415,1.0243,0.5911,2.2425,0.01332,-0.02518,-0.02424,0.0008820138755254447,0.0009999937610700727,0.0009201358770951629,0.0005079067195765674,0.0005001365789212286,0.0005738979671150446,0.01173606887459755,0.010186107829213142,0.011653736233711243,passive,0
0.4408,rehab,small_slow,77.02509618545689,-666.6378642781008,265.642282618939,-177.39065173493603,0.13390717594742416,-149.98519471364295,-20.8148,0.0503,20.3023,-43.4042,1.8983,51.1913,84.14595273461673,29.805887807713876,85.66939476693031,-27.542622884114582,-89.08374362521701,-35.96449110243056,-1.7413330078125,-1.4148296696124691,-1.210460851688196,2.711215549045139,0.06785074869791667,-1.7641703287760415,0.9769,0.631,2.3057,0.00584,-0.02576,-0.01846,0.0008820138755254447,0.0009999937610700727,0.0009201358770951629,0.0005079067195765674,0.0005001365789212286,0.0005738979671150446,0.01173606887459755,0.010186107829213142,0.011653736233711243,passive,0
0.461,rehab,small_slow,76.50948753033866,-666.6342976460886,266.13774142445885,-177.39106359678956,0.1341801210941275,-149.98550365681487,-21.8091,0.1137,21.5461,-35.3374,1.0686,41.0763,84.10072251121596,29.769842317788907,85.64061684183555,-27.47603522406684,-89.08242119683159,-36.00865681966146,-1.9045846769125154,-1.686918050935953,-1.2330589672126393,2.8837415907118054,0.06785074869791667,-1.9677310519748263,1.1261,0.5064,2.7261,0.00916,-0.01886,-0.03069,0.0008820138755254447,0.0009999937610700727,0.0009201358770951629,0.0005079067195765674,0.0005001365789212286,0.0005738979671150446,0.01173606887459755,0.010186107829213142,0.011653736233711243,passive,0
0.4808,rehab,small_slow,76.0622675106677,-666.6316390555933,266.58404012320875,-177.39049983232852,0.13378108080041112,-149.98546693187572,-22.826,0.1451,22.7752,-39.1332,-0.1086,39.7384,84.06148853868541,29.737671955977337,85.61463988653504,-27.417466905381943,-89.08124287923177,-36.047261555989586,-2.0134145906656093,-1.5780813387124846,-1.2795537061030322,3.022630479600694,0.06785074869791667,-2.0355902777777777,1.159,0.5622,2.0858,0.00936,-0.02687,-0.02202,0.0008820138755254447,0.0009999937610700727,0.0009201358770951629,0.0005079067195765674,0.0005001365789212286,0.0005738979671150446,0.01173606887459755,0.010186107829213142,0.011653736233711243,passive,0
0.5005,rehab,small_slow,75.68743610744407,-666.6306489913587,266.95516891832494,-177.38986475259298,0.1332837379207658,-149.98577124629094,-23.3787,0.1276,23.3381,-44.0541,-1.2339,38.4154,84.02862473289565,29.711076339872758,85.59287118439627,-27.368986341688366,-89.08030192057292,-36.07927110460069,-2.0134145906656093,-1.795747964689047,-1.3284822973874535,3.0878363715277777,0.06785074869791667,-2.0355902777777777,1.1991,0.5947,2.3254,0.02905,-0.03695,-0.02014,0.0008820138755254447,0.0009999937610700727,0.0009201358770951629,0.0005079067195765674,0.0005001365789212286,0.0005738979671150446,0.01173606887459755,0.010186107829213142,0.011653736233711243,passive,0
0.5207,rehab,small_slow,75.11787608458464,-666.6253568538496,267.5322829956284,-177.3890702720229,0.13267350626192256,-149.98439417766338,-24.1451,0.0765,23.8395,-47.7123,-2.1934,36.3271,83.97863558023283,29.66958527517791,85.55915077133935,-27.293319702148438,-89.07879299587674,-36.12977769639757,-2.067836346012531,-1.7413330078125,-1.4380260505298577,3.1684027777777777,0.06785074869791667,-2.171291775173611,1.1118,0.5633,2.4751,0.0127,-0.03903,-0.022,0.0008820138755254447,0.0009999937610700727,0.0009201358770951629,0.0005079067195765674,0.0005001365789212286,0.0005738979671150446,0.01173606887459755,0.010186107829213142,0.011653736233711243,passive,0
0.5406,rehab,small_slow,74.73333469731769,-666.6233674469217,267.9290427566926,-177.38834098032626,0.13217227817335597,-149.9828872273614,-24.6304,-0.0031,23.9722,-49.9306,-2.4562,35.7751,83.9448879732944,29.641426010887223,85.53544450514387,-27.24133809407552,-89.07771640353732,-36.164440578884545,-2.176666259765625,-1.686918050935953,-1.489381695737933,3.2906256781684027,0.06785074869791667,-2.171291775173611,0.9826,0.4384,1.9989,-0.00207,-0.0243,-0.02105,0.0008820138755254447,0.0009999937610700727,0.0009201358770951629,0.0005079067195765674,0.0005001365789212286,0.0005738979671150446,0.01173606887459755,0.010186107829213142,0.011653736233711243,passive,0
0.5615,rehab,small_slow,74.1226214918819,-666.623595490167,268.51730121436685,-177.38927548614205,0.1328022250927748,-149.98169809434626,-25.9657,-0.0815,24.8383,-51.3479,-1.8068,37.9603,83.89134322062577,29.599873759959003,85.49905229322981,-27.16071234809028,-89.0761227077908,-36.21826171875,-2.2855029719890934,-1.795747964689047,-1.5861035337542544,3.419647216796875,0.06785074869791667,-2.307001749674479,1.0418,0.4974,2.2554,0.01223,-0.02377,-0.02385,0.0008820138755254447,0.0009999937610700727,0.0009201358770951629,0.0005079067195765674,0.0005001365789212286,0.0005738979671150446,0.01173606887459755,0.010186107829213142,0.011653736233711243,passive,0
0.5806,rehab,small_slow,73.68755845386171,-666.6267897576354,268.9183374657871,-177.39004753612832,0.13339454513376872,-149.98245905041958,-27.7084,-0.0998,26.2497,-51.5002,-0.5639,41.9045,83.853230995707,29.571775681901688,85.47379597578899,-27.105322943793404,-89.07498677571614,-36.254984537760414,-2.3943328857421875,-1.795747964689047,-1.5465908239383508,3.540089925130208,-0.0,-2.307001749674479,1.0034,0.5462,2.1244,0.0163,-0.02173,-0.02052,0.0008820138755254447,0.0009999937610700727,0.0009201358770951629,0.0005079067195765674,0.0005001365789212286,0.0005738979671150446,0.01173606887459755,0.010186107829213142,0.011653736233711243,passive,0
0.6008,rehab,small_slow,73.01625626105447,-666.6327338650906,269.54121845461134,-177.39055613711534,0.1337936791498357,-149.98363550334196,-28.574,-0.0908,27.016,-46.0498,0.8427,41.3723,83.79443782390935,29.528387843972386,85.4344872200843,-27.020339965820312,-89.07324896918402,-36.311637030707466,-2.503169597965656,-1.795747964689047,-1.713744815033261,3.6004638671875,0.06785074869791667,-2.374852498372396,0.9234,0.5186,2.967,0.0066,-0.02432,-0.02387,0.0008820138755254447,0.0009999937610700727,0.0009201358770951629,0.0005079067195765674,0.0005001365789212286,0.0005738979671150446,0.01173606887459755,0.010186107829213142,0.011653736233711243,passive,0
0.6211,rehab,small_slow,72.55263807561424,-666.6354153591627,269.9667736646768,-177.39077493624782,0.1339206065471015,-149.98470429873407,-29.3588,-0.0513,27.8568,-37.0456,1.7189,34.5462,83.75383056036317,29.498596946791846,85.4079527902131,-26.962636311848957,-89.07209608289931,-36.35052151150173,-2.503169597965656,-1.8501697200359684,-1.608089786945003,3.624021742078993,0.06785074869791667,-2.5784132215711804,1.0178,0.4632,2.4255,0.01236,-0.03492,-0.02015,0.0008820138755254447,0.0009999937610700727,0.0009201358770951629,0.0005079067195765674,0.0005001365789212286,0.0005738979671150446,0.01173606887459755,0.010186107829213142,0.011653736233711243,passive,0
0.6409,rehab,small_slow,71.84698950242512,-666.6365854580788,270.64104717809374,-177.3893934431008,0.1328925269664276,-149.98616438538556,-29.6584,0.011,28.2994,-23.5347,1.7408,20.3714,83.69199167383779,29.45136797310102,85.36677445515548,-26.87422858344184,-89.07030741373698,-36.40989515516493,-2.6664212670656715,-2.067836346012531,-1.7049951836614325,3.7365468343098955,0.06785074869791667,-2.4427032470703125,0.9018,0.4421,2.4582,0.00338,-0.02723,-0.01712,0.0008820138755254447,0.0009999937610700727,0.0009201358770951629,0.0005079067195765674,0.0005001365789212286,0.0005738979671150446,0.01173606887459755,0.010186107829213142,0.011653736233711243,passive,0
0.6612,rehab,small_slow,71.38536794904249,-666.6317335157948,271.0903434649409,-177.3890346631248,0.1326686627949003,-149.98579420534833,-30.1104,0.0697,28.7901,-11.0043,0.8107,4.2799,83.6514659919361,29.41949674398592,85.33973014000618,-26.814566718207466,-89.06905280219183,-36.450110541449654,-2.61199951171875,-2.0134145906656093,-1.7028944563157487,3.7911139594184027,0.06785074869791667,-2.4427032470703125,0.9554,0.4955,2.5397,0.02073,-0.02953,-0.01701,0.0008820138755254447,0.0009999937610700727,0.0009201358770951629,0.0005079067195765674,0.0005001365789212286,0.0005738979671150446,0.01173606887459755,0.010186107829213142,0.011653736233711243,passive,0
0.6807,rehab,small_slow,70.55847565457546,-666.6283140729919,271.90056644462476,-177.38747665898944,0.13152926238623353,-149.98506762832218,-30.3014,0.0855,28.7663,-4.0686,-0.3711,-6.9111,83.57893311151183,29.362879082708076,85.29000612768796,-26.708060370551216,-89.06685723198784,-36.522157457139755,-2.557584554842203,-2.0134145906656093,-1.8175370622389386,3.831295437282986,0.06785074869791667,-2.5784132215711804,0.9641,0.3597,1.9893,0.02355,-0.03786,-0.01924,0.0008820138755254447,0.0009999937610700727,0.0009201358770951629,0.0005079067195765674,0.0005001365789212286,0.0005738979671150446,0.01173606887459755,0.010186107829213142,0.011653736233711243,passive,0
0.701,rehab,small_slow,70.07507870211997,-666.6263542884202,272.36481772858826,-177.38694727702824,0.13114279912197374,-149.9845681805093,-30.4696,0.0453,28.4749,-5.6675,-1.3488,-8.4866,83.53653105178682,29.330491169844525,85.26126219494508,-26.64635552300347,-89.06556871202257,-36.5643564860026,-2.7752511808187657,-1.9589996337890625,-1.8441190814027693,3.88626946343316,0.13570149739583334,-2.5784132215711804,0.9718,0.4557,2.1184,0.02432,-0.03207,-0.02087,0.0008820138755254447,0.0009999937610700727,0.0009201358770951629,0.0005079067195765674,0.0005001365789212286,0.0005738979671150446,0.01173606887459755,0.010186107829213142,0.011653736233711243,passive,0
0.7206,rehab,small_slow,69.57950364987802,-666.6264802883896,272.81550507661314,-177.3875761518729,0.13161098293499404,-149.9850475973636,-30.2151,-0.0125,27.8122,-12.1052,-1.6721,-1.9991,83.49308882609452,29.299197810711245,85.23258624690594,-26.584370930989582,-89.0642801920573,-36.60661485460069,-2.6664212670656715,-1.9589996337890625,-1.8089369972153466,3.9033084445529513,0.06785074869791667,-2.5784132215711804,0.8583,0.4295,2.3805,0.02234,-0.02689,-0.02065,0.0008820138755254447,0.0009999937610700727,0.0009201358770951629,0.0005079067195765674,0.0005001365789212286,0.0005738979671150446,0.01173606887459755,0.010186107829213142,0.011653736233711243,passive,0
0.7415,rehab,small_slow,68.8270650368764,-666.6281768907976,273.4912637224061,-177.3890253474217,0.1326506049309915,-149.98571402509094,-30.5981,-0.0818,27.8462,-16.3861,-1.2281,5.5563,83.4271504619334,29.252594296294863,85.18885168698755,-26.490376790364582,-89.0623558892144,-36.67082044813368,-2.7208362239422184,-1.9045846769125154,-1.8588921575262995,3.8445281982421875,0.06785074869791667,-2.714114718967014,0.8991,0.5982,3.0547,0.02415,-0.02636,-0.02202,0.0008820138755254447,0.0009999937610700727,0.0009201358770951629,0.0005079067195765674,0.0005001365789212286,0.0005738979671150446,0.01173606887459755,0.010186107829213142,0.011653736233711243,passive,0
0.7608,rehab,small_slow,68.31585897105559,-666.6309213518034,273.94227704082414,-177.39013638959347,0.1334669348291073,-149.9863083620044,-30.8668,-0.1135,27.9597,-23.4617,-0.2386,16.4462,83.38236893757735,29.221722442324797,85.15921715462562,-26.427222357855904,-89.06104193793402,-36.71429104275173,-2.8296661376953125,-1.9045846769125154,-1.8177682102316677,3.9622073703342013,0.06785074869791667,-2.781973944769965,0.7612,0.3813,2.0553,0.01403,-0.02516,-0.01947,0.0008820138755254447,0.0009999937610700727,0.0009201358770951629,0.0005079067195765674,0.0005001365789212286,0.0005738979671150446,0.01173606887459755,0.010186107829213142,0.011653736233711243,passive,0
0.781,rehab,small_slow,67.55314824822031,-666.635729000304,274.6250493002704,-177.39141523857538,0.13440405355560142,-149.98653503237645,-31.2996,-0.0885,28.4109,-33.4165,1.0364,29.3688,83.31556036920831,29.17535687437152,85.11395293887298,-26.33209228515625,-89.05906677246094,-36.779793633355034,-2.7208362239422184,-2.067836346012531,-1.8397612618927908,4.004431830512153,0.06785074869791667,-2.6462639702690973,0.8544,0.3198,2.403,0.01009,-0.03734,-0.02422,0.0008820138755254447,0.0009999937610700727,0.0009201358770951629,0.0005079067195765674,0.0005001365789212286,0.0005738979671150446,0.01173606887459755,0.010186107829213142,0.011653736233711243,passive,0
0.8007,rehab,small_slow,67.05056930504811,-666.6358485681591,275.0904408860006,-177.3917485734651,0.13465346367240202,-149.9857300620448,-32.9625,-0.0327,30.1045,-39.3386,1.8503,34.8904,83.27149948271195,29.14364201007503,85.08354338088839,-26.26825968424479,-89.05772738986545,-36.823933919270836,-2.6664212670656715,-1.9589996337890625,-1.8922590501237624,3.9129214816623263,0.13570149739583334,-2.8498246934678817,0.9692,0.2433,2.3732,0.02729,-0.04029,-0.02218,0.0008820138755254447,0.0009999937610700727,0.0009201358770951629,0.0005079067195765674,0.0005001365789212286,0.0005738979671150446,0.01173606887459755,0.010186107829213142,0.011653736233711243,passive,0
0.821,rehab,small_slow,66.29234893539815,-666.6358644944861,275.8016065557774,-177.3909147032404,0.13406014330820634,-149.98434546434902,-33.0016,0.0365,30.192,-37.8178,1.9576,30.0916,83.20502403939125,29.095311684183553,85.03749054257233,-26.172943115234375,-89.05567593044705,-36.89070807562934,-2.6664212670656715,-2.067836346012531,-1.9814345860245204,4.132376776801215,0.06785074869791667,-2.8498246934678817,0.9777,0.3726,2.5766,0.03067,-0.04483,-0.02156,0.0008820138755254447,0.0009999937610700727,0.0009201358770951629,0.0005079067195765674,0.0005001365789212286,0.0005738979671150446,0.01173606887459755,0.010186107829213142,0.011653736233711243,passive,0
0.841,rehab,small_slow,65.77644695807784,-666.6347909778658,276.2813436861036,-177.39023411015808,0.133516710271008,-149.9838850282842,-33.5923,0.0836,30.5826,-23.1472,1.2495,12.1069,83.15979381599048,29.06263823556428,85.00661868860226,-26.108949449327255,-89.05433654785156,-36.935670640733505,-2.7752511808187657,-2.176666259765625,-1.8898863839631033,4.055828518337673,0.06785074869791667,-2.714114718967014,0.9182,0.3132,2.4484,0.02223,-0.02862,-0.01868,0.0008820138755254447,0.0009999937610700727,0.0009201358770951629,0.0005079067195765674,0.0005001365789212286,0.0005738979671150446,0.01173606887459755,0.010186107829213142,0.011653736233711243,passive,0
0.8613,rehab,small_slow,64.97818628484352,-666.6317949012462,276.99974392913083,-177.3894377396565,0.13294129412907713,-149.98558960770498,-34.7034,0.0936,31.2582,-1.3608,-0.0935,-12.3385,83.08980356348623,29.013458100876004,84.96070181969368,-26.01286146375868,-89.05227661132812,-37.002860175238716,-2.992917806795328,-2.0134145906656093,-1.9223966692933943,4.056337144639757,0.13570149739583334,-2.781973944769965,0.8075,0.2668,2.3219,0.02553,-0.03861,-0.01814,0.0008820138755254447,0.0009999937610700727,0.0009201358770951629,0.0005079067195765674,0.0005001365789212286,0.0005738979671150446,0.01173606887459755,0.010186107829213142,0.011653736233711243,passive,0
0.8811,rehab,small_slow,64.30580659002239,-666.628102722526,277.5974186263805,-177.38880251855326,0.13250950860903798,-149.987698777721,-34.62,0.0703,30.7701,13.0833,-1.4336,-28.6722,83.03084042992923,28.972490518399983,84.92258279630454,-25.932896931966145,-89.050538804796,-37.058800591362846,-3.1017545190187965,-1.9589996337890625,-1.9306840046797649,3.9013078477647567,0.06785074869791667,-2.8498246934678817,0.777,0.371,2.2392,0.02327,-0.03144,-0.01849,0.0008820138755254447,0.0009999937610700727,0.0009201358770951629,0.0005079067195765674,0.0005001365789212286,0.0005738979671150446,0.01173606887459755,0.010186107829213142,0.011653736233711243,passive,0
0.9009,rehab,small_slow,63.504088284830424,-666.6265755523859,278.3031340330735,-177.3883317325935,0.13221183826002303,-149.98861836522738,-34.2239,0.0241,29.9877,19.3322,-2.2065,-33.6862,82.96055784319887,28.924649682375463,84.87657074881072,-25.837588840060764,-89.0484110514323,-37.1270751953125,-2.884087893042234,-1.9589996337890625,-1.854745090597927,4.016350640190972,0.06785074869791667,-2.8498246934678817,0.8009,0.2993,1.7352,0.02032,-0.0354,-0.0127,0.0008820138755254447,0.0009999937610700727,0.0009201358770951629,0.0005079067195765674,0.0005001365789212286,0.0005738979671150446,0.01173606887459755,0.010186107829213142,0.011653736233711243,passive,0
0.9205,rehab,small_slow,62.976408216869714,-666.6272886724676,278.75669382884433,-177.3892385012575,0.1328608242415675,-149.9884325837276,-33.0682,-0.0404,28.6693,26.178,-1.9607,-34.8569,82.9143214461827,28.89426051980198,84.84586885660002,-25.774035983615452,-89.0470462375217,-37.17277526855469,-2.938502849918781,-1.9589996337890625,-2.006500546294864,3.9800771077473955,0.06785074869791667,-2.8498246934678817,0.64,0.2779,2.5262,-0.00071,-0.03372,-0.02391,0.0008820138755254447,0.0009999937610700727,0.0009201358770951629,0.0005079067195765674,0.0005001365789212286,0.0005738979671150446,0.01173606887459755,0.010186107829213142,0.011653736233711243,passive,0
0.941,rehab,small_slow,62.193986105346035,-666.6306470690854,279.4337687907355,-177.39055106965796,0.13385396774321318,-149.9873634792674,-31.4422,-0.0943,27.0721,31.176,-0.9127,-32.823,82.8457792678682,28.849445003094058,84.79916336512801,-25.678846571180554,-89.04496086968315,-37.24130418565538,-2.884087893042234,-1.9045846769125154,-1.9168627144086479,3.8814883761935763,0.13570149739583334,-2.8498246934678817,0.7502,0.3757,2.8556,0.0224,-0.04235,-0.02098,0.0008820138755254447,0.0009999937610700727,0.0009201358770951629,0.0005079067195765674,0.0005001365789212286,0.0005738979671150446,0.01173606887459755,0.010186107829213142,0.011653736233711243,passive,0
0.9617,rehab,small_slow,61.666311996029215,-666.6331515102023,279.8892646993669,-177.39089401315795,0.1341092608068061,-149.98704233071007,-31.945,-0.1155,27.4327,21.1878,0.3987,-18.8628,82.79956326626315,28.819375368628172,84.76787680446512,-25.615709092881943,-89.04357062445746,-37.28712293836806,-2.938502849918781,-1.9045846769125154,-1.9938281975170173,4.0246836344401045,0.06785074869791667,-2.9176754421657987,0.6091,0.2892,2.6858,0.00523,-0.04099,-0.02166,0.0008820138755254447,0.0009999937610700727,0.0009201358770951629,0.0005079067195765674,0.0005001365789212286,0.0005738979671150446,0.01173606887459755,0.010186107829213142,0.011653736233711243,passive,0
0.9807,rehab,small_slow,61.13083224604695,-666.6339131155341,280.3480735959731,-177.39099838443857,0.1342117671391874,-149.9873357579038,-32.5195,-0.0936,27.9846,1.3712,1.4882,0.4364,82.75264702220954,28.78889782593982,84.73678739944307,-25.55263943142361,-89.04215494791667,-37.33302646213107,-3.1017545190187965,-1.9589996337890625,-1.843439234365331,3.923856947157118,0.06785074869791667,-2.8498246934678817,0.5528,0.4473,2.3446,0.02198,-0.03603,-0.00892,0.0008820138755254447,0.0009999937610700727,0.0009201358770951629,0.0005079067195765674,0.0005001365789212286,0.0005738979671150446,0.01173606887459755,0.010186107829213142,0.011653736233711243,passive,0
1.0005,rehab,small_slow,60.32174792760443,-666.637718092964,281.0447971463035,-177.38976701225064,0.13330677274774355,-149.9885941291818,-31.637,-0.0167,27.4146,-18.7898,2.0999,16.3149,82.68180016243812,28.743021747853497,84.68958561963375,-25.459060668945312,-89.04004414876302,-37.40154690212673,-2.884087893042234,-1.8501697200359684,-1.9396851794554455,3.8779958089192705,0.13570149739583334,-2.8498246934678817,0.6484,0.4468,2.2936,0.02776,-0.04003,-0.01268,0.0008820138755254447,0.0009999937610700727,0.0009201358770951629,0.0005079067195765674,0.0005001365789212286,0.0005738979671150446,0.01173606887459755,0.010186107829213142,0.011653736233711243,passive,0
1.0207,rehab,small_slow,59.78772379543797,-666.6388209946853,281.4974735699161,-177.38980614692676,0.1332921827295614,-149.98848470161263,-31.734,0.0595,27.5813,-31.4693,1.8718,22.675,82.63502668626238,28.713196858321087,84.65857099778582,-25.396830240885414,-89.03867085774739,-37.44772169325087,-2.992917806795328,-1.9045846769125154,-1.9126136704246597,3.803761800130208,0.06785074869791667,-2.985526190863715,0.5777,0.3257,1.8386,0.01732,-0.02629,-0.00842,0.0008820138755254447,0.0009999937610700727,0.0009201358770951629,0.0005079067195765674,0.0005001365789212286,0.0005738979671150446,0.01173606887459755,0.010186107829213142,0.011653736233711243,passive,0
1.0408,rehab,small_slow,59.008761934852785,-666.6343485881812,282.1776582169784,-177.38950162211827,0.13305624444106148,-149.98703102364246,-32.7643,0.094,28.3111,-24.7174,0.8222,10.8304,82.5667156559406,28.668027821153697,84.61272211358099,-25.304158528645832,-89.03657701280382,-37.51642862955729,-2.8296661376953125,-1.9045846769125154,-1.9365918754351021,3.868281046549479,0.06785074869791667,-2.985526190863715,0.5589,0.2439,1.6535,0.01529,-0.03323,-0.00841,0.0008820138755254447,0.0009999937610700727,0.0009201358770951629,0.0005079067195765674,0.0005001365789212286,0.0005738979671150446,0.01173606887459755,0.010186107829213142,0.011653736233711243,passive,0
1.061,rehab,small_slow,58.49577519102533,-666.632419116179,282.62865359929845,-177.38913935329063,0.13278791569811993,-149.98543952070008,-34.0112,0.0912,29.0471,-11.2748,-0.6412,-6.8689,82.52173697594368,28.638359296439898,84.58194543819616,-25.242801242404514,-89.03516981336806,-37.56229824490017,-2.7752511808187657,-1.8501697200359684,-1.9304256628055383,3.891915215386285,0.13570149739583334,-2.781973944769965,0.6746,0.2845,1.966,0.01854,-0.03706,-0.01216,0.0008820138755254447,0.0009999937610700727,0.0009201358770951629,0.0005079067195765674,0.0005001365789212286,0.0005738979671150446,0.01173606887459755,0.010186107829213142,0.011653736233711243,passive,0
1.0809,rehab,small_slow,57.72332334245997,-666.6282739110511,283.2975245312843,-177.38882730037056,0.132527966706548,-149.98334714168567,-34.5521,0.0597,29.0038,-10.7807,-2.0338,-11.9356,82.45400381560373,28.59429161147316,84.5363209035137,-25.151468912760414,-89.03308444552951,-37.63108147515191,-2.992917806795328,-1.8501697200359684,-1.8726318661529238,3.7936147054036455,0.06785074869791667,-2.8498246934678817,0.5843,0.2028,2.2341,0.01678,-0.04052,-0.0134,0.0008820138755254447,0.0009999937610700727,0.0009201358770951629,0.0005079067195765674,0.0005001365789212286,0.0005738979671150446,0.01173606887459755,0.010186107829213142,0.011653736233711243,passive,0
1.1008,rehab,small_slow,57.198318775230554,-666.6254959998447,283.73966690144465,-177.38858669597985,0.13238819506080338,-149.9830057461877,-34.2807,-0.007,28.2972,-3.3551,-2.7043,-18.8202,82.4079713726988,28.565126173567062,84.50623087363668,-25.091128879123264,-89.03165181477864,-37.67676459418403,-2.8296661376953125,-1.8501697200359684,-1.8500269521581065,3.760384453667535,0.06785074869791667,-2.985526190863715,0.4708,0.238,2.3206,0.00415,-0.02076,-0.01429,0.0008820138755254447,0.0009999937610700727,0.0009201358770951629,0.0005079067195765674,0.0005001365789212286,0.0005738979671150446,0.01173606887459755,0.010186107829213142,0.011653736233711243,passive,0
1.1205,rehab,small_slow,56.268662134341064,-666.6295417530508,284.4885104452945,-177.3890162953086,0.13275093288730255,-149.98404934686903,-33.6468,-0.0901,27.3007,18.3095,-2.172,-32.642,82.32658688384707,28.516761855323715,84.45322320012762,-24.986835055881077,-89.02921040852864,-37.75591532389323,-3.1017545190187965,-1.795747964689047,-1.8714081414855352,3.777152167426215,0.13570149739583334,-2.985526190863715,0.5502,0.3219,2.8191,0.0187,-0.03463,-0.01672,0.0008820138755254447,0.0009999937610700727,0.0009201358770951629,0.0005079067195765674,0.0005001365789212286,0.0005738979671150446,0.01173606887459755,0.010186107829213142,0.011653736233711243,passive,0
1.1407,rehab,small_slow,55.73530374830552,-666.6325470721243,284.90395609998484,-177.39002662460481,0.13349382339624571,-149.98489755198415,-32.2014,-0.1352,25.7766,37.8757,-0.7932,-41.5523,82.27991538472695,28.490084657574645,84.42322155036548,-24.927554660373264,-89.02786254882812,-37.80106438530816,-2.992917806795328,-1.5780813387124846,-1.9025859266224474,3.650843302408854,0.06785074869791667,-2.8498246934678817,0.5842,0.1898,2.165,0.01971,-0.04251,-0.01455,0.0008820138755254447,0.0009999937610700727,0.0009201358770951629,0.0005079067195765674,0.0005001365789212286,0.0005738979671150446,0.01173606887459755,0.010186107829213142,0.011653736233711243,passive,0
1.1616,rehab,small_slow,54.94370062392738,-666.6368383835909,285.532082026055,-177.3906785637913,0.13399317725998675,-149.98547847773585,-32.6342,-0.1407,25.9813,39.6262,1.0083,-35.7012,82.210638971612,28.449946488484297,84.37795733461286,-24.839307996961804,-89.02580261230469,-37.868754069010414,-2.938502849918781,-1.686918050935953,-1.8708778607963334,3.7008073594835067,0.06785074869791667,-2.781973944769965,0.5729,0.1587,2.2341,0.01101,-0.0397,-0.01046,0.0008820138755254447,0.0009999937610700727,0.0009201358770951629,0.0005079067195765674,0.0005001365789212286,0.0005738979671150446,0.01173606887459755,0.010186107829213142,0.011653736233711243,passive,0
1.1806,rehab,small_slow,54.423612880363955,-666.6403791214749,285.9445809067041,-177.39123243070034,0.13444461211176945,-149.98552064839993,-32.6722,-0.1076,26.0368,20.9687,2.5182,-15.8577,82.16513001092589,28.423819966835552,84.3477993200321,-24.780968560112846,-89.02442084418402,-37.91355556911892,-2.8296661376953125,-1.6325030940594059,-1.8641745690071936,3.7393612331814237,0.06785074869791667,-2.8498246934678817,0.6531,0.233,2.1793,0.02004,-0.03204,-0.01865,0.0008820138755254447,0.0009999937610700727,0.0009201358770951629,0.0005079067195765674,0.0005001365789212286,0.0005738979671150446,0.01173606887459755,0.010186107829213142,0.011653736233711243,passive,0
1.2005,rehab,small_slow,53.90639073164164,-666.6414898703651,286.36642799737746,-177.39078365725388,0.13412398494533528,-149.9855302879523,-30.9955,-0.0136,24.8745,3.3965,3.3097,0.5692,82.11984539976214,28.396891225682626,84.31778407332921,-24.72323947482639,-89.02303907606337,-37.958170572916664,-2.8296661376953125,-1.7413330078125,-1.854174019086479,3.6888970269097223,0.06785074869791667,-2.8498246934678817,0.5467,0.0879,2.1155,0.01416,-0.02562,-0.01475,0.0008820138755254447,0.0009999937610700727,0.0009201358770951629,0.0005079067195765674,0.0005001365789212286,0.0005738979671150446,0.01173606887459755,0.010186107829213142,0.011653736233711243,passive,0
1.2205,rehab,small_slow,53.133442784157786,-666.6402450319763,286.9869935668364,-177.39078818227676,0.1341410431896072,-149.9848777180163,-30.0836,0.086,24.3013,-4.1025,2.9484,5.242,82.05213943330368,28.3570657862295,84.27366879906985,-24.637264675564236,-89.02097066243489,-38.025546603732636,-2.8296661376953125,-1.686918050935953,-1.8622506018912437,3.4933217366536455,0.06785074869791667,-2.8498246934678817,0.5461,0.0882,2.1234,0.00244,-0.03231,-0.019,0.0008820138755254447,0.0009999937610700727,0.0009201358770951629,0.0005079067195765674,0.0005001365789212286,0.0005738979671150446,0.01173606887459755,0.010186107829213142,0.011653736233711243,passive,0
1.2411,rehab,small_slow,52.622077032181615,-666.6373398832086,287.4105612901854,-177.389779925386,0.1333250808620194,-149.9846769925962,-30.6261,0.1515,24.7829,-5.9527,1.6244,2.0894,82.00733071506613,28.329763129205986,84.2442518177599,-24.58051045735677,-89.01963975694444,-38.06990729437934,-2.6664212670656715,-1.686918050935953,-1.7549299485612624,3.462515936957465,0.06785074869791667,-2.714114718967014,0.5149,0.14,1.7752,0.01481,-0.02435,-0.01125,0.0008820138755254447,0.0009999937610700727,0.0009201358770951629,0.0005079067195765674,0.0005001365789212286,0.0005738979671150446,0.01173606887459755,0.010186107829213142,0.011653736233711243,passive,0
1.261,rehab,small_slow,51.85185351682069,-666.6332617233304,288.02268657162557,-177.3897068292234,0.13325957990738874,-149.98566436969904,-32.8678,0.1753,26.4124,-5.0129,-0.2064,-4.2511,81.93984909813003,28.29038638879757,84.20096595688622,-24.49597676595052,-89.01764763726128,-38.135435316297745,-2.6664212670656715,-1.686918050935953,-1.881286318939511,3.4313795301649304,0.06785074869791667,-2.714114718967014,0.6513,0.2248,2.073,0.02443,-0.0313,-0.01321,0.0008820138755254447,0.0009999937610700727,0.0009201358770951629,0.0005079067195765674,0.0005001365789212286,0.0005738979671150446,0.01173606887459755,0.010186107829213142,0.011653736233711243,passive,0
1.2806,rehab,small_slow,51.34542995727211,-666.6300215367897,288.43021430201253,-177.38938454269984,0.13296445958628583,-149.98554854161782,-33.1651,0.1374,26.3815,-10.8467,-2.2061,-4.5293,81.89547548199644,28.264246270208076,84.17216763638034,-24.440155029296875,-89.01634216308594,-38.17928738064236,-2.884087893042234,-1.5780813387124846,-1.750925649510752,3.4231143527560763,0.06785074869791667,-2.714114718967014,0.5433,0.1914,2.3183,0.01778,-0.03088,-0.01272,0.0008820138755254447,0.0009999937610700727,0.0009201358770951629,0.0005079067195765674,0.0005001365789212286,0.0005738979671150446,0.01173606887459755,0.010186107829213142,0.011653736233711243,passive,0
1.3006,rehab,small_slow,50.59638373822475,-666.6251121871746,289.0256701090145,-177.3895568294642,0.13311482743239073,-149.9846081172592,-31.6522,0.0538,24.8271,-9.6082,-3.5425,-8.1891,81.82982945206142,28.226208828463413,84.12952083172185,-24.35726589626736,-89.01432461208768,-38.244925604926216,-2.6664212670656715,-1.686918050935953,-1.8038041520826886,3.4060160319010415,0.06785074869791667,-2.714114718967014,0.4933,0.0851,1.9335,0.00745,-0.04214,-0.01368,0.0008820138755254447,0.0009999937610700727,0.0009201358770951629,0.0005079067195765674,0.0005001365789212286,0.0005738979671150446,0.01173606887459755,0.010186107829213142,0.011653736233711243,passive,0
1.3211,rehab,small_slow,50.099914157525546,-666.6246092777236,289.4161491344046,-177.38966349110558,0.13323644151561473,-149.98399713006899,-31.8723,-0.0439,24.5792,9.5811,-3.704,-23.7001,81.78635323401726,28.20167314888227,84.1008992714457,-24.30263943142361,-89.01296827528212,-38.28838772243923,-2.7752511808187657,-1.4692514249593904,-1.7542365045830755,3.3934783935546875,0.13570149739583334,-2.6462639702690973,0.5498,0.2131,2.6249,0.02714,-0.03503,-0.01301,0.0008820138755254447,0.0009999937610700727,0.0009201358770951629,0.0005079067195765674,0.0005001365789212286,0.0005738979671150446,0.01173606887459755,0.010186107829213142,0.011653736233711243,passive,0
1.3406,rehab,small_slow,49.2173201519255,-666.6283428614735,290.0963916425491,-177.38942721062125,0.13304014274385836,-149.98427470368497,-31.4714,-0.1251,23.9837,28.9246,-2.7292,-36.6086,81.70914980444577,28.159502237149983,84.0503458457418,-24.207933213975693,-89.01066250271268,-38.3642323811849,-2.7208362239422184,-1.4148296696124691,-1.8058844840172494,3.3823903401692705,0.06785074869791667,-2.714114718967014,0.597,0.2102,2.0097,0.03203,-0.03285,-0.00724,0.0008820138755254447,0.0009999937610700727,0.0009201358770951629,0.0005079067195765674,0.0005001365789212286,0.0005738979671150446,0.01173606887459755,0.010186107829213142,0.011653736233711243,passive,0
1.3613,rehab,small_slow,48.70426623856951,-666.6319802081604,290.47266297660786,-177.38995352261617,0.13339982971435252,-149.98537562941692,-31.1193,-0.1834,23.4838,27.3706,-0.878,-31.2234,81.66430709385635,28.13636024399559,84.0217922701694,-24.154298570421005,-89.00939093695746,-38.40736389160156,-2.884087893042234,-1.4692514249593904,-1.8022608993077043,3.384730021158854,0.06785074869791667,-2.6462639702690973,0.5287,0.2058,2.2974,0.03843,-0.04224,-0.01188,0.0008820138755254447,0.0009999937610700727,0.0009201358770951629,0.0005079067195765674,0.0005001365789212286,0.0005738979671150446,0.01173606887459755,0.010186107829213142,0.011653736233711243,passive,0
1.3808,rehab,small_slow,48.19534651579683,-666.6380899548753,290.85387179994274,-177.3895963175258,0.13307976799239565,-149.98624995556276,-31.4181,-0.1894,23.5575,10.6647,1.0535,-14.22,81.61985869454865,28.11328623554494,83.99268801849668,-24.101299709743923,-89.00811089409721,-38.45033433702257,-2.884087893042234,-1.4692514249593904,-1.7572278315478032,3.339809841579861,0.06785074869791667,-2.6462639702690973,0.3879,-0.0145,1.2154,0.0133,-0.03891,-0.00402,0.0008820138755254447,0.0009999937610700727,0.0009201358770951629,0.0005079067195765674,0.0005001365789212286,0.0005738979671150446,0.01173606887459755,0.010186107829213142,0.011653736233711243,passive,0
1.4006,rehab,small_slow,47.44052643957225,-666.6410842327742,291.4119714368202,-177.3899070993004,0.13338789178304258,-149.98762195384055,-30.455,-0.1248,22.7567,2.7385,2.5798,-4.1667,81.55384554721341,28.078947161683942,83.95057149452738,-24.022479587131077,-89.00611877441406,-38.51407368977865,-2.6664212670656715,-1.360414712735922,-1.806469152469446,3.2236819797092013,0.13570149739583334,-2.714114718967014,0.4305,0.2579,1.4203,0.03013,-0.02526,-0.00165,0.0008820138755254447,0.0009999937610700727,0.0009201358770951629,0.0005079067195765674,0.0005001365789212286,0.0005738979671150446,0.01173606887459755,0.010186107829213142,0.011653736233711243,passive,0
1.4208,rehab,small_slow,46.954940661398155,-666.6435131009449,291.7793854564857,-177.38996298713593,0.1334496576051901,-149.98713358808666,-29.4899,-0.0262,22.0051,0.3261,3.2296,0.3544,81.51138230125503,28.056586992622602,83.92252780423306,-23.97070990668403,-89.00481330023871,-38.556433783637154,-2.61199951171875,-1.4148296696124691,-1.7167361419979887,3.220079210069444,0.06785074869791667,-2.714114718967014,0.4567,0.2841,1.7446,0.03264,-0.03059,-0.00814,0.0008820138755254447,0.0009999937610700727,0.0009201358770951629,0.0005079067195765674,0.0005001365789212286,0.0005738979671150446,0.01173606887459755,0.010186107829213142,0.011653736233711243,passive,0
1.4409,rehab,small_slow,46.22795672714223,-666.6429175112834,292.3317899499492,-177.38987629016972,0.13335932215202945,-149.98702404650038,-29.9405,0.0509,22.4132,-1.9934,2.9652,3.6928,81.44776901396195,28.022581043809947,83.88109792577158,-23.89349195692274,-89.00291442871094,-38.619274563259545,-2.7208362239422184,-1.360414712735922,-1.707802951926052,3.1873660617404513,0.13570149739583334,-2.510553995768229,0.3479,0.0871,1.5879,0.01215,-0.03161,-0.00655,0.0008820138755254447,0.0009999937610700727,0.0009201358770951629,0.0005079067195765674,0.0005001365789212286,0.0005738979671150446,0.01173606887459755,0.010186107829213142,0.011653736233711243,passive,0
1.4608,rehab,small_slow,45.745858917976186,-666.6404908612906,292.69176693968126,-177.39022696009584,0.13358673600247273,-149.98677114609887,-31.2708,0.1127,23.4887,1.8987,1.8721,1.2279,81.40556410987779,28.000248068630103,83.85419637850015,-23.842569986979168,-89.00167677137587,-38.66115146213107,-2.557584554842203,-1.360414712735922,-1.7173751982131806,3.256734212239583,0.06785074869791667,-2.6462639702690973,0.2669,0.2178,2.1489,0.01853,-0.02325,-0.00206,0.0008820138755254447,0.0009999937610700727,0.0009201358770951629,0.0005079067195765674,0.0005001365789212286,0.0005738979671150446,0.01173606887459755,0.010186107829213142,0.011653736233711243,passive,0
1.4807,rehab,small_slow,45.01715647775556,-666.6349969355738,293.2398722077129,-177.38998360749443,0.13340705609684886,-149.98753710637104,-31.2119,0.1337,23.4727,4.9534,0.3321,-2.17,81.34174686847346,27.966099351939587,83.81383385988745,-23.766471015082466,-88.99976942274306,-38.72333102756076,-2.7208362239422184,-1.360414712735922,-1.7080748907410273,3.074959648980035,0.06785074869791667,-2.6462639702690973,0.2799,0.1876,2.6542,0.00423,-0.03401,-0.008,0.0008820138755254447,0.0009999937610700727,0.0009201358770951629,0.0005079067195765674,0.0005001365789212286,0.0005738979671150446,0.01173606887459755,0.010186107829213142,0.011653736233711243,passive,0
1.5008,rehab,small_slow,44.53233315310146,-666.632516747405,293.59349800161556,-177.3902115515119,0.13357195140587647,-149.98811932677773,-30.6761,0.1053,23.096,8.6712,-1.0684,-7.7138,81.29931081639658,27.944235471215578,83.78734701930887,-23.716583251953125,-88.99852328830295,-38.76461452907986,-2.61199951171875,-1.305999755859375,-1.7292249320757271,3.153584798177083,0.06785074869791667,-2.510553995768229,0.3238,0.2503,2.1049,0.02027,-0.04642,-0.00846,0.0008820138755254447,0.0009999937610700727,0.0009201358770951629,0.0005079067195765674,0.0005001365789212286,0.0005738979671150446,0.01173606887459755,0.010186107829213142,0.011653736233711243,passive,0
1.5206,rehab,small_slow,43.82015447574152,-666.631344718395,294.13131691589683,-177.3893560688338,0.13290388647123919,-149.98826450210134,-30.0485,0.0574,22.5866,21.8341,-1.8288,-21.6209,81.23700283541538,27.911500836362933,83.74680774046642,-23.642527262369793,-88.99664137098524,-38.825929429796005,-2.557584554842203,-1.305999755859375,-1.654584525835396,3.0075497097439237,0.06785074869791667,-2.4427032470703125,0.2846,0.2808,2.2299,0.02431,-0.03982,-0.00475,0.0008820138755254447,0.0009999937610700727,0.0009201358770951629,0.0005079067195765674,0.0005001365789212286,0.0005738979671150446,0.01173606887459755,0.010186107829213142,0.011653736233711243,passive,0
1.5407,rehab,small_slow,43.23821940739792,-666.6320801991347,294.57234155018483,-177.38866884169371,0.1323363871807843,-149.98769351503947,-29.2974,0.0023,21.9081,35.3528,-1.985,-36.211,81.18611628466313,27.88502759272509,83.71297855188351,-23.581568400065105,-88.99510701497395,-38.87669033474392,-2.557584554842203,-1.305999755859375,-1.6887332425259127,3.0631256103515625,0.13570149739583334,-2.510553995768229,0.3846,0.1723,1.8402,0.03708,-0.04018,-0.00547,0.0008820138755254447,0.0009999937610700727,0.0009201358770951629,0.0005079067195765674,0.0005001365789212286,0.0005738979671150446,0.01173606887459755,0.010186107829213142,0.011653736233711243,passive,0
1.5606,rehab,small_slow,42.54953001455892,-666.6305263231226,295.08934155806105,-177.38833129068965,0.13207061135960785,-149.9866716130735,-28.5899,-0.0364,21.1577,32.8875,-1.6131,-37.6761,81.125861441735,27.853856606058553,83.67332307418974,-23.509326510959202,-88.99325900607639,-38.93714057074653,-2.503169597965656,-1.251584798982828,-1.6622939912399444,3.009940253363715,-0.0,-2.510553995768229,0.4364,0.2563,2.1982,0.03455,-0.04541,-0.00549,0.0008820138755254447,0.0009999937610700727,0.0009201358770951629,0.0005079067195765674,0.0005001365789212286,0.0005738979671150446,0.01173606887459755,0.010186107829213142,0.011653736233711243,passive,0
1.5809,rehab,small_slow,42.0956214367576,-666.6352197183559,295.42593431968606,-177.38826442687983,0.13203368963346807,-149.9857828752237,-28.3738,-0.0545,20.6717,20.0265,-0.7656,-29.7689,81.08622635945235,27.834365391495204,83.64614958810334,-23.461515638563366,-88.99202982584636,-38.97711859809028,-2.448754641089109,-1.1971630436359066,-1.7181638207766088,3.035786946614583,0.06785074869791667,-2.5784132215711804,0.3204,0.1112,1.9888,0.00962,-0.04075,-0.0024,0.0008820138755254447,0.0009999937610700727,0.0009201358770951629,0.0005079067195765674,0.0005001365789212286,0.0005738979671150446,0.01173606887459755,0.010186107829213142,0.011653736233711243,passive,0
1.6005,rehab,small_slow,41.64170355193605,-666.6351232661715,295.75599393452364,-177.38864866936026,0.13235908757519332,-149.9852562999038,-28.0424,-0.0572,20.06,8.0549,0.1055,-19.932,81.04653009093634,27.81471781211324,83.62015223739171,-23.414154052734375,-88.99080912272136,-39.01679992675781,-2.448754641089109,-1.251584798982828,-1.6382545999961324,2.9374101426866317,0.06785074869791667,-2.510553995768229,0.2096,0.0862,1.9445,0.0102,-0.03333,-0.00303,0.0008820138755254447,0.0009999937610700727,0.0009201358770951629,0.0005079067195765674,0.0005001365789212286,0.0005738979671150446,0.01173606887459755,0.010186107829213142,0.011653736233711243,passive,0
1.6208,rehab,small_slow,40.951168440130346,-666.6363200344244,296.242252594083,-177.38945376306938,0.13304065814219587,-149.98571531302917,-27.3397,-0.0422,19.2132,-3.6414,0.7752,-7.267,80.98617327095258,27.785939887018486,83.58147573943185,-23.343836466471355,-88.98898654513889,-39.07589382595486,-2.448754641089109,-1.1427480867593596,-1.58609673528388,2.9461246066623263,0.13570149739583334,-2.4427032470703125,0.3377,0.1873,2.0777,0.02667,-0.03225,3e-05,0.0008820138755254447,0.0009999937610700727,0.0009201358770951629,0.0005079067195765674,0.0005001365789212286,0.0005738979671150446,0.01173606887459755,0.010186107829213142,0.011653736233711243,passive,0
1.6409,rehab,small_slow,40.486477690855615,-666.6350116794786,296.55684553483326,-177.39054436345387,0.13390139124522213,-149.98630886817253,-27.6403,-0.023,19.2488,-6.8917,1.167,0.9752,80.9455388135249,27.76708772867033,83.55656614398012,-23.297475179036457,-88.98779975043402,-39.1154056125217,-2.503169597965656,-1.251584798982828,-1.5772791192083075,2.91945563422309,-0.0,-2.4427032470703125,0.2813,0.2327,2.4105,0.02369,-0.03997,-0.00278,0.0008820138755254447,0.0009999937610700727,0.0009201358770951629,0.0005079067195765674,0.0005001365789212286,0.0005738979671150446,0.01173606887459755,0.010186107829213142,0.011653736233711243,passive,0
1.6607,rehab,small_slow,39.79139364676212,-666.6362088990375,297.0436869793717,-177.39018769325614,0.13357242396193356,-149.9878540790002,-28.3601,0.0096,19.7732,-1.7244,1.2854,3.1724,80.88481487614094,27.738330198986695,83.51833834506498,-23.229183620876736,-88.98605346679688,-39.173804389105904,-2.503169597965656,-1.1427480867593596,-1.5198592384262841,2.7989620632595487,0.06785074869791667,-2.374852498372396,0.248,0.1363,2.2927,0.01175,-0.04837,-0.00784,0.0008820138755254447,0.0009999937610700727,0.0009201358770951629,0.0005079067195765674,0.0005001365789212286,0.0005738979671150446,0.01173606887459755,0.010186107829213142,0.011653736233711243,passive,0
1.6805,rehab,small_slow,39.33789019287217,-666.6365387849381,297.3546961642188,-177.39071444226437,0.1340144952256081,-149.98882031937092,-28.665,0.0415,20.1453,0.3912,1.1408,5.5527,80.84518659232866,27.720035515209236,83.49343554808361,-23.184127807617188,-88.98488362630208,-39.211951361762154,-2.557584554842203,-1.1427480867593596,-1.5513497532004177,2.8908877902560763,0.06785074869791667,-2.374852498372396,0.1954,0.2136,1.6543,0.01789,-0.04277,-0.0002,0.0008820138755254447,0.0009999937610700727,0.0009201358770951629,0.0005079067195765674,0.0005001365789212286,0.0005738979671150446,0.01173606887459755,0.010186107829213142,0.011653736233711243,passive,0
1.7009,rehab,small_slow,38.67421373632111,-666.6365325531011,297.82853597520705,-177.3904225284773,0.13377557405822738,-149.98935210820082,-28.6181,0.0541,20.3277,3.7,0.7861,4.4533,80.78718884156481,27.692256965259514,83.45588079773553,-23.11742994520399,-88.98316277398003,-39.26865471733941,-2.448754641089109,-1.1427480867593596,-1.5189618403368657,2.863371107313368,0.13570149739583334,-2.374852498372396,0.1195,0.0839,1.9416,0.00254,-0.03623,-0.00605,0.0008820138755254447,0.0009999937610700727,0.0009201358770951629,0.0005079067195765674,0.0005001365789212286,0.0005738979671150446,0.01173606887459755,0.010186107829213142,0.011653736233711243,passive,0
1.7206,rehab,small_slow,38.241287314971274,-666.6327748042856,298.13853648217133,-177.39066212055806,0.13395599610776363,-149.9887398947122,-28.1595,0.0627,20.2439,13.7898,0.2922,-4.2329,80.74930096616839,27.673758327370823,83.43163065391012,-23.07321336534288,-88.98201836480034,-39.306649102105034,-2.3399179288656407,-1.1427480867593596,-1.5477941531946162,2.671415540907118,0.06785074869791667,-2.307001749674479,0.132,0.0646,2.542,0.00185,-0.04271,-0.00679,0.0008820138755254447,0.0009999937610700727,0.0009201358770951629,0.0005079067195765674,0.0005001365789212286,0.0005738979671150446,0.01173606887459755,0.010186107829213142,0.011653736233711243,passive,0
1.7406,rehab,small_slow,37.60288298637618,-666.6334288296209,298.59886029193154,-177.3905723435069,0.13391612985693688,-149.98714373427418,-26.8539,0.0699,19.3921,26.2359,-0.279,-16.5534,80.69351271827622,27.64717630820699,83.39440902861038,-23.007761637369793,-88.98027208116319,-39.36328464084201,-2.2310880151125465,-1.1427480867593596,-1.5440413975479579,2.6964569091796875,-0.0,-2.4427032470703125,0.2256,0.108,2.2352,0.01661,-0.03679,-0.00128,0.0008820138755254447,0.0009999937610700727,0.0009201358770951629,0.0005079067195765674,0.0005001365789212286,0.0005738979671150446,0.01173606887459755,0.010186107829213142,0.011653736233711243,passive,0
1.7613,rehab,small_slow,37.07108319294552,-666.6294128279292,298.98864553664794,-177.38980217878023,0.13327450627755463,-149.98673091283814,-26.8546,0.0601,19.308,37.3847,-0.758,-28.5906,80.64699078550433,27.624136292108215,83.36409464921101,-22.953982883029514,-88.97887335883246,-39.40960354275173,-2.3399179288656407,-1.0883331298828125,-1.5734243865060333,2.6749674479166665,0.06785074869791667,-2.307001749674479,0.1165,0.1444,2.0956,0.02453,-0.04223,-0.00202,0.0008820138755254447,0.0009999937610700727,0.0009201358770951629,0.0005079067195765674,0.0005001365789212286,0.0005738979671150446,0.01173606887459755,0.010186107829213142,0.011653736233711243,passive,0
1.7806,rehab,small_slow,36.43247341972849,-666.6295175136711,299.4438340809763,-177.38902794913153,0.13267029923653478,-149.98600224568023,-26.8572,0.039,19.148,37.2937,-0.9749,-32.2806,80.59119573914178,27.59787380105198,83.32759366177096,-22.89048088921441,-88.97715250651042,-39.46539984809028,-2.2855029719890934,-1.0883331298828125,-1.516058893487005,2.66770256890191,0.06785074869791667,-2.307001749674479,0.0588,0.1691,1.9864,0.01694,-0.02461,-0.00054,0.0008820138755254447,0.0009999937610700727,0.0009201358770951629,0.0005079067195765674,0.0005001365789212286,0.0005738979671150446,0.01173606887459755,0.010186107829213142,0.011653736233711243,passive,0
1.8006,rehab,small_slow,36.01134741785973,-666.6291825551684,299.74799359119646,-177.38823184217748,0.13196785841572947,-149.98566438740178,-25.6562,0.0098,18.1306,24.1726,-1.0787,-26.3303,80.55440921594601,27.58034054595645,83.30333671947517,-22.848620944552952,-88.976075914171,-39.50204637315538,-2.3399179288656407,-1.0883331298828125,-1.5210965600344215,2.6095411512586804,0.06785074869791667,-2.307001749674479,0.0662,0.1373,1.7372,0.00442,-0.04127,-7e-05,0.0008820138755254447,0.0009999937610700727,0.0009201358770951629,0.0005079067195765674,0.0005001365789212286,0.0005738979671150446,0.01173606887459755,0.010186107829213142,0.011653736233711243,passive,0
1.8209,rehab,small_slow,35.587524473949024,-666.6297518310697,300.04417749650884,-177.38771943226698,0.13156135582127176,-149.98579232551012,-25.1399,-0.0193,17.597,7.424,-1.0847,-16.6648,80.51739834322788,27.56339195931312,83.27937890987585,-22.80724419487847,-88.97495693630643,-39.53845553927951,-2.2855029719890934,-1.0339181730062654,-1.4158766340501237,2.547124226888021,0.06785074869791667,-2.171291775173611,0.1525,0.0994,2.1677,0.00706,-0.04093,-0.00701,0.0008820138755254447,0.0009999937610700727,0.0009201358770951629,0.0005079067195765674,0.0005001365789212286,0.0005738979671150446,0.01173606887459755,0.010186107829213142,0.011653736233711243,passive,0
1.8408,rehab,small_slow,34.96222307956955,-666.6293784188798,300.4662630781445,-177.38838471314222,0.13213492068938787,-149.9862172763477,-24.1539,-0.0362,16.7231,-0.6227,-0.8394,-11.507,80.4627794322401,27.539270986424814,83.24452995073678,-22.745742797851562,-88.97331237792969,-39.59194607204861,-2.176666259765625,-0.979496417659344,-1.5151139061049659,2.5855170355902777,0.06785074869791667,-2.2391425238715277,0.019,0.0683,2.2633,-0.0075,-0.02524,-0.00348,0.0008820138755254447,0.0009999937610700727,0.0009201358770951629,0.0005079067195765674,0.0005001365789212286,0.0005738979671150446,0.01173606887459755,0.010186107829213142,0.011653736233711243,passive,0
1.8614,rehab,small_slow,34.55428703585539,-666.6327218709977,300.7479595948389,-177.38832061788258,0.13206824016975405,-149.98577132130063,-24.4482,-0.0406,16.6953,-5.901,-0.4962,-8.1178,80.42720303677096,27.52368889232673,83.22070131207457,-22.705323961046005,-88.97224426269531,-39.62750752766927,-2.176666259765625,-1.0339181730062654,-1.4085750768680383,2.489496866861979,0.06785074869791667,-2.2391425238715277,-0.0457,0.0387,1.5212,0.00488,-0.02656,0.00253,0.0008820138755254447,0.0009999937610700727,0.0009201358770951629,0.0005079067195765674,0.0005001365789212286,0.0005738979671150446,0.01173606887459755,0.010186107829213142,0.011653736233711243,passive,0
1.8809,rehab,small_slow,33.9560098025202,-666.6300616913446,301.1614633842354,-177.38884429328016,0.1325191198292104,-149.98428620381,-25.7334,-0.0511,17.2951,-14.017,-0.2194,-2.2232,80.37490920265122,27.500043812364634,83.18665457243966,-22.64529758029514,-88.97061665852864,-39.68059963650173,-2.122251302889078,-0.979496417659344,-1.4371490478515625,2.475797865125868,0.13570149739583334,-2.103441026475694,0.041,-0.0363,1.9868,-0.0039,-0.03942,-0.00378,0.0008820138755254447,0.0009999937610700727,0.0009201358770951629,0.0005079067195765674,0.0005001365789212286,0.0005738979671150446,0.01173606887459755,0.010186107829213142,0.011653736233711243,passive,0
1.9009,rehab,small_slow,33.56267369744964,-666.6344616227984,301.4338970266401,-177.388766625216,0.13245893738794323,-149.98325677106135,-26.506,-0.0584,17.5677,-13.2828,0.0948,-0.6264,80.34062451655322,27.48526393777073,83.1631590588258,-22.60604010687934,-88.96955702039931,-39.715465969509545,-2.176666259765625,-0.9250814607827971,-1.4115324114808943,2.4785698784722223,0.06785074869791667,-2.0355902777777777,0.2713,0.0829,1.8356,0.0341,-0.04921,0.0045,0.0008820138755254447,0.0009999937610700727,0.0009201358770951629,0.0005079067195765674,0.0005001365789212286,0.0005738979671150446,0.01173606887459755,0.010186107829213142,0.011653736233711243,passive,0
1.9205,rehab,small_slow,32.961640615796746,-666.6334391863793,301.8261878164772,-177.38993634990507,0.1333946395261471,-149.9831197026809,-26.3281,-0.0445,17.2858,-3.4326,0.2783,-3.683,80.288140325263,27.46310772282062,83.13011849280632,-22.54773457845052,-88.96800571017795,-39.76742214626736,-2.176666259765625,-0.9250814607827971,-1.3739232733698175,2.4008009168836804,0.06785074869791667,-2.171291775173611,0.0681,-0.0737,2.0584,-0.00039,-0.04602,-0.00221,0.0008820138755254447,0.0009999937610700727,0.0009201358770951629,0.0005079067195765674,0.0005001365789212286,0.0005738979671150446,0.01173606887459755,0.010186107829213142,0.011653736233711243,passive,0
1.941,rehab,small_slow,32.558544711049464,-666.6345298384823,302.08835745702714,-177.39025496197735,0.13366235722072092,-149.98354412707866,-25.6394,-0.0369,16.7025,14.4357,0.2905,-11.2551,80.25297183801632,27.448511406926826,83.10792148703396,-22.50946044921875,-88.96696302625868,-39.80172899034288,-2.176666259765625,-0.9250814607827971,-1.3296380373510983,2.3548465304904513,0.06785074869791667,-2.171291775173611,-0.0887,0.1141,1.8428,0.00736,-0.0355,0.00303,0.0008820138755254447,0.0009999937610700727,0.0009201358770951629,0.0005079067195765674,0.0005001365789212286,0.0005738979671150446,0.01173606887459755,0.010186107829213142,0.011653736233711243,passive,0
1.9609,rehab,small_slow,31.849234212523893,-666.6351477021361,302.5355850712839,-177.39130808948784,0.13450949834502032,-149.98521757746846,-25.4984,-0.0363,16.5639,34.2956,0.3979,-20.946,80.19108536219832,27.4235202298306,83.06997242540416,-22.443322075737846,-88.96518283420139,-39.86118740505642,-2.176666259765625,-0.87066650390625,-1.3927890286587252,2.374454074435764,0.06785074869791667,-2.103441026475694,-0.0648,0.154,1.8818,0.01036,-0.03924,-8e-05,0.0008820138755254447,0.0009999937610700727,0.0009201358770951629,0.0005079067195765674,0.0005001365789212286,0.0005738979671150446,0.01173606887459755,0.010186107829213142,0.011653736233711243,passive,0
1.9807,rehab,small_slow,31.44826232990394,-666.639035446467,302.79589911902485,-177.39097994189618,0.13420530869772573,-149.98615001722663,-24.6339,-0.0244,16.1078,43.5817,0.5228,-25.07,80.15616161988513,27.409420202274134,83.04763265175394,-22.406285603841145,-88.96419101291232,-39.89475674099392,-2.122251302889078,-0.87066650390625,-1.3739980565439356,2.275712754991319,0.06785074869791667,-2.171291775173611,0.0276,0.136,1.9911,0.00035,-0.02888,0.00491,0.0008820138755254447,0.0009999937610700727,0.0009201358770951629,0.0005079067195765674,0.0005001365789212286,0.0005738979671150446,0.01173606887459755,0.010186107829213142,0.011653736233711243,passive,0
2.0008,rehab,small_slow,30.86816220111712,-666.634168819868,303.18005933010477,-177.39101448877452,0.13427395074696694,-149.98686196300733,-23.7019,-0.0054,15.6964,39.6051,0.5588,-22.4158,80.10546542630337,27.38748833684638,83.01619652474281,-22.35131157769097,-88.96266513400607,-39.94411044650607,-1.9045846769125154,-0.87066650390625,-1.3522701452274133,2.2865125868055554,-0.0,-2.103441026475694,0.1089,0.2622,2.1196,0.00553,-0.03796,0.00321,0.0008820138755254447,0.0009999937610700727,0.0009201358770951629,0.0005079067195765674,0.0005001365789212286,0.0005738979671150446,0.01173606887459755,0.010186107829213142,0.011653736233711243,passive,0
2.0207,rehab,small_slow,30.492106279391994,-666.6372047204329,303.4371658121041,-177.39030523646733,0.13374554753423712,-149.98663008769856,-22.8319,-0.012,15.2497,25.22,0.649,-14.331,80.07269000062848,27.373639852693767,82.99418307767056,-22.315317789713543,-88.96163092719183,-39.976704915364586,-2.067836346012531,-0.8162515470297029,-1.3823805705155476,2.232530381944444,0.06785074869791667,-2.0355902777777777,0.0603,0.0031,1.3369,0.00904,-0.03936,0.00245,0.0008820138755254447,0.0009999937610700727,0.0009201358770951629,0.0005079067195765674,0.0005001365789212286,0.0005738979671150446,0.01173606887459755,0.010186107829213142,0.011653736233711243,passive,0
2.0409,rehab,small_slow,30.12729587614631,-666.6366295206886,303.6835179461592,-177.39049950517898,0.1338551585272161,-149.98588068353934,-22.1287,0.002,14.7866,12.1541,0.7058,-8.0396,80.04085276386526,27.360076904296875,82.97316900574334,-22.27951897515191,-88.96069844563802,-40.008884006076386,-1.9045846769125154,-0.87066650390625,-1.238620115978883,2.1960279676649304,-0.0,-1.9677310519748263,-0.0637,0.1185,1.8301,0.00161,-0.03692,-0.00223,0.0008820138755254447,0.0009999937610700727,0.0009201358770951629,0.0005079067195765674,0.0005001365789212286,0.0005738979671150446,0.01173606887459755,0.010186107829213142,0.011653736233711243,passive,0
2.0607,rehab,small_slow,29.57926606103264,-666.6365095301536,304.05577287560544,-177.38991750636143,0.13338595133752593,-149.98484693895242,-21.8984,0.0324,14.5494,5.689,0.698,-6.1722,79.99303232325185,27.339640702351485,82.94171928179146,-22.226876152886284,-88.95922342936198,-40.05713568793403,-1.9589996337890625,-0.8162515470297029,-1.2980795378732208,2.206022474500868,0.06785074869791667,-1.8998803032769096,-0.1462,0.0135,1.594,-0.0006,-0.03067,0.00437,0.0008820138755254447,0.0009999937610700727,0.0009201358770951629,0.0005079067195765674,0.0005001365789212286,0.0005738979671150446,0.01173606887459755,0.010186107829213142,0.011653736233711243,passive,0
2.0808,rehab,small_slow,29.21348735120536,-666.63562862475,304.29726367141615,-177.38972982552136,0.13332442928381344,-149.98492341430304,-22.1108,0.0399,14.5523,0.6683,0.6844,-3.9548,79.96109990790339,27.326308901947325,82.9213306691387,-22.192357381184895,-88.95819769965277,-40.08859422471788,-2.067836346012531,-0.87066650390625,-1.2597293664913367,2.1259646945529513,0.06785074869791667,-1.9677310519748263,-0.0186,0.0778,1.6249,0.01051,-0.0423,0.00139,0.0008820138755254447,0.0009999937610700727,0.0009201358770951629,0.0005079067195765674,0.0005001365789212286,0.0005738979671150446,0.01173606887459755,0.010186107829213142,0.011653736233711243,passive,0
2.1009,rehab,small_slow,28.66040071831343,-666.6349439018862,304.6537073045047,-177.389518011412,0.1331711409952177,-149.98587913185096,-22.9155,0.0576,14.9616,-0.0222,0.668,-2.9228,79.9128511636564,27.30672250879873,82.89109107291344,-22.141333685980904,-88.9567650689019,-40.1353030734592,-1.9589996337890625,-0.8162515470297029,-1.3034979187616027,2.1088663736979165,0.06785074869791667,-1.9677310519748263,-0.0111,0.1007,1.6938,0.01647,-0.03629,0.00336,0.0008820138755254447,0.0009999937610700727,0.0009201358770951629,0.0005079067195765674,0.0005001365789212286,0.0005738979671150446,0.01173606887459755,0.010186107829213142,0.011653736233711243,passive,0
2.1212,rehab,small_slow,28.29089683489918,-666.6364029374887,304.88586650814165,-177.38946848241565,0.13310175613930514,-149.98723825919558,-23.3855,0.0642,15.2269,3.5919,0.4624,-4.1364,79.8806604064337,27.29422692025062,82.87095400366452,-22.10783216688368,-88.95586649576823,-40.16575283474392,-2.0134145906656093,-0.7618297916827815,-1.2067964761564047,2.080858018663194,0.06785074869791667,-1.832029554578993,-0.1634,0.1032,1.9909,-0.00473,-0.03831,4e-05,0.0008820138755254447,0.0009999937610700727,0.0009201358770951629,0.0005079067195765674,0.0005001365789212286,0.0005738979671150446,0.01173606887459755,0.010186107829213142,0.011653736233711243,passive,0
2.1406,rehab,small_slow,27.757985345661012,-666.6297199475868,305.23035265169233,-177.38960631757502,0.13321139110980604,-149.9872497217368,-22.1407,0.0625,14.4042,11.6476,0.0305,-8.8065,79.83408408589882,27.274735705687267,82.84246841279587,-22.058241102430554,-88.95447625054253,-40.21174960666232,-2.0134145906656093,-0.8162515470297029,-1.2407004479134436,2.0520867241753473,0.06785074869791667,-1.9677310519748263,-0.1545,0.075,1.6988,0.0094,-0.04105,0.00439,0.0008820138755254447,0.0009999937610700727,0.0009201358770951629,0.0005079067195765674,0.0005001365789212286,0.0005738979671150446,0.01173606887459755,0.010186107829213142,0.011653736233711243,passive,0
2.1616,rehab,small_slow,27.4117467641289,-666.6302014879742,305.46627980178056,-177.38859176110958,0.13235537650219054,-149.98681040580834,-21.4331,0.0789,14.0099,25.0646,-0.2616,-18.0246,79.80389887743657,27.262008969146425,82.82250810377668,-22.02593485514323,-88.95356072319878,-40.24200439453125,-1.795747964689047,-0.7618297916827815,-1.235214082321318,1.9790988498263888,-0.0,-1.9677310519748263,-0.2471,0.1958,1.6437,0.00673,-0.03387,0.00715,0.0008820138755254447,0.0009999937610700727,0.0009201358770951629,0.0005079067195765674,0.0005001365789212286,0.0005738979671150446,0.01173606887459755,0.010186107829213142,0.011653736233711243,passive,0
2.181,rehab,small_slow,26.82198133428999,-666.6287179630084,305.84946504715896,-177.38869053474966,0.13238943181951163,-149.98596079948913,-21.3206,0.0675,13.9728,32.4998,-0.4465,-24.1319,79.75245485211363,27.24128043297494,82.7893587622312,-21.97034200032552,-88.95203484429253,-40.293663872612846,-1.8501697200359684,-0.8162515470297029,-1.142720892877862,2.013253106011285,0.06785074869791667,-1.7641703287760415,-0.2772,0.1222,1.456,0.00284,-0.05113,0.00076,0.0008820138755254447,0.0009999937610700727,0.0009201358770951629,0.0005079067195765674,0.0005001365789212286,0.0005738979671150446,0.01173606887459755,0.010186107829213142,0.011653736233711243,passive,0
2.201,rehab,small_slow,26.49612285627391,-666.6292644290346,306.064964356101,-177.3885684676856,0.13228981231113787,-149.98545882049686,-20.7579,0.0533,13.4859,27.1617,-0.7906,-22.5413,79.72405084288947,27.229852204275602,82.7704386191793,-21.939256456163193,-88.951170179579,-40.32221476236979,-1.795747964689047,-0.7074148348062346,-1.1789499415029394,1.9700537787543402,0.06785074869791667,-1.832029554578993,-0.1843,0.156,1.8997,0.00461,-0.03864,0.0062,0.0008820138755254447,0.0009999937610700727,0.0009201358770951629,0.0005079067195765674,0.0005001365789212286,0.0005738979671150446,0.01173606887459755,0.010186107829213142,0.011653736233711243,passive,0
2.2205,rehab,small_slow,26.17216894562871,-666.6289601984813,306.2766735811159,-177.38865373648,0.13240411003150654,-149.98494376865665,-20.3524,0.0204,13.0445,13.6285,-1.1368,-15.6733,79.69579640001353,27.21856674345413,82.751838004235,-21.908340454101562,-88.95028008355034,-40.35063001844618,-1.7413330078125,-0.7618297916827815,-1.156345027508122,1.9208187527126737,0.13570149739583334,-1.6284688313802083,-0.2162,0.0368,1.7448,-0.00562,-0.03587,0.0005,0.0008820138755254447,0.0009999937610700727,0.0009201358770951629,0.0005079067195765674,0.0005001365789212286,0.0005738979671150446,0.01173606887459755,0.010186107829213142,0.011653736233711243,passive,0
2.2406,rehab,small_slow,25.685232288330553,-666.6244884750187,306.5861063188228,-177.38905472058244,0.13270813309870322,-149.9850940911107,-19.5371,-0.0019,12.3163,8.1125,-1.3761,-13.3199,79.65328556476253,27.201584164458925,82.72531717130454,-21.863021850585938,-88.94904242621527,-40.39247300889757,-1.795747964689047,-0.7074148348062346,-1.1191369991491336,1.887266370985243,0.06785074869791667,-1.7641703287760415,-0.245,0.0918,1.2762,0.00864,-0.0273,0.00811,0.0008820138755254447,0.0009999937610700727,0.0009201358770951629,0.0005079067195765674,0.0005001365789212286,0.0005738979671150446,0.01173606887459755,0.010186107829213142,0.011653736233711243,passive,0
2.2612,rehab,small_slow,25.362936541847624,-666.6270175841531,306.791681706404,-177.3888405411039,0.1325182766922996,-149.9848063949723,-19.471,-0.0036,12.1209,10.0831,-1.3596,-14.2162,79.62523507599784,27.190985349145265,82.70683892882697,-21.83335198296441,-88.94820319281683,-40.420472886827255,-1.6325030940594059,-0.6529998779296875,-1.145379094794245,1.9040001763237846,0.06785074869791667,-1.832029554578993,-0.1219,0.1815,1.6891,0.01902,-0.03736,0.00716,0.0008820138755254447,0.0009999937610700727,0.0009201358770951629,0.0005079067195765674,0.0005001365789212286,0.0005738979671150446,0.01173606887459755,0.010186107829213142,0.011653736233711243,passive,0
2.2809,rehab,small_slow,24.869403602096444,-666.6288966086512,307.08447720752605,-177.38926426678046,0.1329102427597372,-149.98652431757688,-19.957,-0.0467,12.3259,5.7608,-1.1318,-8.9886,79.58226194476137,27.175681992332535,82.68049485612623,-21.789847479926216,-88.9469485812717,-40.4612308078342,-1.7413330078125,-0.6529998779296875,-1.0605545799330909,1.7814805772569444,-0.0,-1.696319580078125,-0.092,0.1264,2.6253,-0.00307,-0.04607,-0.00133,0.0008820138755254447,0.0009999937610700727,0.0009201358770951629,0.0005079067195765674,0.0005001365789212286,0.0005738979671150446,0.01173606887459755,0.010186107829213142,0.011653736233711243,passive,0
2.3005,rehab,small_slow,24.55330158001288,-666.6274703559791,307.27863371181337,-177.38955013595753,0.13316839795825086,-149.98690830632134,-20.1994,-0.0845,12.3755,2.9637,-0.7347,-4.0839,79.55469414739325,27.16528033265973,82.66343069548654,-21.76115247938368,-88.94612630208333,-40.4880862765842,-1.7413330078125,-0.6529998779296875,-1.081473473275062,1.7743089463975694,-0.0,-1.6284688313802083,-0.1721,0.0718,1.8559,0.00029,-0.04394,0.00653,0.0008820138755254447,0.0009999937610700727,0.0009201358770951629,0.0005079067195765674,0.0005001365789212286,0.0005738979671150446,0.01173606887459755,0.010186107829213142,0.011653736233711243,passive,0
2.3205,rehab,small_slow,24.082186094434697,-666.6314464113068,307.5749121555926,-177.38877503076705,0.13254120948776055,-149.98799943023337,-19.5759,-0.0982,11.9002,6.4173,-0.3778,-3.9875,79.51371296797649,27.150112945254484,82.63686227326346,-21.719173855251736,-88.94491407606337,-40.527496337890625,-1.6325030940594059,-0.5985781225827661,-1.0744370564375774,1.7266421847873263,-0.0,-1.696319580078125,-0.2146,0.1774,1.9649,0.00381,-0.03367,0.00451,0.0008820138755254447,0.0009999937610700727,0.0009201358770951629,0.0005079067195765674,0.0005001365789212286,0.0005738979671150446,0.01173606887459755,0.010186107829213142,0.011653736233711243,passive,0
2.3406,rehab,small_slow,23.77496218859842,-666.6311156237598,307.7615455975226,-177.38902744259457,0.13272697647753653,-149.98842567710025,-18.7768,-0.09,11.4447,14.9,-0.1794,-8.1508,79.48694739011255,27.140302752504255,82.6201856254351,-21.69155544704861,-88.94415113661024,-40.55352105034722,-1.686918050935953,-0.6529998779296875,-1.0386839007387068,1.7002529568142362,0.06785074869791667,-1.6284688313802083,-0.2145,0.0636,1.7435,0.00598,-0.028,0.00393,0.0008820138755254447,0.0009999937610700727,0.0009201358770951629,0.0005079067195765674,0.0005001365789212286,0.0005738979671150446,0.01173606887459755,0.010186107829213142,0.011653736233711243,passive,0
2.3618,rehab,small_slow,23.329889880751104,-666.6351938678384,308.035429098329,-177.38904910043507,0.13271874637058714,-149.98830355754868,-19.1315,-0.0769,11.8169,26.0854,0.3374,-14.802,79.4482436982712,27.126522253055384,82.59490211411278,-21.65127224392361,-88.94301520453558,-40.591888427734375,-1.5780813387124846,-0.544163165706219,-1.0744574518487005,1.6590118408203125,-0.06785074869791667,-1.6284688313802083,-0.1963,-0.0541,1.6744,-0.00444,-0.03504,0.00188,0.0008820138755254447,0.0009999937610700727,0.0009201358770951629,0.0005079067195765674,0.0005001365789212286,0.0005738979671150446,0.01173606887459755,0.010186107829213142,0.011653736233711243,passive,0
2.3809,rehab,small_slow,23.03667001792546,-666.6393111113506,308.2097256833076,-177.3893531084868,0.13298676876842902,-149.9885973613664,-18.856,-0.0654,11.7049,30.3915,0.8119,-17.3999,79.42912639957844,27.120111295492343,82.58233854086092,-21.631478203667534,-88.9424557156033,-40.61065673828125,-1.5236663818359375,-0.544163165706219,-1.025154944693688,1.6806793212890625,0.06785074869791667,-1.6284688313802083,-0.2056,-0.0102,1.3058,-0.0002,-0.02722,0.00758,0.0008820138755254447,0.0009999937610700727,0.0009201358770951629,0.0005079067195765674,0.0005001365789212286,0.0005738979671150446,0.01173606887459755,0.010186107829213142,0.011653736233711243,passive,0
2.4009,rehab,small_slow,22.548820710242115,-666.6357949207318,308.5068644527925,-177.39039125703155,0.13384535791416938,-149.98773187830375,-17.7318,-0.0494,10.9665,31.3172,0.8837,-18.2579,79.38021820370514,27.102272109229965,82.55159585782798,-21.57982720269097,-88.9409891764323,-40.65967135959201,-1.4692514249593904,-0.5985781225827661,-0.9696250386757426,1.6044786241319444,0.06785074869791667,-1.4249081081814237,-0.1088,0.14,2.0842,0.0228,-0.03282,0.00509,0.0008820138755254447,0.0009999937610700727,0.0009201358770951629,0.0005079067195765674,0.0005001365789212286,0.0005738979671150446,0.01173606887459755,0.010186107829213142,0.011653736233711243,passive,0
2.4207,rehab,small_slow,22.2721323778894,-666.637187880707,308.68174653390344,-177.39003420393152,0.13359282548713586,-149.9877805672736,-16.9893,-0.0544,10.467,31.1041,0.8555,-19.554,79.35613802163908,27.09338650845065,82.53576222032603,-21.554794311523438,-88.9402347140842,-40.68341573079427,-1.4692514249593904,-0.544163165706219,-1.0145901217318998,1.5878719753689237,0.06785074869791667,-1.4249081081814237,-0.1632,0.1167,1.6385,0.02332,-0.04128,0.01414,0.0008820138755254447,0.0009999937610700727,0.0009201358770951629,0.0005079067195765674,0.0005001365789212286,0.0005738979671150446,0.01173606887459755,0.010186107829213142,0.011653736233711243,passive,0
2.4409,rehab,small_slow,21.884235356616323,-666.6390099599649,308.9373059139482,-177.38949953729932,0.1331454994854804,-149.9861817149966,-16.2448,-0.0304,9.9731,30.0801,0.8856,-21.0202,79.3223768177599,27.080483011680073,82.51251825011603,-21.518241034613716,-88.93917507595486,-40.7183583577474,-1.4148296696124691,-0.489748208829672,-0.9057874018603033,1.4862569173177083,0.06785074869791667,-1.4927588568793402,-0.226,0.1974,1.611,0.02043,-0.03151,0.00844,0.0008820138755254447,0.0009999937610700727,0.0009201358770951629,0.0005079067195765674,0.0005001365789212286,0.0005738979671150446,0.01173606887459755,0.010186107829213142,0.011653736233711243,passive,0
2.4611,rehab,small_slow,21.61918143599624,-666.6380154923488,309.09391412382655,-177.38987264805735,0.1334618471390395,-149.98640735536196,-16.0658,0.0144,9.8351,23.9021,0.8362,-18.3487,79.29928241389813,27.07233164570119,82.49832304397432,-21.494691636827255,-88.93849690755208,-40.740958319769966,-1.4148296696124691,-0.544163165706219,-0.8706801008469988,1.4618259006076388,-0.0,-1.4249081081814237,-0.1759,0.0707,1.9574,0.01025,-0.03408,0.00455,0.0008820138755254447,0.0009999937610700727,0.0009201358770951629,0.0005079067195765674,0.0005001365789212286,0.0005738979671150446,0.01173606887459755,0.010186107829213142,0.011653736233711243,passive,0
2.4805,rehab,small_slow,21.361803355426115,-666.638394256772,309.246444056032,-177.39037399593406,0.1338536923124662,-149.98615577129382,-15.3866,0.0144,9.4155,11.054,0.6686,-10.1277,79.27688145401454,27.06461538182627,82.48408704701036,-21.47139655219184,-88.93785264756944,-40.763346354166664,-1.360414712735922,-0.489748208829672,-0.9004438041460396,1.4482625325520833,-0.0,-1.357057359483507,-0.1523,0.043,1.9885,0.00275,-0.03155,-0.00245,0.0008820138755254447,0.0009999937610700727,0.0009201358770951629,0.0005079067195765674,0.0005001365789212286,0.0005738979671150446,0.01173606887459755,0.010186107829213142,0.011653736233711243,passive,0
2.5009,rehab,small_slow,20.967836754404942,-666.6422968005248,309.4778492809195,-177.3903191904772,0.13381911356933554,-149.98702991308616,-14.9898,0.0189,9.0852,3.3728,0.4801,-4.4119,79.24265115567954,27.053227943949178,82.46236593416421,-21.43731011284722,-88.93685234917534,-40.7963138156467,-1.360414712735922,-0.489748208829672,-0.8633309543722927,1.421661376953125,0.06785074869791667,-1.357057359483507,-0.2388,0.0215,1.3188,0.00503,-0.01932,0.0072,0.0008820138755254447,0.0009999937610700727,0.0009201358770951629,0.0005079067195765674,0.0005001365789212286,0.0005738979671150446,0.01173606887459755,0.010186107829213142,0.011653736233711243,passive,0
2.5209,rehab,small_slow,20.715201767802032,-666.6391753504811,309.63135430944885,-177.39025185099936,0.13375465324063976,-149.98755686157347,-15.4316,0.042,9.2183,4.1453,0.1789,-3.7967,79.22061051472579,27.044981399385055,82.4490749245823,-21.41519334581163,-88.93621656629774,-40.817574395073784,-1.360414712735922,-0.489748208829672,-0.8354504273669554,1.391075981987847,0.06785074869791667,-1.2892066107855902,-0.2599,-0.0262,1.9551,-0.0091,-0.02932,0.00269,0.0008820138755254447,0.0009999937610700727,0.0009201358770951629,0.0005079067195765674,0.0005001365789212286,0.0005738979671150446,0.01173606887459755,0.010186107829213142,0.011653736233711243,passive,0
2.5409,rehab,small_slow,20.34333200197237,-666.633929267589,309.85993620908505,-177.38984486086358,0.13338806127364955,-149.9885759430352,-15.3965,0.0361,9.1551,9.4158,-0.1174,-5.7002,79.18816141562887,27.03262178024443,82.42956331460783,-21.382887098524304,-88.93529256184895,-40.848634507921005,-1.360414712735922,-0.489748208829672,-0.843166691241878,1.323021782769097,-0.0,-1.2213473849826388,-0.269,-0.1183,1.3074,-0.00268,-0.03578,0.00697,0.0008820138755254447,0.0009999937610700727,0.0009201358770951629,0.0005079067195765674,0.0005001365789212286,0.0005738979671150446,0.01173606887459755,0.010186107829213142,0.011653736233711243,passive,0
2.5611,rehab,small_slow,20.10495624358469,-666.6347078882836,310.00891680473865,-177.38931867311015,0.13294493458049902,-149.988760867976,-15.4279,0.021,9.2321,16.5528,-0.0782,-8.3138,79.167426080987,27.02510947048074,82.41610914173692,-21.36196560329861,-88.93467373318143,-40.8689456515842,-1.251584798982828,-0.489748208829672,-0.839223578424737,1.3304307725694444,0.06785074869791667,-1.2213473849826388,-0.1834,0.0071,1.8651,-0.00373,-0.03209,0.00324,0.0008820138755254447,0.0009999937610700727,0.0009201358770951629,0.0005079067195765674,0.0005001365789212286,0.0005738979671150446,0.01173606887459755,0.010186107829213142,0.011653736233711243,passive,0
2.5809,rehab,small_slow,19.76691132393864,-666.6365700665458,310.21294834891677,-177.38961843567245,0.1331689999739568,-149.98840379091948,-15.0262,0.023,9.1005,25.0571,-0.0202,-11.2928,79.13803629355856,27.0150885251489,82.39678109046257,-21.331312391493054,-88.93381754557292,-40.89834425184462,-1.251584798982828,-0.3809114966062036,-0.750619114035427,1.276024712456597,0.06785074869791667,-1.153496636284722,-0.1137,-0.0054,1.1049,0.01402,-0.04095,0.00582,0.0008820138755254447,0.0009999937610700727,0.0009201358770951629,0.0005079067195765674,0.0005001365789212286,0.0005738979671150446,0.01173606887459755,0.010186107829213142,0.011653736233711243,passive,0
2.6005,rehab,small_slow,19.483962292318996,-666.6357762217755,310.36888668623976,-177.39061502767018,0.1340404308247939,-149.988777158472,-13.9723,0.0207,8.5579,35.8668,-0.1377,-16.5468,79.1133986369218,27.007209097984994,82.38197402198716,-21.306542290581596,-88.93308851453993,-40.922325981987846,-1.1427480867593596,-0.435333251953125,-0.7520875836362934,1.1679840087890625,-0.0,-1.2213473849826388,-0.2565,0.1087,1.5198,0.00671,-0.03125,0.01182,0.0008820138755254447,0.0009999937610700727,0.0009201358770951629,0.0005079067195765674,0.0005001365789212286,0.0005738979671150446,0.01173606887459755,0.010186107829213142,0.011653736233711243,passive,0
2.6209,rehab,small_slow,19.173300644030785,-666.6355909141424,310.55684918764376,-177.39104977103713,0.13440669560251145,-149.98760729425177,-13.1013,0.0171,8.0971,41.6886,-0.145,-20.8584,79.0863543217725,26.997820410397974,82.36433199136565,-21.27805921766493,-88.93225775824652,-40.950215657552086,-1.1427480867593596,-0.3809114966062036,-0.7376612295018564,1.1882442898220487,0.13570149739583334,-1.153496636284722,-0.2151,-0.0504,1.7917,-0.01259,-0.03265,0.00277,0.0008820138755254447,0.0009999937610700727,0.0009201358770951629,0.0005079067195765674,0.0005001365789212286,0.0005738979671150446,0.01173606887459755,0.010186107829213142,0.011653736233711243,passive,0
2.6406,rehab,small_slow,18.965322940200462,-666.6370879970061,310.68741562938914,-177.39060370085534,0.13401016067145546,-149.9876571012953,-12.2248,0.0278,7.6497,38.9471,-0.1386,-21.7218,79.0682839875174,26.99142304977568,82.35225110951036,-21.259613037109375,-88.93173217773438,-40.968026055230034,-1.1427480867593596,-0.3809114966062036,-0.7408089212851949,1.1534627278645833,0.06785074869791667,-1.0856458875868056,-0.3521,-0.0376,2.1052,-0.01348,-0.02982,-0.0002,0.0008820138755254447,0.0009999937610700727,0.0009201358770951629,0.0005079067195765674,0.0005001365789212286,0.0005738979671150446,0.01173606887459755,0.010186107829213142,0.011653736233711243,passive,0
2.6614,rehab,small_slow,18.679521428156065,-666.6353541168525,310.8817664979812,-177.3896406545089,0.13320398042033718,-149.98616810626052,-11.6079,0.0261,7.3585,31.1921,-0.4104,-20.4368,79.04337439206567,26.98144289526609,82.3351257626373,-21.232935587565105,-88.93092685275607,-40.99411858452691,-0.979496417659344,-0.435333251953125,-0.6349771329672029,1.0845777723524306,0.06785074869791667,-1.0177951388888888,-0.31,0.0282,1.4407,-0.00847,-0.03435,0.00455,0.0008820138755254447,0.0009999937610700727,0.0009201358770951629,0.0005079067195765674,0.0005001365789212286,0.0005738979671150446,0.01173606887459755,0.010186107829213142,0.011653736233711243,passive,0
2.6806,rehab,small_slow,18.498016724195576,-666.6319840940939,311.0004552067864,-177.38959896208962,0.13309284311276123,-149.9850283010193,-10.9913,0.0066,6.9742,20.2472,-0.6959,-15.9049,79.02752715762298,26.975127116288288,82.32477169225712,-21.215837266710068,-88.93047756618924,-41.01091172960069,-0.979496417659344,-0.3809114966062036,-0.644216254205987,1.0517120361328125,0.06785074869791667,-1.0177951388888888,-0.3125,0.029,1.6904,0.00314,-0.0219,0.00665,0.0008820138755254447,0.0009999937610700727,0.0009201358770951629,0.0005079067195765674,0.0005001365789212286,0.0005738979671150446,0.01173606887459755,0.010186107829213142,0.011653736233711243,passive,0
2.701,rehab,small_slow,18.313837070055968,-666.6307173287737,311.11285831952495,-177.38963580533942,0.13316254618971257,-149.98490144216026,-10.4867,-0.0074,6.5152,10.6043,-0.7636,-10.7374,79.01147596906907,26.969382408821936,82.3145331958733,-21.19927300347222,-88.92996893988715,-41.02689954969618,-1.0339181730062654,-0.32649653972965653,-0.6240247971940749,0.9864044189453125,-0.0,-1.0177951388888888,-0.2959,-0.0338,1.84,0.00744,-0.02984,0.00123,0.0008820138755254447,0.0009999937610700727,0.0009201358770951629,0.0005079067195765674,0.0005001365789212286,0.0005738979671150446,0.01173606887459755,0.010186107829213142,0.011653736233711243,passive,0
2.7208,rehab,small_slow,18.05069310707757,-666.6337124317819,311.272890359451,-177.38978525433174,0.133322756964647,-149.984426701542,-10.651,-0.0165,6.4239,6.9208,-0.5246,-8.1805,78.98862631014077,26.961863300587872,82.2988763186011,-21.175147162543404,-88.92925686306424,-41.04994879828559,-0.979496417659344,-0.32649653972965653,-0.610312282448948,1.0479821099175346,-0.0,-0.9499359130859375,-0.2715,-0.0323,1.872,-0.01623,-0.02475,-0.00127,0.0008820138755254447,0.0009999937610700727,0.0009201358770951629,0.0005079067195765674,0.0005001365789212286,0.0005738979671150446,0.01173606887459755,0.010186107829213142,0.011653736233711243,passive,0
2.7408,rehab,small_slow,17.881805687850985,-666.6367634162531,311.37406019173727,-177.38993887199504,0.13345709909736,-149.98389065752707,-10.6376,-0.0389,6.2664,7.6405,0.021,-7.2711,78.97398240495436,26.957274333085163,82.28869220998027,-21.159693400065105,-88.92880757649739,-41.064953274197045,-0.87066650390625,-0.32649653972965653,-0.6313331528465347,0.94970703125,-0.0,-0.8820851643880208,-0.2356,0.0805,1.6006,-0.00165,-0.01654,0.00756,0.0008820138755254447,0.0009999937610700727,0.0009201358770951629,0.0005079067195765674,0.0005001365789212286,0.0005738979671150446,0.01173606887459755,0.010186107829213142,0.011653736233711243,passive,0
2.7606,rehab,small_slow,17.62608031692616,-666.6371567210717,311.5180124079834,-177.39038411980349,0.1338626700062225,-149.9842931938304,-10.6346,-0.0532,6.2553,11.7194,0.5585,-7.73,78.95174460835976,26.950231117777303,82.27489811359065,-21.13756815592448,-88.92814636230469,-41.08653598361545,-0.9250814607827971,-0.32649653972965653,-0.544394313698948,0.9230634901258681,0.06785074869791667,-0.8820851643880208,-0.1677,0.0784,1.3695,0.00391,-0.02755,0.00465,0.0008820138755254447,0.0009999937610700727,0.0009201358770951629,0.0005079067195765674,0.0005001365789212286,0.0005738979671150446,0.01173606887459755,0.010186107829213142,0.011653736233711243,passive,0
2.7811,rehab,small_slow,17.462281987553762,-666.6360310476612,311.61071419664074,-177.3905929045156,0.13404022493991558,-149.98474024898312,-10.3557,-0.0333,6.205,17.2049,0.8733,-9.2705,78.9374814175143,26.945512979337483,82.26634563785969,-21.12358940972222,-88.92773946126302,-41.100192599826386,-0.87066650390625,-0.2720815828531095,-0.5440407932394802,0.877838134765625,0.06785074869791667,-0.8820851643880208,-0.3041,-0.0171,1.9133,-0.00426,-0.03446,-0.0007,0.0008820138755254447,0.0009999937610700727,0.0009201358770951629,0.0005079067195765674,0.0005001365789212286,0.0005738979671150446,0.01173606887459755,0.010186107829213142,0.011653736233711243,passive,0
2.801,rehab,small_slow,17.195392033801575,-666.6360331535872,311.7749537028621,-177.39024157567016,0.13372169248054114,-149.98498026425023,-9.7217,0.0125,5.9114,24.4435,0.9207,-13.329,78.91427143965618,26.937382008769724,82.25119184739519,-21.100056966145832,-88.92706976996527,-41.122894287109375,-0.8162515470297029,-0.2720815828531095,-0.5256985201693998,0.8372582329644097,-0.0,-0.8142344156901041,-0.2656,-0.0782,1.8393,-0.00596,-0.03845,0.0011,0.0008820138755254447,0.0009999937610700727,0.0009201358770951629,0.0005079067195765674,0.0005001365789212286,0.0005738979671150446,0.01173606887459755,0.010186107829213142,0.011653736233711243,passive,0
2.821,rehab,small_slow,17.046374809581994,-666.6367234252051,311.86816685835817,-177.38969800959126,0.13324365646346817,-149.9854704093716,-9.06,0.0551,5.5549,29.8095,0.7181,-17.7258,78.90132715206335,26.932813436678142,82.24268696095683,-21.087315877278645,-88.92670525444878,-41.13520304361979,-0.8162515470297029,-0.2720815828531095,-0.529145344649211,0.8078257242838541,-0.0,-0.7463751898871528,-0.1047,-0.0331,1.8745,0.00057,-0.0353,0.00062,0.0008820138755254447,0.0009999937610700727,0.0009201358770951629,0.0005079067195765674,0.0005001365789212286,0.0005738979671150446,0.01173606887459755,0.010186107829213142,0.011653736233711243,passive,0
2.841,rehab,small_slow,16.832938612021813,-666.6360900803965,312.0023243540806,-177.3888102917557,0.13246416009679607,-149.9861561230731,-8.2765,0.0613,5.0741,31.368,0.2447,-20.4137,78.88276052947091,26.926021764774134,82.23083722709428,-21.069293551974827,-88.92617967393663,-41.15287780761719,-0.7074148348062346,-0.2176666259765625,-0.4539814561900526,0.7440778944227431,-0.0,-0.678524441189236,-0.1676,0.0048,1.2549,0.01278,-0.03467,0.0058,0.0008820138755254447,0.0009999937610700727,0.0009201358770951629,0.0005079067195765674,0.0005001365789212286,0.0005738979671150446,0.01173606887459755,0.010186107829213142,0.011653736233711243,passive,0
2.8616,rehab,small_slow,16.703025650684754,-666.6345697785548,312.08545659660473,-177.3883648102739,0.13205576631781046,-149.98639445857563,-7.7958,0.0424,4.6827,30.5258,-0.4691,-21.3234,78.87144107629757,26.921697937616027,82.22363084849745,-21.058019002278645,-88.92586602105034,-41.163830227322045,-0.7074148348062346,-0.2720815828531095,-0.43339568789642635,0.678524441189236,-0.0,-0.678524441189236,-0.1176,0.0255,1.4563,0.02464,-0.03567,0.01174,0.0008820138755254447,0.0009999937610700727,0.0009201358770951629,0.0005079067195765674,0.0005001365789212286,0.0005738979671150446,0.01173606887459755,0.010186107829213142,0.011653736233711243,passive,0
2.8809,rehab,small_slow,16.581977973117905,-666.6326759923519,312.158159608549,-177.38849810153548,0.132163840476413,-149.98645272229862,-7.3357,0.0212,4.2697,27.3818,-1.0175,-19.1235,78.86088305180616,26.917917988087872,82.21707032458617,-21.047176784939236,-88.92556084526909,-41.174206203884545,-0.5985781225827661,-0.2176666259765625,-0.4070720106068224,0.6522623697916666,0.06785074869791667,-0.678524441189236,-0.2357,0.0192,1.3806,0.00372,-0.02999,0.01183,0.0008820138755254447,0.0009999937610700727,0.0009201358770951629,0.0005079067195765674,0.0005001365789212286,0.0005738979671150446,0.01173606887459755,0.010186107829213142,0.011653736233711243,passive,0
2.9008,rehab,small_slow,16.41300906624014,-666.6310785781517,312.25141387329467,-177.38931654449047,0.13290928489456838,-149.98650759398782,-6.7329,-0.008,3.823,24.6019,-1.1899,-15.5104,78.84615756497524,26.91326103588142,82.20802835898824,-21.031909518771702,-88.92510308159721,-41.18870205349392,-0.5985781225827661,-0.16324487062964108,-0.3805511776763614,0.6032392713758681,0.06785074869791667,-0.5428229437934028,-0.3287,0.1024,1.4786,-0.00378,-0.0239,0.00549,0.0008820138755254447,0.0009999937610700727,0.0009201358770951629,0.0005079067195765674,0.0005001365789212286,0.0005738979671150446,0.01173606887459755,0.010186107829213142,0.011653736233711243,passive,0
2.9205,rehab,small_slow,16.303559947852968,-666.631336289578,312.3089607489331,-177.38975414204512,0.13335182145109983,-149.98694802558273,-6.2409,-0.0355,3.545,23.492,-0.9273,-12.6825,78.83663970645111,26.91052805079092,82.20224965917002,-21.022491455078125,-88.92478942871094,-41.19767083062066,-0.5985781225827661,-0.16324487062964108,-0.3773830904818998,0.5865732828776041,0.06785074869791667,-0.5428229437934028,-0.2217,0.0375,1.1697,-0.00199,-0.03325,0.01001,0.0008820138755254447,0.0009999937610700727,0.0009201358770951629,0.0005079067195765674,0.0005001365789212286,0.0005738979671150446,0.01173606887459755,0.010186107829213142,0.011653736233711243,passive,0
2.9409,rehab,small_slow,16.14649753904373,-666.6346880702321,312.3944481193363,-177.38977528322104,0.13334892808092588,-149.98790566650217,-5.7708,-0.0505,3.3489,24.4379,-0.397,-11.7945,78.82304956417272,26.90676169820351,82.19353402015007,-21.009597778320312,-88.92443339029948,-41.21015760633681,-0.544163165706219,-0.16324487062964108,-0.3528746047822556,0.47953287760416663,-0.0,-0.4749637179904514,-0.1699,0.0474,1.4684,-0.00011,-0.03018,0.00383,0.0008820138755254447,0.0009999937610700727,0.0009201358770951629,0.0005079067195765674,0.0005001365789212286,0.0005738979671150446,0.01173606887459755,0.010186107829213142,0.011653736233711243,passive,0
2.9608,rehab,small_slow,16.053705247029924,-666.6366098143559,312.4498415859437,-177.3895739335496,0.1331411579463332,-149.9882077522936,-5.459,-0.0491,3.2848,26.2964,0.0846,-13.1565,78.81502057066058,26.904280256516863,82.18806125149868,-21.001688639322918,-88.92422993977864,-41.21779547797309,-0.489748208829672,-0.16324487062964108,-0.33431478066019493,0.474302503797743,-0.0,-0.4071129692925347,0.0122,-0.0649,1.578,0.01639,-0.03379,0.00411,0.0008820138755254447,0.0009999937610700727,0.0009201358770951629,0.0005079067195765674,0.0005001365789212286,0.0005738979671150446,0.01173606887459755,0.010186107829213142,0.011653736233711243,passive,0
2.9807,rehab,small_slow,15.940560234552391,-666.6381185780914,312.52306096270854,-177.38949534932038,0.13308090647932114,-149.9875850274896,-4.7925,-0.0371,3.0059,27.254,0.4627,-15.4962,78.80520357943998,26.900935409092668,82.18082767902034,-20.990880330403645,-88.92391628689236,-41.228112114800346,-0.32649653972965653,-0.10882991375309406,-0.2749301419399752,0.4173448350694444,0.06785074869791667,-0.4071129692925347,-0.1276,-0.1291,1.2508,0.00133,-0.03819,0.00176,0.0008820138755254447,0.0009999937610700727,0.0009201358770951629,0.0005079067195765674,0.0005001365789212286,0.0005738979671150446,0.01173606887459755,0.010186107829213142,0.011653736233711243,passive,0
3.0007,rehab,small_slow,15.878930990596375,-666.6380942053275,312.56666653972275,-177.38952366739812,0.13310282788618386,-149.9868223153941,-4.1972,-0.0246,2.6692,30.1208,0.6757,-19.301,78.79983958631459,26.898855077158107,82.17662622432897,-20.98436991373698,-88.92373826768663,-41.234164767795136,-0.2720815828531095,-0.16324487062964108,-0.24681166847153466,0.3729756673177083,-0.0,-0.4071129692925347,-0.2639,-0.0782,0.6252,0.00065,-0.03145,0.00817,0.0008820138755254447,0.0009999937610700727,0.0009201358770951629,0.0005079067195765674,0.0005001365789212286,0.0005738979671150446,0.01173606887459755,0.010186107829213142,0.011653736233711243,passive,0
3.0206,rehab,small_slow,15.781704381237834,-666.6362133818014,312.6325357629367,-177.3896546090214,0.13322273916156835,-149.9862320552085,-3.5498,-0.0045,2.1898,34.6467,0.6841,-23.1505,78.79134829681699,26.895476237382038,82.17060957804765,-20.974511040581596,-88.92346700032552,-41.243133544921875,-0.2720815828531095,-0.16324487062964108,-0.16363238344098083,0.3088802761501736,0.06785074869791667,-0.2714114718967014,-0.2903,-0.0352,1.1625,-0.01367,-0.02423,0.00574,0.0008820138755254447,0.0009999937610700727,0.0009201358770951629,0.0005079067195765674,0.0005001365789212286,0.0005738979671150446,0.01173606887459755,0.010186107829213142,0.011653736233711243,passive,0
3.0408,rehab,small_slow,15.728755099511268,-666.6355024099498,312.6625544661119,-177.38991723310127,0.13346716854960597,-149.9865874781476,-2.871,0.0115,1.6113,38.7549,0.5909,-25.1032,78.78673213543279,26.893966976958925,82.16772022813853,-20.969619750976562,-88.92333136664496,-41.247338189019096,-0.32649653972965653,-0.05441495687654703,-0.18809327984800434,0.2849578857421875,0.06785074869791667,-0.20355224609375,-0.137,-0.0202,1.054,0.0091,-0.02866,0.00994,0.0008820138755254447,0.0009999937610700727,0.0009201358770951629,0.0005079067195765674,0.0005001365789212286,0.0005738979671150446,0.01173606887459755,0.010186107829213142,0.011653736233711243,passive,0
3.0612,rehab,small_slow,15.659404986716044,-666.6358156800059,312.7018329046546,-177.3899857455598,0.13351202885181634,-149.98754421489238,-2.1704,0.0159,1.0879,41.4674,0.4674,-24.4625,78.78071548915145,26.892104196076346,82.16390628625851,-20.963702731662327,-88.9231957329644,-41.252331203884545,-0.2176666259765625,-0.05441495687654703,-0.07750936073831992,0.23423936631944445,-0.06785074869791667,-0.13570149739583334,-0.3133,-0.0029,0.8846,0.00672,-0.03687,0.01199,0.0008820138755254447,0.0009999937610700727,0.0009201358770951629,0.0005079067195765674,0.0005001365789212286,0.0005738979671150446,0.01173606887459755,0.010186107829213142,0.011653736233711243,passive,0
3.0809,rehab,small_slow,15.626713529476675,-666.6373732546692,312.7123738266449,-177.39057425855952,0.13404110600152352,-149.98807217804378,-1.3009,0.0183,0.622,41.2081,0.2774,-20.7741,78.77790092241646,26.891859451142867,82.16219987019454,-20.960888332790798,-88.92311943901909,-41.254586113823784,-0.10882991375309406,-0.0,-0.08410387700146968,0.08600870768229167,-0.0,-0.13570149739583334,-0.2708,0.0202,1.7445,-0.00741,-0.04118,0.00247,0.0008820138755254447,0.0009999937610700727,0.0009201358770951629,0.0005079067195765674,0.0005001365789212286,0.0005738979671150446,0.01173606887459755,0.010186107829213142,0.011653736233711243,passive,0
3.1009,rehab,small_slow,15.606848813880227,-666.6381248636459,312.71496097202663,-177.39124225317966,0.13462121261358284,-149.98822355477978,-0.3228,0.0175,0.2115,38.0646,-0.0802,-14.9304,78.77618770788212,26.891907040435488,82.16135685986812,-20.959159003363716,-88.92307705349393,-41.2561289469401,-0.05441495687654703,-0.0,-0.01842385471457302,0.0981903076171875,0.06785074869791667,-0.0,-0.1553,0.1746,1.575,0.0126,-0.0321,0.00635,0.0008820138755254447,0.0009999937610700727,0.0009201358770951629,0.0005079067195765674,0.0005001365789212286,0.0005738979671150446,0.01173606887459755,0.010186107829213142,0.011653736233711243,passive,0
3.1206,rehab,small_slow,15.611313338175764,-666.6357496670697,312.7105092044527,-177.39233399070633,0.135599289657274,-149.98677289358554,0.495,0.022,-0.0385,31.6888,-0.5054,-8.7807,78.77652083293046,26.89200221902073,82.16143164304223,-20.957828097873264,-88.92302619086371,-41.25723097059462,0.05441495687654703,0.05441495687654703,0.009721812635365099,0.016242133246527776,0.06785074869791667,-0.0,-0.2259,0.043,1.4086,0.00116,-0.03075,0.00852,0.0008820138755254447,0.0009999937610700727,0.0009201358770951629,0.0005079067195765674,0.0005001365789212286,0.0005738979671150446,0.01173606887459755,0.010186107829213142,0.011653736233711243,passive,0
3.141,rehab,small_slow,15.626277460872206,-666.6350310940704,312.7095417980577,-177.39247874634327,0.1357322102990294,-149.9853745992963,1.066,0.022,-0.1284,22.3966,-0.8004,-3.7155,78.77779894536084,26.892022614431852,82.1614928292756,-20.95770941840278,-88.92301771375868,-41.2573496500651,0.05441495687654703,-0.0,0.024624059696008664,-0.013147989908854166,-0.0,-0.0,-0.1916,-0.0113,0.8836,-0.00935,-0.0279,0.00578,0.0008820138755254447,0.0009999937610700727,0.0009201358770951629,0.0005079067195765674,0.0005001365789212286,0.0005738979671150446,0.01173606887459755,0.010186107829213142,0.011653736233711243,passive,0
3.1608,rehab,small_slow,15.674030548727343,-666.6340751617585,312.7087773691727,-177.39239622773505,0.13567450088573665,-149.98136395518404,1.3743,0.0048,-0.1063,12.7201,-0.825,-0.824,78.78190522146697,26.8920634052541,82.16159480633122,-20.957955254448784,-88.92300923665364,-41.25725640190972,0.16324487062964108,-0.05441495687654703,0.00011557399636448019,-0.0141143798828125,0.06785074869791667,-0.0,-0.2427,-0.0088,1.7431,-0.01083,-0.02881,0.00266,0.0008820138755254447,0.0009999937610700727,0.0009201358770951629,0.0005079067195765674,0.0005001365789212286,0.0005738979671150446,0.01173606887459755,0.010186107829213142,0.011653736233711243,passive,0
3.1807,rehab,small_slow,15.701257221520638,-666.6340089197988,312.7080150441354,-177.3922106769403,0.1355099685444525,-149.97925400123873,1.4328,-0.0244,-0.0174,4.6181,-0.5245,0.2417,78.78425749221651,26.892138188428216,82.16169678338683,-20.958387586805554,-88.92301771375868,-41.25701904296875,0.10882991375309406,0.05441495687654703,0.005955460047957921,-0.026151869032118056,0.06785074869791667,-0.0,-0.2664,-0.0846,1.2252,-0.01383,-0.03733,0.00427,0.0008820138755254447,0.0009999937610700727,0.0009201358770951629,0.0005079067195765674,0.0005001365789212286,0.0005738979671150446,0.01173606887459755,0.010186107829213142,0.011653736233711243,passive,0
3.2006,rehab,small_slow,15.732348658459006,-666.6348800760957,312.7079107660827,-177.3914349732527,0.13485553888922305,-149.97773314983843,1.4505,-0.0543,-0.0136,1.0467,0.0653,-0.7247,78.78696328342551,26.892212971602337,82.1619687222018,-20.959786309136284,-88.92303466796875,-41.25584920247396,0.10882991375309406,0.05441495687654703,0.018104326606977104,-0.06844414605034722,-0.0,0.13570149739583334,-0.0989,-0.0777,0.753,0.00454,-0.02665,0.01047,0.0008820138755254447,0.0009999937610700727,0.0009201358770951629,0.0005079067195765674,0.0005001365789212286,0.0005738979671150446,0.01173606887459755,0.010186107829213142,0.011653736233711243,passive,0
3.2205,rehab,small_slow,15.745313982903603,-666.6365251524456,312.7090790369079,-177.3904527128516,0.1340257191745426,-149.97815435305307,1.3386,-0.0548,-0.0651,1.7445,0.8158,-3.0348,78.78811902338916,26.892240165483834,82.16219987019454,-20.961380004882812,-88.92306009928386,-41.25428941514757,0.10882991375309406,-0.0,0.026480042108214728,-0.122528076171875,-0.06785074869791667,0.13570149739583334,-0.158,-0.1489,0.6885,-0.00332,-0.0318,0.00796,0.0008820138755254447,0.0009999937610700727,0.0009201358770951629,0.0005079067195765674,0.0005001365789212286,0.0005738979671150446,0.01173606887459755,0.010186107829213142,0.011653736233711243,passive,0
3.241,rehab,small_slow,15.770007823988674,-666.6389966236125,312.7088719691243,-177.38871874544733,0.13266286332167082,-149.9810495105619,1.3087,-0.0182,-0.2016,5.1552,1.5969,-5.9332,78.79030813084971,26.892335344069075,82.16292050805423,-20.964558919270832,-88.92310248480902,-41.249237060546875,0.10882991375309406,-0.0,0.048139968720993194,-0.13674418131510416,0.06785074869791667,0.20355224609375,-0.139,-0.1877,1.0567,-0.00433,-0.03754,0.00317,0.0008820138755254447,0.0009999937610700727,0.0009201358770951629,0.0005079067195765674,0.0005001365789212286,0.0005738979671150446,0.01173606887459755,0.010186107829213142,0.011653736233711243,passive,0
3.2612,rehab,small_slow,15.79235254584931,-666.6395932902914,312.70482186545917,-177.38795424582744,0.1320736607345982,-149.98239136438985,1.5212,0.0359,-0.3703,9.0696,2.1248,-8.5335,78.79225929184716,26.892518902769183,82.1636955336769,-20.96658494737413,-88.9231448703342,-41.24596489800347,0.16324487062964108,-0.0,0.03800344939279084,-0.1451534695095486,-0.0,0.20355224609375,-0.1525,0.0735,1.3612,-0.01026,-0.03428,0.00521,0.0008820138755254447,0.0009999937610700727,0.0009201358770951629,0.0005079067195765674,0.0005001365789212286,0.0005738979671150446,0.01173606887459755,0.010186107829213142,0.011653736233711243,passive,0
3.2808,rehab,small_slow,15.837122362704854,-666.6381111059509,312.6920793429284,-177.38694276113674,0.13130198206107394,-149.98382667422115,1.8795,0.0945,-0.5678,11.7287,2.0884,-9.995,78.7961208230198,26.892831632406406,82.1658710441967,-20.970509847005207,-88.92322116427951,-41.24070909288194,0.2176666259765625,-0.0,0.13316843769337872,-0.18194410536024305,-0.0,0.20355224609375,-0.1853,-0.2164,0.7027,-0.01554,-0.03122,0.00229,0.0008820138755254447,0.0009999937610700727,0.0009201358770951629,0.0005079067195765674,0.0005001365789212286,0.0005738979671150446,0.01173606887459755,0.010186107829213142,0.011653736233711243,passive,0
3.3006,rehab,small_slow,15.873834901151122,-666.6351861978367,312.6787758079299,-177.3863832684094,0.1308548941679698,-149.984578147127,2.2333,0.1395,-0.7669,13.8338,1.4159,-10.8343,78.79926171633277,26.893035586517637,82.1681009424795,-20.97378200954861,-88.92330593532986,-41.23685201009115,0.2176666259765625,0.05441495687654703,0.15280242013459158,-0.1906246609157986,-0.0,0.2714114718967014,-0.2142,-0.0183,1.1401,-0.0039,-0.02349,0.00413,0.0008820138755254447,0.0009999937610700727,0.0009201358770951629,0.0005079067195765674,0.0005001365789212286,0.0005738979671150446,0.01173606887459755,0.010186107829213142,0.011653736233711243,passive,0
3.3205,rehab,small_slow,15.915232521391372,-666.6306090486172,312.66165752587773,-177.3860534627829,0.13063568418714583,-149.98510127830008,2.5516,0.1597,-0.9906,16.1948,0.3483,-11.9783,78.80277652551632,26.893246339099242,82.17085432298113,-20.97726609971788,-88.92337375217014,-41.232850816514755,0.2176666259765625,0.10882991375309406,0.14599035281946163,-0.2090877956814236,-0.0,0.20355224609375,-0.3149,0.0199,1.2429,-0.00422,-0.01961,0.0073,0.0008820138755254447,0.0009999937610700727,0.0009201358770951629,0.0005079067195765674,0.0005001365789212286,0.0005738979671150446,0.01173606887459755,0.010186107829213142,0.011653736233711243,passive,0
3.3406,rehab,small_slow,15.98368093865454,-666.626196768671,312.6354573245773,-177.38548303934056,0.13022656423804438,-149.98570809199433,2.7891,0.1512,-1.2308,17.8838,-0.7021,-13.1496,78.8086436054494,26.89391258919593,82.17456628780553,-20.982547336154514,-88.92350090874565,-41.22643364800347,0.2720815828531095,-0.0,0.17005013947439665,-0.22657606336805555,0.06785074869791667,0.2714114718967014,-0.1098,-0.0439,1.0602,1e-05,-0.03712,0.00855,0.0008820138755254447,0.0009999937610700727,0.0009201358770951629,0.0005079067195765674,0.0005001365789212286,0.0005738979671150446,0.01173606887459755,0.010186107829213142,0.011653736233711243,passive,0
3.3607,rehab,small_slow,16.03253738257999,-666.6240830054745,312.61571888183926,-177.38520722371464,0.1299910199286549,-149.98534653116104,2.9692,0.1155,-1.4469,18.8504,-1.4223,-13.5829,78.81285185861115,26.89459243623337,82.17701373714031,-20.986158582899304,-88.92361111111111,-41.22262742784288,0.32649653972965653,0.05441495687654703,0.17884056166847154,-0.23710462782118055,0.06785074869791667,0.20355224609375,-0.1508,-0.1071,1.2834,0.00835,-0.0284,0.00475,0.0008820138755254447,0.0009999937610700727,0.0009201358770951629,0.0005079067195765674,0.0005001365789212286,0.0005738979671150446,0.01173606887459755,0.010186107829213142,0.011653736233711243,passive,0
3.3811,rehab,small_slow,16.109151391817388,-666.622675652151,312.57947955354484,-177.38504255532743,0.12986104026878323,-149.98424210232926,3.3488,0.0696,-1.7396,20.377,-1.8093,-13.6116,78.81948036722618,26.896190076771347,82.18078008972772,-20.991906060112846,-88.92376369900174,-41.21716817220052,0.32649653972965653,0.05441495687654703,0.14302621973623145,-0.2386050754123264,-0.0,0.2714114718967014,-0.1765,0.0324,1.5618,-0.0037,-0.03462,0.00869,0.0008820138755254447,0.0009999937610700727,0.0009201358770951629,0.0005079067195765674,0.0005001365789212286,0.0005738979671150446,0.01173606887459755,0.010186107829213142,0.011653736233711243,passive,0
3.4008,rehab,small_slow,16.16354402703439,-666.6227804052452,312.54930651468703,-177.38525638866608,0.1300419929653499,-149.9844061094029,3.9113,0.0246,-2.067,21.2679,-1.8608,-12.9036,78.82421210260675,26.897719732605584,82.18344509011447,-20.995975070529514,-88.92391628689236,-41.21231926812066,0.32649653972965653,0.10882991375309406,0.19245789782835707,-0.2477349175347222,0.06785074869791667,0.339262220594618,-0.1215,0.0746,1.786,-0.00199,-0.02684,0.00842,0.0008820138755254447,0.0009999937610700727,0.0009201358770951629,0.0005079067195765674,0.0005001365789212286,0.0005738979671150446,0.01173606887459755,0.010186107829213142,0.011653736233711243,passive,0
3.4209,rehab,small_slow,16.25423410404121,-666.622342465929,312.4941374154394,-177.3858502163532,0.1305904617933834,-149.9856353442893,4.5174,-0.0097,-2.3918,20.8603,-1.6685,-11.3521,78.83209152977065,26.90044591922571,82.18832639184329,-21.003061930338543,-88.9241706000434,-41.20329115125868,0.32649653972965653,0.10882991375309406,0.23602929445776608,-0.3512488471137153,-0.0,0.339262220594618,-0.0967,0.0245,1.5509,0.00704,-0.03252,0.00602,0.0008820138755254447,0.0009999937610700727,0.0009201358770951629,0.0005079067195765674,0.0005001365789212286,0.0005738979671150446,0.01173606887459755,0.010186107829213142,0.011653736233711243,passive,0
3.4407,rehab,small_slow,16.32315146306309,-666.622647968339,312.4546720025712,-177.38612307738487,0.13084336849559433,-149.9858962818123,4.8693,-0.025,-2.5444,18.5395,-1.3164,-9.2994,78.83808778064086,26.902465064926904,82.19178001479347,-21.00836012098524,-88.92434861924913,-41.197094387478295,0.3809114966062036,0.10882991375309406,0.23694708795830755,-0.286009046766493,-0.06785074869791667,0.4071129692925347,-0.1928,-0.074,1.122,-0.00499,-0.03343,0.01126,0.0008820138755254447,0.0009999937610700727,0.0009201358770951629,0.0005079067195765674,0.0005001365789212286,0.0005738979671150446,0.01173606887459755,0.010186107829213142,0.011653736233711243,passive,0
3.4611,rehab,small_slow,16.444562091743467,-666.6234521627956,312.3931488130705,-177.38654510615373,0.1312084520767002,-149.9853191762422,5.1777,-0.0402,-2.6768,14.3283,-0.8983,-7.1293,78.84865260360264,26.905701136825108,82.19703523239286,-21.01660834418403,-88.92465379503038,-41.18720160590278,0.489748208829672,0.10882991375309406,0.20195536094136757,-0.3428819444444444,-0.0,0.4071129692925347,-0.1339,-0.1302,0.876,-0.007,-0.03131,0.00379,0.0008820138755254447,0.0009999937610700727,0.0009201358770951629,0.0005079067195765674,0.0005001365789212286,0.0005738979671150446,0.01173606887459755,0.010186107829213142,0.011653736233711243,passive,0
3.4809,rehab,small_slow,16.558863069866828,-666.6241298182427,312.3389192714701,-177.386815543878,0.13141159146657536,-149.98435237519027,5.3943,-0.0585,-2.8024,10.1816,-0.5455,-5.8687,78.85859876576036,26.90855649438235,82.20171937848082,-21.024093627929688,-88.92495049370659,-41.17830912272135,0.544163165706219,0.16324487062964108,0.26303281878480816,-0.3756883409288194,-0.0,0.4071129692925347,-0.0762,-0.196,0.9512,-0.01408,-0.03413,0.00265,0.0008820138755254447,0.0009999937610700727,0.0009201358770951629,0.0005079067195765674,0.0005001365789212286,0.0005738979671150446,0.01173606887459755,0.010186107829213142,0.011653736233711243,passive,0
3.5009,rehab,small_slow,16.698358120394754,-666.62538111035,312.27150174131566,-177.38698269318428,0.13151535284434174,-149.98348773470812,5.5294,-0.0761,-2.8939,7.8863,-0.2237,-5.9507,78.87074763231938,26.9121256913289,82.20759325688428,-21.03369818793403,-88.92532348632812,-41.16713629828559,0.489748208829672,0.10882991375309406,0.25027888836246903,-0.413877699110243,-0.06785074869791667,0.4749637179904514,-0.0879,0.0298,1.3389,0.00082,-0.02323,8e-05,0.0008820138755254447,0.0009999937610700727,0.0009201358770951629,0.0005079067195765674,0.0005001365789212286,0.0005738979671150446,0.01173606887459755,0.010186107829213142,0.011653736233711243,passive,0
3.5208,rehab,small_slow,16.787140572649495,-666.626368598518,312.22484862637134,-177.387132726805,0.1315980994121286,-149.98377303065396,5.6761,-0.0815,-3.0051,9.4207,0.0599,-7.6514,78.8784910900758,26.914593536074797,82.21165194369779,-21.04031032986111,-88.92560323079427,-41.15918477376302,0.489748208829672,0.16324487062964108,0.28877182762221537,-0.43963114420572913,-0.0,0.5428229437934028,-0.1472,-0.0668,1.3622,-0.00731,-0.036,0.00247,0.0008820138755254447,0.0009999937610700727,0.0009201358770951629,0.0005079067195765674,0.0005001365789212286,0.0005738979671150446,0.01173606887459755,0.010186107829213142,0.011653736233711243,passive,0
3.5411,rehab,small_slow,16.87266590048269,-666.6286406472746,312.1759998778567,-177.38714413141443,0.13157436957370036,-149.9846781007691,5.7896,-0.0714,-3.1292,13.607,0.3784,-9.879,78.885976205958,26.917292528813427,82.21578541368541,-21.047414143880207,-88.92588297526042,-41.150877210828995,0.489748208829672,0.16324487062964108,0.28251043640741025,-0.4847886827256944,-0.0,0.4749637179904514,-0.0871,-0.1179,1.6655,-0.01278,-0.03871,0.00141,0.0008820138755254447,0.0009999937610700727,0.0009201358770951629,0.0005079067195765674,0.0005001365789212286,0.0005738979671150446,0.01173606887459755,0.010186107829213142,0.011653736233711243,passive,0
3.5615,rehab,small_slow,17.00778256718682,-666.6308903158173,312.0939542505752,-177.38766006688,0.1319102003082328,-149.98600407367843,6.1144,-0.0588,-3.3913,18.8844,0.6573,-11.8461,78.8977851489983,26.921684340675277,82.22271985346728,-21.058544582790798,-88.92636617024739,-41.13787333170573,0.489748208829672,0.16324487062964108,0.29902392094678215,-0.4936303032769097,-0.0,0.5428229437934028,-0.0967,-0.0803,1.271,-0.0017,-0.04414,0.00372,0.0008820138755254447,0.0009999937610700727,0.0009201358770951629,0.0005079067195765674,0.0005001365789212286,0.0005738979671150446,0.01173606887459755,0.010186107829213142,0.011653736233711243,passive,0
3.5805,rehab,small_slow,17.11094309509527,-666.6322167382104,312.03644808382387,-177.3879148868199,0.1320735861451208,-149.98620908248844,6.4632,-0.0422,-3.6426,21.2992,0.6715,-12.057,78.90678632377397,26.92474365234375,82.22765554295908,-21.066530015733505,-88.92668830023871,-41.128760443793404,0.5985781225827661,0.16324487062964108,0.31364063225170175,-0.5165947808159722,-0.06785074869791667,0.5428229437934028,-0.0955,-0.0711,1.0554,-0.00979,-0.03376,0.00346,0.0008820138755254447,0.0009999937610700727,0.0009201358770951629,0.0005079067195765674,0.0005001365789212286,0.0005738979671150446,0.01173606887459755,0.010186107829213142,0.011653736233711243,passive,0
3.6008,rehab,small_slow,17.28799951691267,-666.6323938710782,311.94404792762,-177.38857650109594,0.132586095356343,-149.98498433626034,7.0369,-0.0255,-3.9457,20.8778,0.462,-10.7488,78.92218485917195,26.929495783135444,82.23571173035272,-21.078948974609375,-88.92716301812065,-41.11473083496094,0.6529998779296875,0.16324487062964108,0.32880801965694617,-0.5100165473090278,-0.13570149739583334,0.6106736924913194,-0.237,0.017,1.1458,-0.01391,-0.02296,0.0004,0.0008820138755254447,0.0009999937610700727,0.0009201358770951629,0.0005079067195765674,0.0005001365789212286,0.0005738979671150446,0.01173606887459755,0.010186107829213142,0.011653736233711243,passive,0
