t,trajectory_type,trajectory_variant,x,y,z,rx,ry,rz,vx,vy,vz,ax,ay,az,j1,j2,j3,j4,j5,j6,dj1,dj2,dj3,dj4,dj5,dj6,fx,fy,fz,tx,ty,tz,Mx,My,Mz,Bx,By,Bz,Kx,Ky,Kz,mode,comfort
0.0005,rehab,small_slow,-2.2667268573033885,-666.6462504891555,322.02912271411424,-177.38960635835485,0.13310438593235963,-149.98635674609903,-0.0024,-0.0007,0.0041,0.0594,0.0047,-0.0594,77.22686389885327,26.480721955252164,81.21620631454014,-19.555460611979168,-88.87736002604167,-42.79134962293837,-0.0,-0.0,0.018614211885055694,-0.0008138020833333333,-0.0,-0.0,-0.072,0.1283,0.3822,-0.01173,0.00697,0.0014,0.0009336521616205573,0.001000449643470347,0.0009531251853331923,0.00040806198376230896,0.0004944083630107343,0.0005558294942602515,0.011769188567996025,0.011828426271677017,0.00905721914023161,passive,0
0.0209,rehab,small_slow,-2.266926780326651,-666.6462274434843,322.02908829369085,-177.3896072338025,0.13312756590676184,-149.98635943569332,-0.0018,-0.0006,0.0033,0.0512,0.0051,-0.0579,77.22684350344214,26.480721955252164,81.21620631454014,-19.555443657769096,-88.87734307183159,-42.79136657714844,-0.0,-0.0,0.0034876153020575494,0.003204345703125,0.06785074869791667,-0.0,0.0249,0.0641,0.4029,-0.00063,-0.00999,0.00336,0.0009336521616205573,0.001000449643470347,0.0009531251853331923,0.00040806198376230896,0.0004944083630107343,0.0005558294942602515,0.011769188567996025,0.011828426271677017,0.00905721914023161,passive,0
0.0409,rehab,small_slow,-2.2667982752695837,-666.6462872589175,322.0292147017632,-177.38959683067978,0.13310754039748326,-149.98637163339205,-0.0008,-0.0005,0.002,0.0355,0.0058,-0.0532,77.22685710038289,26.480721955252164,81.2161927175994,-19.55545213487413,-88.87735154893663,-42.791341145833336,-0.0,-0.0,-0.013596940748762377,0.009672376844618056,-0.0,-0.0,-0.0764,-0.0006,0.2315,-0.00258,0.00334,0.00465,0.0009336521616205573,0.001000449643470347,0.0009531251853331923,0.00040806198376230896,0.0004944083630107343,0.0005558294942602515,0.011769188567996025,0.011828426271677017,0.00905721914023161,passive,0
0.0611,rehab,small_slow,-2.266871873075199,-666.646262910896,322.02916010283036,-177.38960179370685,0.1331113720740605,-149.98636149266503,-0.0,-0.0004,0.0008,0.0219,0.0061,-0.0462,77.22685030191252,26.480721955252164,81.21619951606976,-19.55545213487413,-88.87735154893663,-42.791358100043404,-0.05441495687654703,0.05441495687654703,-0.01046964437654703,0.0007968478732638889,-0.0,-0.06785074869791667,0.0,0.1317,-0.5157,0.01548,-0.0126,0.00772,0.0009336521616205573,0.001000449643470347,0.0009531251853331923,0.00040806198376230896,0.0004944083630107343,0.0005558294942602515,0.011769188567996025,0.011828426271677017,0.00905721914023161,passive,0
0.081,rehab,small_slow,-2.2667937366383013,-666.6462670044765,322.0292918847934,-177.38959182168773,0.13310253630362825,-149.9863631580298,0.0005,-0.0003,-0.0001,0.011,0.006,-0.0375,77.22685710038289,26.48071515678179,81.2161927175994,-19.55545213487413,-88.87735154893663,-42.79134962293837,-0.0,-0.0,-0.024324926999535892,0.0007798936631944444,-0.0,-0.0,0.1141,0.0701,0.0426,0.02368,-0.01689,0.00013,0.0009336521616205573,0.001000449643470347,0.0009531251853331923,0.00040806198376230896,0.0004944083630107343,0.0005558294942602515,0.011769188567996025,0.011828426271677017,0.00905721914023161,passive,0
0.1008,rehab,small_slow,-2.266881887072888,-666.6463053626784,322.0293641549677,-177.38958058281756,0.13309178440094457,-149.98636158714453,0.001,-0.0002,-0.0006,0.006,0.006,-0.024,77.22685030191252,26.48071515678179,81.21618591912902,-19.555460611979168,-88.87735154893663,-42.791358100043404,-0.05441495687654703,-0.0,0.00589427381458849,-0.0007883707682291666,-0.0,-0.0,0.0389,-0.0066,-0.2857,0.00132,-0.00836,0.00247,0.0009336521616205573,0.001000449643470347,0.0009531251853331923,0.00040806198376230896,0.0004944083630107343,0.0005558294942602515,0.011769188567996025,0.011828426271677017,0.00905721914023161,passive,0
0.1209,rehab,small_slow,-2.26680281389891,-666.6463075133495,322.02913751873047,-177.38960180032527,0.1331117723225146,-149.98636317209204,0.0003,0.0001,-0.0011,-0.0015,0.0054,-0.0068,77.22685710038289,26.48072875372254,81.2161927175994,-19.55545213487413,-88.87735154893663,-42.79134962293837,0.05441495687654703,-0.0,0.002569821801516089,-0.0,-0.0,0.06785074869791667,0.0032,0.1342,0.1187,0.00765,-0.00317,0.0048,0.0009336521616205573,0.001000449643470347,0.0009531251853331923,0.00040806198376230896,0.0004944083630107343,0.0005558294942602515,0.011769188567996025,0.011828426271677017,0.00905721914023161,passive,0
0.1407,rehab,small_slow,-2.2667982752695837,-666.6462872589175,322.0292147017632,-177.3895968110065,0.13310715431307316,-149.9863631650607,-0.0003,0.0001,-0.0011,-0.013,0.0018,0.0064,77.22685710038289,26.480721955252164,81.2161927175994,-19.55545213487413,-88.87735154893663,-42.79134962293837,-0.0,-0.0,0.003698367883663366,1.6954210069444445e-05,-0.0,-0.0,0.0874,0.0227,0.1841,-0.00262,-0.01484,-0.0018,0.0009336521616205573,0.001000449643470347,0.0009531251853331923,0.00040806198376230896,0.0004944083630107343,0.0005558294942602515,0.011769188567996025,0.011828426271677017,0.00905721914023161,passive,0
0.1609,rehab,small_slow,-2.2667685775874657,-666.6462279814331,322.02908829369085,-177.3896072338025,0.13312756590676178,-149.98634583875256,0.0,0.0,-0.0008,-0.0159,-0.0011,0.0151,77.22685710038289,26.480721955252164,81.21620631454014,-19.555443657769096,-88.87734307183159,-42.79136657714844,0.05441495687654703,-0.05441495687654703,0.0019715564085705443,0.01018948025173611,-0.06785074869791667,-0.0,-0.0923,0.0233,0.1317,-0.00558,-0.01343,0.0,0.0009336521616205573,0.001000449643470347,0.0009531251853331923,0.00040806198376230896,0.0004944083630107343,0.0005558294942602515,0.011769188567996025,0.011828426271677017,0.00905721914023161,passive,0
0.1807,rehab,small_slow,-2.2668854607715234,-666.6463217925209,322.0291551899606,-177.38959556382738,0.13310562426668712,-149.98636159866965,0.0003,0.0,-0.0003,-0.0109,-0.0009,0.0182,77.22685030191252,26.48072875372254,81.2161927175994,-19.555460611979168,-88.87735154893663,-42.791358100043404,-0.05441495687654703,-0.0,-0.0026514034460086633,-0.039571126302083336,-0.0,-0.0,-0.0837,0.0117,0.0871,-0.00145,-0.00931,0.00497,0.0009336521616205573,0.001000449643470347,0.0009531251853331923,0.00040806198376230896,0.0004944083630107343,0.0005558294942602515,0.011769188567996025,0.011828426271677017,0.00905721914023161,passive,0
0.2011,rehab,small_slow,-2.266792771701414,-666.6462631798685,322.02916010283036,-177.38960181338075,0.133111758157734,-149.986363162526,-0.0002,0.0002,0.0006,-0.0027,-0.0014,0.0171,77.22685710038289,26.480721955252164,81.21619951606976,-19.55545213487413,-88.87735154893663,-42.79134962293837,-0.0,-0.0,0.005336799243889232,-0.0009240044487847222,-0.0,-0.0,0.0584,0.0434,0.458,0.00378,-0.00295,0.00284,0.0009336521616205573,0.001000449643470347,0.0009531251853331923,0.00040806198376230896,0.0004944083630107343,0.0005558294942602515,0.011769188567996025,0.011828426271677017,0.00905721914023161,passive,0
0.2208,rehab,small_slow,-2.2668773766462342,-666.6462869899442,322.0292147017632,-177.38959679133328,0.1331067682286603,-149.98636149519973,-0.0011,-0.0001,0.0005,0.0029,-0.001,0.0148,77.22685030191252,26.480721955252164,81.2161927175994,-19.55545213487413,-88.87735154893663,-42.791358100043404,-0.0,0.05441495687654703,-0.01550731092396349,-0.0011189778645833333,-0.0,-0.0,0.0942,-0.0246,0.4986,0.00433,-0.00197,-0.00427,0.0009336521616205573,0.001000449643470347,0.0009531251853331923,0.00040806198376230896,0.0004944083630107343,0.0005558294942602515,0.011769188567996025,0.011828426271677017,0.00905721914023161,passive,0
0.2406,rehab,small_slow,-2.2668134203211077,-666.6462838301476,322.0292142407488,-177.38960257043112,0.1331009402142885,-149.98636345320074,-0.0008,-0.0004,0.0006,0.0012,0.0005,0.0093,77.22685710038289,26.480721955252164,81.2161927175994,-19.55545213487413,-88.87736002604167,-42.79134962293837,-0.0,-0.05441495687654703,-0.025093154151840966,3.390842013888889e-05,-0.0,-0.0,-0.0815,0.0203,-0.4147,-0.00186,0.00412,0.00708,0.0009336521616205573,0.001000449643470347,0.0009531251853331923,0.00040806198376230896,0.0004944083630107343,0.0005558294942602515,0.011769188567996025,0.011828426271677017,0.00905721914023161,passive,0
0.2613,rehab,small_slow,-2.2667866757095165,-666.6463052358309,322.02923283401174,-177.38958483475702,0.13310760644057307,-149.9863629733585,0.0,0.0002,0.0008,-0.0008,-0.0004,0.002,77.22685710038289,26.480721955252164,81.2161927175994,-19.555460611979168,-88.87734307183159,-42.79134962293837,-0.0,-0.0,0.003609987768796411,-0.05140516493055555,-0.0,-0.06785074869791667,0.035,-0.0256,0.2317,0.01555,-0.00524,0.00179,0.0009336521616205573,0.001000449643470347,0.0009531251853331923,0.00040806198376230896,0.0004944083630107343,0.0005558294942602515,0.011769188567996025,0.011828426271677017,0.00905721914023161,passive,0
0.2807,rehab,small_slow,-2.266858686101473,-666.6462758705704,322.02919749155024,-177.38959724873166,0.13311874429875437,-149.98636111062132,0.0001,0.0001,0.0005,0.0064,-0.0028,-0.0034,77.22685030191252,26.480721955252164,81.2161927175994,-19.555443657769096,-88.87734307183159,-42.791358100043404,-0.0,-0.0,0.0,0.02068413628472222,0.06785074869791667,-0.0,0.1291,-0.0431,0.2582,0.02567,-0.00095,-7e-05,0.0009336521616205573,0.001000449643470347,0.0009531251853331923,0.00040806198376230896,0.0004944083630107343,0.0005558294942602515,0.011769188567996025,0.011828426271677017,0.00905721914023161,passive,0
0.301,rehab,small_slow,-2.266949016369402,-666.6462531110067,322.0291231751287,-177.3896005989302,0.13311060003116387,-149.98637685337056,-0.0,-0.0001,0.0007,0.014,-0.0011,-0.0071,77.22684350344214,26.480721955252164,81.21620631454014,-19.555460611979168,-88.87735154893663,-42.79134962293837,-0.0,-0.0,-0.0009177935005414604,0.0031958685980902775,-0.06785074869791667,0.06785074869791667,-0.0291,0.0117,0.0819,0.00292,0.0078,0.00515,0.0009336521616205573,0.001000449643470347,0.0009531251853331923,0.00040806198376230896,0.0004944083630107343,0.0005558294942602515,0.011769188567996025,0.011828426271677017,0.00905721914023161,passive,0
0.321,rehab,small_slow,-2.266889971200678,-666.6463401652657,322.02930464316864,-177.38957933564086,0.13309025435199717,-149.98635322228355,0.0,0.0,0.0007,0.0085,0.002,-0.0112,77.22685030191252,26.480721955252164,81.21618591912902,-19.555469089084202,-88.87735154893663,-42.79136657714844,-0.0,-0.05441495687654703,-0.00789982257503094,-0.03278944227430555,-0.06785074869791667,-0.0,0.057,0.0123,-0.0944,0.00784,-0.00254,0.00521,0.0009336521616205573,0.001000449643470347,0.0009531251853331923,0.00040806198376230896,0.0004944083630107343,0.0005558294942602515,0.011769188567996025,0.011828426271677017,0.00905721914023161,passive,0
0.3411,rehab,small_slow,-2.2667917785629617,-666.6462574735774,322.0292549570895,-177.38959058756478,0.13310099209172976,-149.98635478360248,-0.0003,-0.0001,0.0003,-0.0035,0.0002,-0.0144,77.22685710038289,26.48071515678179,81.21619951606976,-19.555460611979168,-88.87735154893663,-42.791358100043404,-0.0,-0.05441495687654703,0.03658936755491955,-0.010664198133680556,-0.0,-0.0,0.1165,0.0175,0.456,0.01086,-0.00705,0.0035,0.0009336521616205573,0.001000449643470347,0.0009531251853331923,0.00040806198376230896,0.0004944083630107343,0.0005558294942602515,0.011769188567996025,0.011828426271677017,0.00905721914023161,passive,0
0.3608,rehab,small_slow,-2.2667972821292577,-666.6462815526179,322.0293095560271,-177.38958558519116,0.1330963882463418,-149.98635478613812,0.0002,-0.0003,0.0,-0.0078,0.0019,-0.0128,77.22685710038289,26.48071515678179,81.2161927175994,-19.555460611979168,-88.87735154893663,-42.791358100043404,0.05441495687654703,-0.0,0.0005574745706992575,-0.054024590386284724,-0.0,-0.0,-0.0532,-0.1132,-0.1525,-0.00932,-0.0084,0.00331,0.0009336521616205573,0.001000449643470347,0.0009531251853331923,0.00040806198376230896,0.0004944083630107343,0.0005558294942602515,0.011769188567996025,0.011828426271677017,0.00905721914023161,passive,0
0.3811,rehab,small_slow,-2.2668657770882965,-666.6463049668589,322.02923283401174,-177.38958479541049,0.13310683426820435,-149.98635283516634,0.0009,-0.0001,-0.0003,-0.0038,0.0074,-0.0097,77.22685030191252,26.480721955252164,81.2161927175994,-19.555460611979168,-88.87734307183159,-42.79136657714844,-0.0,0.05441495687654703,0.0027669774423731437,-0.028067694769965276,-0.0,-0.0,-0.0644,-0.196,0.0642,0.00842,-0.00203,0.00623,0.0009336521616205573,0.001000449643470347,0.0009531251853331923,0.00040806198376230896,0.0004944083630107343,0.0005558294942602515,0.011769188567996025,0.011828426271677017,0.00905721914023161,passive,0
0.4008,rehab,small_slow,-2.2668612384540494,-666.6462847124164,322.02931001704377,-177.38957982576565,0.13310260234419044,-149.98636129646667,0.0001,0.0005,-0.0008,-0.0018,0.0075,-0.0045,77.22685030191252,26.48071515678179,81.2161927175994,-19.555460611979168,-88.87734307183159,-42.791358100043404,-0.0,-0.0,0.008253343034498763,-0.030085245768229164,-0.0,-0.0,0.043,-0.1068,0.0439,0.00966,-0.00764,0.0007,0.0009336521616205573,0.001000449643470347,0.0009531251853331923,0.00040806198376230896,0.0004944083630107343,0.0005558294942602515,0.011769188567996025,0.011828426271677017,0.00905721914023161,passive,0
0.4212,rehab,small_slow,-2.2668667702268595,-666.6463106731476,322.0291379797472,-177.38959604090059,0.13311798642129605,-149.98636968242232,-0.0007,0.0004,-0.0007,-0.0038,0.0067,0.0047,77.22685030191252,26.48072875372254,81.2161927175994,-19.55545213487413,-88.87734307183159,-42.79134962293837,0.05441495687654703,-0.05441495687654703,0.004942487962175124,0.027126736111111112,-0.0,-0.0,0.0069,-0.0796,0.4511,0.0038,-0.00541,0.00325,0.0009336521616205573,0.001000449643470347,0.0009531251853331923,0.00040806198376230896,0.0004944083630107343,0.0005558294942602515,0.011769188567996025,0.011828426271677017,0.00905721914023161,passive,0
0.4408,rehab,small_slow,-2.2668773766462342,-666.6462869899442,322.0292147017632,-177.3895967716601,0.13310638214424483,-149.9863530268684,-0.0008,0.0003,-0.0003,-0.0067,0.0058,0.0111,77.22685030191252,26.480721955252164,81.2161927175994,-19.55545213487413,-88.87735154893663,-42.79136657714844,-0.0,-0.0,-0.013800894859993812,0.007315741644965278,-0.0,-0.0,0.0295,-0.1513,0.042,-0.01127,-0.0036,-0.00467,0.0009336521616205573,0.001000449643470347,0.0009531251853331923,0.00040806198376230896,0.0004944083630107343,0.0005558294942602515,0.011769188567996025,0.011828426271677017,0.00905721914023161,passive,0
0.461,rehab,small_slow,-2.266796317193287,-666.646277728014,322.0291777740605,-177.38959557688287,0.1331056101019061,-149.9863547906333,-0.0002,0.0008,0.0001,-0.0086,-0.0001,0.0143,77.22685710038289,26.480721955252164,81.21619951606976,-19.555460611979168,-88.87735154893663,-42.791358100043404,0.05441495687654703,-0.0,-8.158164449257426e-05,-0.03274705674913194,-0.0,-0.0,0.1024,-0.0881,-0.64,0.00984,-0.01506,0.00183,0.0009336521616205573,0.001000449643470347,0.0009531251853331923,0.00040806198376230896,0.0004944083630107343,0.0005558294942602515,0.011769188567996025,0.011828426271677017,0.00905721914023161,passive,0
0.4808,rehab,small_slow,-2.2668421471878757,-666.6462017517484,322.02926033096315,-177.38959103834466,0.13311256791175888,-149.98635271959583,0.0002,0.0005,0.0004,-0.0012,-0.0072,0.0172,77.22685030191252,26.480708358311418,81.21620631454014,-19.55545213487413,-88.87734307183159,-42.79136657714844,0.05441495687654703,-0.0,-0.025025169448097153,-0.0022633870442708335,-0.0,-0.0,0.2107,-0.1352,0.4538,0.01445,-0.00976,-0.00279,0.0009336521616205573,0.001000449643470347,0.0009531251853331923,0.00040806198376230896,0.0004944083630107343,0.0005558294942602515,0.011769188567996025,0.011828426271677017,0.00905721914023161,passive,0
0.5006,rehab,small_slow,-2.2669499813090828,-666.6462569356232,322.0292549570895,-177.38959056789247,0.13310060600639737,-149.98635991221195,-0.0004,0.0002,0.0007,0.0086,-0.0087,0.0178,77.22684350344214,26.48071515678179,81.21619951606976,-19.555460611979168,-88.87735154893663,-42.79136657714844,-0.0,-0.0,-0.0005574745706992575,-0.009969075520833334,-0.0,-0.0,0.0778,-0.2456,-0.1425,0.0051,-0.01563,-0.00088,0.0009336521616205573,0.001000449643470347,0.0009531251853331923,0.00040806198376230896,0.0004944083630107343,0.0005558294942602515,0.011769188567996025,0.011828426271677017,0.00905721914023161,passive,0
0.5206,rehab,small_slow,-2.26686733444287,-666.646242656462,322.0292372858576,-177.38959680438876,0.13310675406387407,-149.98636148563372,-0.0006,0.0003,0.0009,0.0075,-0.0062,0.0109,77.22685030191252,26.48071515678179,81.21619951606976,-19.55545213487413,-88.87735154893663,-42.791358100043404,0.05441495687654703,-0.0,0.021761903668394183,0.0031534830729166665,-0.0,-0.0,0.0431,-0.105,-0.0879,0.00117,-0.01384,0.00121,0.0009336521616205573,0.001000449643470347,0.0009531251853331923,0.00040806198376230896,0.0004944083630107343,0.0005558294942602515,0.011769188567996025,0.011828426271677017,0.00905721914023161,passive,0
0.5409,rehab,small_slow,-2.266946435814216,-666.6462423874805,322.0292372858576,-177.38959684373526,0.13310752623269312,-149.9863852207668,-0.0004,-0.0,0.0009,0.0032,-0.0055,0.003,77.22684350344214,26.48071515678179,81.21619951606976,-19.55545213487413,-88.87735154893663,-42.791341145833336,-0.0,-0.0,2.0395411123143566e-05,0.017954508463541668,-0.0,-0.0,-0.1862,-0.0475,-0.2928,-0.01134,-0.00179,0.00242,0.0009336521616205573,0.001000449643470347,0.0009531251853331923,0.00040806198376230896,0.0004944083630107343,0.0005558294942602515,0.011769188567996025,0.011828426271677017,0.00905721914023161,passive,0
0.5609,rehab,small_slow,-2.266780148948104,-666.6462081228464,322.0292967976509,-177.38959801222137,0.13310751194162126,-149.98634611536215,-0.0004,-0.0004,0.0012,0.0018,-0.0018,0.0024,77.22684350344214,26.48071515678179,81.2161927175994,-19.55545213487413,-88.87735154893663,-42.791358100043404,-0.0,-0.0,-0.0016452298306002474,-0.00032212999131944444,-0.0,-0.0,0.0177,-0.166,-0.5632,-0.00315,-0.00152,0.00358,0.0009336521616205573,0.001000449643470347,0.0009531251853331923,0.00040806198376230896,0.0004944083630107343,0.0005558294942602515,0.011769188567996025,0.011828426271677017,0.00905721914023161,passive,0
0.5808,rehab,small_slow,-2.2669468365446392,-666.6463142287764,322.02926976171574,-177.38958606888113,0.13310915065313572,-149.98638494472664,0.0006,-0.0003,0.0015,0.0022,0.0032,0.0001,77.22684350344214,26.480721955252164,81.21618591912902,-19.55545213487413,-88.87734307183159,-42.791341145833336,-0.0,-0.0,-0.02431812852916151,0.030331081814236112,0.06785074869791667,0.06785074869791667,-0.0874,-0.1139,-0.7746,-0.01043,0.00252,0.00478,0.0009336521616205573,0.001000449643470347,0.0009531251853331923,0.00040806198376230896,0.0004944083630107343,0.0005558294942602515,0.011769188567996025,0.011828426271677017,0.00905721914023161,passive,0
0.6008,rehab,small_slow,-2.266935400462096,-666.646192347692,322.0293547241998,-177.3895856113022,0.13309635991678795,-149.98636836394684,0.0004,0.0002,0.0012,0.0018,0.0026,-0.0063,77.22684350344214,26.48071515678179,81.2161927175994,-19.55545213487413,-88.87734307183159,-42.79136657714844,-0.0,-0.0,0.015928816087175123,-0.003178914388020833,-0.0,-0.0,-0.0525,-0.0265,0.0903,-0.00419,0.00086,0.00218,0.0009336521616205573,0.001000449643470347,0.0009531251853331923,0.00040806198376230896,0.0004944083630107343,0.0005558294942602515,0.011769188567996025,0.011828426271677017,0.00905721914023161,passive,0
0.6206,rehab,small_slow,-2.2668682993767235,-666.6462464810546,322.0293690678211,-177.3895868126971,0.13309753220830556,-149.98636148113837,-0.0002,0.0003,0.0003,-0.0024,0.0022,-0.0092,77.22685710038289,26.480708358311418,81.2161927175994,-19.55545213487413,-88.87735154893663,-42.79134962293837,-0.0,-0.0,-0.01848504094794245,-0.00213623046875,-0.0,-0.0,-0.0158,0.0446,0.1281,-0.00237,-0.00661,-0.00052,0.0009336521616205573,0.001000449643470347,0.0009531251853331923,0.00040806198376230896,0.0004944083630107343,0.0005558294942602515,0.011769188567996025,0.011828426271677017,0.00905721914023161,passive,0
0.6408,rehab,small_slow,-2.266888947994634,-666.6462671313122,322.02942320574834,-177.38958758941925,0.1330871003508181,-149.9863702401472,-0.0001,0.0002,0.001,-0.0068,0.0028,-0.0112,77.22684350344214,26.48071515678179,81.21618591912902,-19.55545213487413,-88.87735154893663,-42.791341145833336,-0.0,-0.0,-0.017587642858524134,0.05052354600694444,-0.0,-0.0,-0.0287,-0.0691,-0.5021,0.01811,-0.0023,0.00278,0.0009336521616205573,0.001000449643470347,0.0009531251853331923,0.00040806198376230896,0.0004944083630107343,0.0005558294942602515,0.011769188567996025,0.011828426271677017,0.00905721914023161,passive,0
0.6609,rehab,small_slow,-2.2669171106472086,-666.6462530696197,322.02936998985683,-177.38957529384604,0.13310996040397657,-149.98636770332476,-0.0006,0.0003,0.001,-0.0095,-0.0008,-0.0111,77.22685030191252,26.480708358311418,81.21619951606976,-19.55545213487413,-88.87734307183159,-42.791358100043404,-0.0,-0.0,-0.004527781269337871,-0.0032212999131944445,0.06785074869791667,-0.0,0.0012,-0.009,0.0497,0.01328,-0.00517,0.00256,0.0009336521616205573,0.001000449643470347,0.0009531251853331923,0.00040806198376230896,0.0004944083630107343,0.0005558294942602515,0.011769188567996025,0.011828426271677017,0.00905721914023161,passive,0
0.681,rehab,small_slow,-2.2667827012961177,-666.646216964677,322.0294093231404,-177.38958060892858,0.13309175607137796,-149.98635476954215,-0.0004,0.0,-0.0,-0.0035,-0.0054,-0.0042,77.22685030191252,26.480708358311418,81.2161927175994,-19.55545213487413,-88.87735154893663,-42.791358100043404,0.05441495687654703,-0.0,0.019151291044631806,-0.014182196723090278,-0.06785074869791667,-0.0,-0.0511,-0.0553,-0.0415,-0.005,-0.01364,-0.0023,0.0009336521616205573,0.001000449643470347,0.0009531251853331923,0.00040806198376230896,0.0004944083630107343,0.0005558294942602515,0.011769188567996025,0.011828426271677017,0.00905721914023161,passive,0
0.7009,rehab,small_slow,-2.2670119494739582,-666.6461832368622,322.02924219871676,-177.3896030342683,0.13311250187127416,-149.98637497656998,-0.0002,-0.0002,-0.0001,0.0086,-0.006,-0.0001,77.22684350344214,26.48070155984104,81.21619951606976,-19.55545213487413,-88.87736002604167,-42.79136657714844,-0.0,-0.0,0.007335549533957302,0.029635959201388888,-0.0,-0.0,0.0313,0.0131,-0.4929,0.00415,0.00177,0.0085,0.0009336521616205573,0.001000449643470347,0.0009531251853331923,0.00040806198376230896,0.0004944083630107343,0.0005558294942602515,0.011769188567996025,0.011828426271677017,0.00905721914023161,passive,0
0.721,rehab,small_slow,-2.2668844093554266,-666.6462468768476,322.0295003887768,-177.38958260010045,0.13308248234138267,-149.98637023311804,-0.0005,0.0,0.0003,0.0136,-0.0027,-0.0024,77.22685030191252,26.48070155984104,81.21619951606976,-19.55545213487413,-88.87736002604167,-42.791358100043404,-0.0,-0.0,-0.04332665169593131,-0.00881618923611111,0.06785074869791667,0.06785074869791667,-0.0098,0.0362,0.1866,0.00181,-0.00421,0.0041,0.0009336521616205573,0.001000449643470347,0.0009531251853331923,0.00040806198376230896,0.0004944083630107343,0.0005558294942602515,0.011769188567996025,0.011828426271677017,0.00905721914023161,passive,0
0.7411,rehab,small_slow,-2.266951911169551,-666.6462645847721,322.02951852103024,-177.3895706041814,0.13308254838059408,-149.98636837155615,-0.0002,-0.0001,0.0002,0.0162,-0.0007,0.0052,77.22684350344214,26.480708358311418,81.2161927175994,-19.555460611979168,-88.87735154893663,-42.791358100043404,-0.0,-0.0,-0.002209502871673886,-0.0274658203125,-0.0,-0.0,0.086,0.0346,0.5181,0.01492,-0.00482,0.00241,0.0009336521616205573,0.001000449643470347,0.0009531251853331923,0.00040806198376230896,0.0004944083630107343,0.0005558294942602515,0.011769188567996025,0.011828426271677017,0.00905721914023161,passive,0
0.761,rehab,small_slow,-2.2670209985463936,-666.6462218640477,322.0293144688824,-177.3895918150707,0.13310213605370153,-149.9863750755436,0.0002,-0.0003,0.0007,0.0108,0.0013,0.0178,77.22684350344214,26.480708358311418,81.21620631454014,-19.555460611979168,-88.87735154893663,-42.79134962293837,-0.05441495687654703,-0.0,0.002828163675742574,-0.022786458333333332,-0.0,-0.0,-0.025,-0.0619,0.0343,0.00623,-0.01601,-0.00089,0.0009336521616205573,0.001000449643470347,0.0009531251853331923,0.00040806198376230896,0.0004944083630107343,0.0005558294942602515,0.011769188567996025,0.011828426271677017,0.00905721914023161,passive,0
0.781,rehab,small_slow,-2.2667624533925013,-666.6462681557053,322.0293876610923,-177.3895690770221,0.13310419843178714,-149.98635420282278,0.0011,-0.0002,0.0008,-0.0018,0.0045,0.0149,77.22685710038289,26.480708358311418,81.21618591912902,-19.555460611979168,-88.87735154893663,-42.791358100043404,-0.0,0.05441495687654703,-0.022577720113319925,-0.027279324001736112,-0.0,-0.06785074869791667,-0.0353,-0.0491,0.4423,0.00063,-0.00195,0.00095,0.0009336521616205573,0.001000449643470347,0.0009531251853331923,0.00040806198376230896,0.0004944083630107343,0.0005558294942602515,0.011769188567996025,0.011828426271677017,0.00905721914023161,passive,0
0.8009,rehab,small_slow,-2.266933220625812,-666.6462534654108,322.029501310808,-177.38957106157997,0.13309452445050718,-149.98636798697225,0.001,0.0001,0.0005,-0.0063,0.0042,0.0058,77.22684350344214,26.48070155984104,81.21618591912902,-19.55545213487413,-88.87734307183159,-42.791358100043404,-0.05441495687654703,0.05441495687654703,-0.024331725469910272,0.007739596896701389,-0.0,-0.0,0.0012,0.0403,-0.0394,0.00624,-0.00886,0.00857,0.0009336521616205573,0.001000449643470347,0.0009531251853331923,0.00040806198376230896,0.0004944083630107343,0.0005558294942602515,0.011769188567996025,0.011828426271677017,0.00905721914023161,passive,0
0.8209,rehab,small_slow,-2.2669409040326562,-666.646216426725,322.0294093231404,-177.38958060892858,0.133091756071378,-149.9863683664829,0.0005,0.0002,0.0014,-0.0124,0.0037,0.0014,77.22684350344214,26.48070155984104,81.21619951606976,-19.555460611979168,-88.87735154893663,-42.791358100043404,-0.0,-0.0,0.010537629080290841,-0.022633870442708332,-0.0,0.06785074869791667,-0.1159,-0.1738,-0.6503,-0.01283,-0.00472,0.00699,0.0009336521616205573,0.001000449643470347,0.0009531251853331923,0.00040806198376230896,0.0004944083630107343,0.0005558294942602515,0.011769188567996025,0.011828426271677017,0.00905721914023161,passive,0
0.841,rehab,small_slow,-2.2668033499111315,-666.6462376149353,322.02946346106944,-177.38958136598043,0.1330809381281665,-149.9863550602209,0.0,0.0001,0.0021,-0.0219,0.0043,-0.0045,77.22685710038289,26.48070155984104,81.2161927175994,-19.555460611979168,-88.87736002604167,-42.791358100043404,0.05441495687654703,-0.0,-0.02093928875309406,-0.001110500759548611,-0.0,-0.0,0.0549,-0.0394,0.3494,-0.00913,-0.00108,0.00142,0.0009336521616205573,0.001000449643470347,0.0009531251853331923,0.00040806198376230896,0.0004944083630107343,0.0005558294942602515,0.011769188567996025,0.011828426271677017,0.00905721914023161,passive,0
0.861,rehab,small_slow,-2.2668682711538826,-666.6462445992785,322.02959570405767,-177.38956561486333,0.13307793037042898,-149.986361566057,-0.0014,0.0003,0.0009,-0.022,0.0035,-0.0111,77.22685030191252,26.480694761370668,81.21618591912902,-19.555460611979168,-88.87735154893663,-42.791358100043404,0.05441495687654703,-0.0,0.00572431205522896,-0.002856784396701389,-0.0,-0.0,0.1146,-0.0279,0.3134,0.00766,-0.00684,0.00531,0.0009336521616205573,0.001000449643470347,0.0009531251853331923,0.00040806198376230896,0.0004944083630107343,0.0005558294942602515,0.011769188567996025,0.011828426271677017,0.00905721914023161,passive,0
0.8807,rehab,small_slow,-2.266867306230666,-666.6462407747331,322.02946392208383,-177.38957560655498,0.13308715222599377,-149.98636157054895,-0.001,0.0004,0.0001,-0.011,0.0026,-0.0203,77.22685030191252,26.48070155984104,81.2161927175994,-19.555460611979168,-88.87735154893663,-42.791358100043404,-0.0,-0.05441495687654703,0.016601864654238862,-0.013147989908854166,0.06785074869791667,-0.0,-0.1236,0.0668,-0.0145,-0.00739,0.00189,0.00575,0.0009336521616205573,0.001000449643470347,0.0009531251853331923,0.00040806198376230896,0.0004944083630107343,0.0005558294942602515,0.011769188567996025,0.011828426271677017,0.00905721914023161,passive,0
0.9009,rehab,small_slow,-2.266946379370853,-666.6462386239408,322.0296905583276,-177.38955438905379,0.1330671642974838,-149.9863599856108,-0.0005,0.0002,0.0003,0.0049,0.0021,-0.0296,77.22684350344214,26.480687962900294,81.21618591912902,-19.555469089084202,-88.87735154893663,-42.79136657714844,0.05441495687654703,-0.0,-0.016064785494662746,-0.022947523328993056,-0.0,-0.0,0.0379,-0.0153,-1.145,0.00657,0.00558,0.00758,0.0009336521616205573,0.001000449643470347,0.0009531251853331923,0.00040806198376230896,0.0004944083630107343,0.0005558294942602515,0.011769188567996025,0.011828426271677017,0.00905721914023161,passive,0
0.9211,rehab,small_slow,-2.266938323466108,-666.6462057031484,322.02952343386926,-177.38957683406093,0.1330882961879378,-149.98636826554903,-0.0013,0.0003,-0.0001,0.0172,0.0006,-0.0231,77.22684350344214,26.480694761370668,81.2161927175994,-19.55545213487413,-88.87735154893663,-42.791358100043404,0.05441495687654703,-0.0,0.0005574745706992575,-0.00213623046875,-0.0,-0.0,0.0503,0.0715,0.3046,0.00754,-0.00081,0.00389,0.0009336521616205573,0.001000449643470347,0.0009531251853331923,0.00040806198376230896,0.0004944083630107343,0.0005558294942602515,0.011769188567996025,0.011828426271677017,0.00905721914023161,passive,0
0.9409,rehab,small_slow,-2.267033563032274,-666.646207711711,322.02942811859714,-177.38959379962856,0.1330924620723546,-149.98637526275,-0.0007,0.0004,-0.0006,0.0216,-0.0021,-0.0048,77.22683670497176,26.48070155984104,81.2161927175994,-19.555443657769096,-88.87736002604167,-42.791358100043404,-0.0,0.05441495687654703,-0.008443700204981435,0.001034206814236111,-0.0,-0.06785074869791667,0.1011,-0.1354,-0.1387,0.00239,-0.01193,0.00141,0.0009336521616205573,0.001000449643470347,0.0009531251853331923,0.00040806198376230896,0.0004944083630107343,0.0005558294942602515,0.011769188567996025,0.011828426271677017,0.00905721914023161,passive,0
0.961,rehab,small_slow,-2.266934777972532,-666.6461911550115,322.0295057626324,-177.3895830312137,0.13309367207361567,-149.98635970077729,0.0004,0.0005,-0.0012,0.0147,-0.0035,0.0076,77.22684350344214,26.480694761370668,81.2161927175994,-19.555443657769096,-88.87735154893663,-42.79136657714844,-0.0,-0.0,-0.027085105971534653,0.0031958685980902775,-0.0,-0.06785074869791667,0.1337,-0.0665,-0.0755,-0.00059,-0.00601,0.00248,0.0009336521616205573,0.001000449643470347,0.0009531251853331923,0.00040806198376230896,0.0004944083630107343,0.0005558294942602515,0.011769188567996025,0.011828426271677017,0.00905721914023161,passive,0
0.9808,rehab,small_slow,-2.2669402815397306,-666.6462152340295,322.02956036157826,-177.3895780485114,0.13308945431464828,-149.98636817164473,0.0007,0.0004,-0.0016,0.0058,-0.0037,0.0106,77.22684350344214,26.480694761370668,81.21618591912902,-19.555443657769096,-88.87735154893663,-42.791358100043404,-0.0,-0.0,0.0006458546855662129,0.00851101345486111,0.06785074869791667,-0.06785074869791667,-0.0672,-0.0986,0.1174,-0.01189,0.00464,0.00154,0.0009336521616205573,0.001000449643470347,0.0009531251853331923,0.00040806198376230896,0.0004944083630107343,0.0005558294942602515,0.011769188567996025,0.011828426271677017,0.00905721914023161,passive,0
1.0007,rehab,small_slow,-2.2669363653914165,-666.6461961722625,322.0294865061619,-177.38957563928085,0.13308752414875938,-149.9863768277845,0.0009,0.0,-0.0,0.0029,-0.0059,0.0136,77.22684350344214,26.480694761370668,81.21619951606976,-19.555460611979168,-88.87735154893663,-42.79134962293837,-0.0,-0.0,0.0022978829865408414,-0.00881618923611111,-0.0,-0.0,-0.0537,-0.0371,-0.6066,-0.00384,-0.00719,0.0086,0.0009336521616205573,0.001000449643470347,0.0009531251853331923,0.00040806198376230896,0.0004944083630107343,0.0005558294942602515,0.011769188567996025,0.011828426271677017,0.00905721914023161,passive,0
1.0208,rehab,small_slow,-2.2669515104421722,-666.6461927434892,322.0294860451475,-177.38958137903595,0.13308092396339047,-149.9863686475956,0.0004,-0.0002,0.001,-0.0058,-0.0085,0.0156,77.22684350344214,26.480694761370668,81.21619951606976,-19.555460611979168,-88.87736002604167,-42.791358100043404,-0.05441495687654703,-0.0,0.007539503645188738,-0.003204345703125,-0.0,-0.0,-0.1095,-0.0107,-0.3594,-0.01385,-0.00139,0.00868,0.0009336521616205573,0.001000449643470347,0.0009531251853331923,0.00040806198376230896,0.0004944083630107343,0.0005558294942602515,0.011769188567996025,0.011828426271677017,0.00905721914023161,passive,0
1.0407,rehab,small_slow,-2.2668537185338438,-666.646181893106,322.0294688349247,-177.38958183643453,0.13309290003333635,-149.9863614645423,-0.0003,-0.0001,0.0006,-0.0163,-0.0087,0.0142,77.22685030191252,26.480694761370668,81.21619951606976,-19.55545213487413,-88.87735154893663,-42.791358100043404,-0.05441495687654703,-0.0,-0.009517858524133664,-0.019946628146701388,-0.06785074869791667,-0.0,-0.0581,0.0779,-0.0817,-0.00405,-0.01218,0.00784,0.0009336521616205573,0.001000449643470347,0.0009531251853331923,0.00040806198376230896,0.0004944083630107343,0.0005558294942602515,0.011769188567996025,0.011828426271677017,0.00905721914023161,passive,0
1.0607,rehab,small_slow,-2.2669318549677024,-666.6461777995517,322.0293370529661,-177.38959184779875,0.13310250797406856,-149.98637673583855,-0.0004,-0.0002,0.0005,-0.0142,-0.0064,0.0085,77.22684350344214,26.48070155984104,81.21620631454014,-19.55545213487413,-88.87735154893663,-42.79134962293837,-0.0,0.05441495687654703,0.007825039400912748,0.012012057834201388,0.06785074869791667,0.06785074869791667,0.057,-0.0987,-0.4224,-0.00623,-0.00411,-0.00141,0.0009336521616205573,0.001000449643470347,0.0009531251853331923,0.00040806198376230896,0.0004944083630107343,0.0005558294942602515,0.011769188567996025,0.011828426271677017,0.00905721914023161,passive,0
1.0811,rehab,small_slow,-2.2669276888285594,-666.646227504586,322.02967334809955,-177.38955486611982,0.13307952645797078,-149.9863680693545,-0.0004,-0.0004,0.0004,0.0042,-0.0017,-0.0095,77.22684350344214,26.480687962900294,81.21618591912902,-19.555460611979168,-88.87734307183159,-42.791358100043404,-0.05441495687654703,-0.0,-0.0009245919709158415,-0.006688435872395833,-0.0,-0.0,-0.0666,-0.1503,-0.9841,-0.00767,0.00253,0.00245,0.0009336521616205573,0.001000449643470347,0.0009531251853331923,0.00040806198376230896,0.0004944083630107343,0.0005558294942602515,0.011769188567996025,0.011828426271677017,0.00905721914023161,passive,0
1.1009,rehab,small_slow,-2.2669589720836263,-666.6462263533911,322.02957757180246,-177.38957759111278,0.13307747824472368,-149.98636855622846,-0.0005,-0.0006,0.0003,0.0722,0.0014,-0.0303,77.22684350344214,26.480694761370668,81.21618591912902,-19.55545213487413,-88.87736002604167,-42.791358100043404,-0.0,-0.0,-0.023250768680383664,-0.030339558919270832,-0.06785074869791667,-0.06785074869791667,-0.1129,0.1075,-0.079,-0.00711,0.01377,0.00359,0.0009336521616205573,0.001000449643470347,0.0009531251853331923,0.00040806198376230896,0.0004944083630107343,0.0005558294942602515,0.011769188567996025,0.011828426271677017,0.00905721914023161,passive,0
1.1206,rehab,small_slow,-2.267005825277479,-666.6462234110677,322.029541566125,-177.38956483814096,0.13308836222446505,-149.98636640398598,-0.0008,-0.0006,0.0003,0.0554,-0.0077,-0.0351,77.22683670497176,26.480694761370668,81.2161927175994,-19.555460611979168,-88.87734307183159,-42.79136657714844,-0.05441495687654703,0.05441495687654703,-0.024304531588412746,0.020243326822916668,0.06785074869791667,-0.0,-0.1155,-0.0062,-0.2873,-0.00164,0.01087,0.00736,0.0009336521616205573,0.001000449643470347,0.0009531251853331923,0.00040806198376230896,0.0004944083630107343,0.0005558294942602515,0.011769188567996025,0.011828426271677017,0.00905721914023161,passive,0
1.1409,rehab,small_slow,-2.2669402815397306,-666.6462152340295,322.02956036157826,-177.3895780485114,0.13308945431464828,-149.98636817164473,-0.0004,-0.0004,0.0005,-0.1403,-0.0091,0.0354,77.22684350344214,26.480694761370668,81.21618591912902,-19.555443657769096,-88.87735154893663,-42.791358100043404,-0.0,-0.05441495687654703,0.002495038627397896,0.03265380859375,0.06785074869791667,-0.06785074869791667,0.007,-0.0706,-0.3042,-0.01462,-0.01327,-0.00414,0.0009336521616205573,0.001000449643470347,0.0009531251853331923,0.00040806198376230896,0.0004944083630107343,0.0005558294942602515,0.011769188567996025,0.011828426271677017,0.00905721914023161,passive,0
1.1609,rehab,small_slow,-2.266934808044008,-666.6462584826588,322.02948205434,-177.38956363030553,0.13308760435165093,-149.98636817731702,0.0001,-0.0001,0.0001,-0.4914,0.0318,0.2088,77.22684350344214,26.48070155984104,81.2161927175994,-19.555469089084202,-88.87734307183159,-42.791358100043404,-0.0,-0.0,0.024331725469910272,-0.00274658203125,-0.0,-0.0,0.0014,0.0088,-0.3243,0.00619,-0.00265,0.00665,0.0009336521616205573,0.001000449643470347,0.0009531251853331923,0.00040806198376230896,0.0004944083630107343,0.0005558294942602515,0.011769188567996025,0.011828426271677017,0.00905721914023161,passive,0
1.181,rehab,small_slow,-2.2670103639226267,-666.646243665536,322.02946438310056,-177.38956986680077,0.1330937524121873,-149.98638334767796,-0.0002,0.0001,-0.0001,-0.8647,0.0874,0.315,77.22683670497176,26.48070155984104,81.2161927175994,-19.555460611979168,-88.87734307183159,-42.79134962293837,-0.0,-0.0,-0.005785498288598391,-0.0005425347222222222,0.06785074869791667,-0.0,-0.1404,-0.0197,0.2237,-0.01063,0.00905,0.0006,0.0009336521616205573,0.001000449643470347,0.0009531251853331923,0.00040806198376230896,0.0004944083630107343,0.0005558294942602515,0.011769188567996025,0.011828426271677017,0.00905721914023161,passive,0
1.2007,rehab,small_slow,-2.266947372525425,-666.6462443302969,322.02959570405767,-177.38956559519443,0.13307754428140556,-149.98635989619632,-0.0053,-0.0001,0.0025,-0.7978,0.0892,0.2407,77.22684350344214,26.480694761370668,81.21618591912902,-19.555460611979168,-88.87735154893663,-42.79136657714844,-0.0,-0.0,-0.02684036103805693,-0.0032297770182291665,-0.0,-0.0,-0.1875,-0.1583,-0.2369,-0.03044,0.00122,0.00038,0.0009336521616205573,0.001000449643470347,0.0009531251853331923,0.00040806198376230896,0.0004944083630107343,0.0005558294942602515,0.011769188567996025,0.011828426271677017,0.00905721914023161,passive,0
1.2207,rehab,small_slow,-2.2670264738969568,-666.6462440613059,322.02959570405767,-177.38956559519443,0.13307754428140556,-149.98636669466666,-0.0355,-0.0,0.0098,0.1586,0.0151,-0.1076,77.22683670497176,26.480694761370668,81.21618591912902,-19.555460611979168,-88.87735154893663,-42.79136657714844,0.05441495687654703,-0.05441495687654703,-0.005785498288598391,-0.05085415310329861,-0.0,-0.06785074869791667,-0.1319,-0.0806,-0.4396,-0.00783,-0.00575,0.00302,0.0009336521616205573,0.001000449643470347,0.0009531251853331923,0.00040806198376230896,0.0004944083630107343,0.0005558294942602515,0.011769188567996025,0.011828426271677017,0.00905721914023161,passive,0
1.2409,rehab,small_slow,-2.266924143336463,-666.6462129564557,322.02965567685703,-177.38956106327385,0.13308490234040218,-149.98635950458197,-0.0435,0.0048,0.0216,1.958,-0.114,-0.6825,77.22684350344214,26.480687962900294,81.21618591912902,-19.55545213487413,-88.87734307183159,-42.79136657714844,-0.05441495687654703,-0.0,0.024066585125309407,-0.007536146375868055,-0.0,-0.0,0.0429,-0.0962,0.1684,-0.00253,-0.00289,-0.00267,0.0009336521616205573,0.001000449643470347,0.0009531251853331923,0.00040806198376230896,0.0004944083630107343,0.0005558294942602515,0.011769188567996025,0.011828426271677017,0.00905721914023161,passive,0
1.2606,rehab,small_slow,-2.267038073453024,-666.6462260843989,322.02957757180246,-177.38957761078169,0.13307786433197416,-149.98638382303,-0.0292,0.0073,0.0132,3.9227,-0.2872,-1.1177,77.22683670497176,26.480694761370668,81.21618591912902,-19.55545213487413,-88.87736002604167,-42.79134962293837,-0.0,-0.0,0.005425179358756188,-0.020480685763888888,-0.0,-0.0,-0.016,-0.1926,-0.6425,0.00248,-0.00369,0.00467,0.0009336521616205573,0.001000449643470347,0.0009531251853331923,0.00040806198376230896,0.0004944083630107343,0.0005558294942602515,0.011769188567996025,0.011828426271677017,0.00905721914023161,passive,0
1.2809,rehab,small_slow,-2.2670119212620214,-666.646181355137,322.0294688349247,-177.38958183643453,0.1330929000333364,-149.98637506148307,0.0688,-0.0002,-0.0311,5.3935,-0.4428,-1.0891,77.22683670497176,26.480694761370668,81.21619951606976,-19.55545213487413,-88.87735154893663,-42.791358100043404,-0.0,-0.0,0.005357194655012376,-0.007434421115451389,-0.0,-0.0,-0.0863,-0.1466,-0.3066,-0.00267,-0.0173,0.00527,0.0009336521616205573,0.001000449643470347,0.0009531251853331923,0.00040806198376230896,0.0004944083630107343,0.0005558294942602515,0.011769188567996025,0.011828426271677017,0.00905721914023161,passive,0
1.3006,rehab,small_slow,-2.2670164316807258,-666.6461997278157,322.02961828813056,-177.3895656475878,0.13307830229466427,-149.98638362176288,0.2487,-0.0145,-0.0808,-6.7337,-2.3945,8.6758,77.22683670497176,26.480687962900294,81.2161927175994,-19.555460611979168,-88.87735154893663,-42.79134962293837,0.05441495687654703,-0.0,8.838011486695544e-05,-0.030339558919270832,-0.0,-0.0,-0.0418,-0.0438,-0.6079,-0.00037,-0.01139,0.004,0.0009336521616205573,0.001000449643470347,0.0009531251853331923,0.00040806198376230896,0.0004944083630107343,0.0005558294942602515,0.011769188567996025,0.011828426271677017,0.00905721914023161,passive,0
1.321,rehab,small_slow,-2.2645903999976,-666.6460476244654,322.0286322458915,-177.3896398608739,0.1331582487320891,-149.98617938679928,0.4763,-0.027,-0.1523,3.8267,-0.4024,-0.0717,77.227040659083,26.480721955252164,81.21626750077351,-19.555460611979168,-88.87734307183159,-42.79134962293837,-0.0,-0.05441495687654703,-0.025514659315052597,-0.02335442437065972,0.06785074869791667,0.06785074869791667,0.0478,0.0029,-0.393,0.00136,-0.01568,0.00305,0.0009336521616205573,0.001000449643470347,0.0009531251853331923,0.00040806198376230896,0.0004944083630107343,0.0005558294942602515,0.011769188567996025,0.011828426271677017,0.00905721914023161,passive,0
1.3409,rehab,small_slow,-2.249543766565067,-666.6459638968332,322.02488729527914,-177.38993037036184,0.1334144643574178,-149.98487962146442,0.6537,-0.0351,-0.1923,61.8579,10.2786,-47.3974,77.22833236845413,26.48091231242265,81.21646465641437,-19.555460611979168,-88.87735154893663,-42.791358100043404,0.05441495687654703,0.05441495687654703,0.00010877552599009901,-0.02289666069878472,0.06785074869791667,-0.0,-0.0132,0.0072,-0.3211,-0.00878,-0.00586,0.0003,0.0009336521616205573,0.001000449643470347,0.0009531251853331923,0.00040806198376230896,0.0004944083630107343,0.0005558294942602515,0.011769188567996025,0.011828426271677017,0.00905721914023161,passive,0
1.3607,rehab,small_slow,-2.236649945385183,-666.6477805014665,322.01637869353897,-177.39050674057893,0.13394766763812102,-149.98373798062553,0.8028,-0.0362,-0.2356,88.0638,11.3269,-69.2294,77.22947451147702,26.481605756400835,81.21653943958849,-19.555443657769096,-88.87735154893663,-42.791358100043404,0.05441495687654703,-0.0,0.026813167156559407,0.010867648654513888,-0.0,-0.0,-0.0059,-0.0348,-0.0084,0.00423,-0.01576,0.00214,0.0009336521616205573,0.001000449643470347,0.0009531251853331923,0.00040806198376230896,0.0004944083630107343,0.0005558294942602515,0.011769188567996025,0.011828426271677017,0.00905721914023161,passive,0
1.3807,rehab,small_slow,-2.2027135445046677,-666.6490278945568,322.0083395100113,-177.3910539074239,0.13446496861919752,-149.98080139921598,0.9504,-0.0129,-0.3385,46.0626,-5.04,-25.2632,77.23241145067875,26.48219042485303,81.21671619981822,-19.55545213487413,-88.87734307183159,-42.791358100043404,0.10882991375309406,0.05441495687654703,0.0025154340385210396,-0.016360812717013888,-0.0,0.06785074869791667,-0.1426,-0.1032,0.3552,-0.00427,-0.00223,0.00414,0.0009336521616205573,0.001000449643470347,0.0009531251853331923,0.00040806198376230896,0.0004944083630107343,0.0005558294942602515,0.011769188567996025,0.011828426271677017,0.00905721914023161,passive,0
1.4012,rehab,small_slow,-2.18315701597934,-666.649665139876,322.0002891964423,-177.39163893006702,0.13499349131401384,-149.97910084904507,1.3502,0.0209,-0.6742,-49.8161,-21.5953,73.6387,77.23410426980197,26.482707108601485,81.2169881386332,-19.55545213487413,-88.87735154893663,-42.79136657714844,0.10882991375309406,0.10882991375309406,-0.01458271895304765,-0.050116644965277776,-0.0,-0.0,0.0095,0.0407,0.2943,0.00339,-0.00517,0.00515,0.0009336521616205573,0.001000449643470347,0.0009531251853331923,0.00040806198376230896,0.0004944083630107343,0.0005558294942602515,0.011769188567996025,0.011828426271677017,0.00905721914023161,passive,0
1.4209,rehab,small_slow,-2.152136969561444,-666.6484322204739,321.9860591168067,-177.39274753195005,0.13602803772933947,-149.9764715749018,8.3572,1.023,-5.9764,-162.233,-26.0743,167.5639,77.23674207630724,26.483325769405553,81.21788553672262,-19.55545213487413,-88.87734307183159,-42.791358100043404,0.16324487062964108,-0.0,0.022054237894492575,0.0002627902560763889,-0.0,-0.0,-0.0152,-0.0789,-0.5718,0.00868,-0.00658,0.00893,0.0009336521616205573,0.001000449643470347,0.0009531251853331923,0.00040806198376230896,0.0004944083630107343,0.0005558294942602515,0.011769188567996025,0.011828426271677017,0.00905721914023161,passive,0
1.4406,rehab,small_slow,-2.1284984952963404,-666.6478364243776,321.97345177031224,-177.39371636018836,0.13691048247231266,-149.97445323896642,6.3035,0.4463,-4.1012,-228.8042,-20.5231,185.8105,77.23876122200843,26.48393763173925,81.21859257764156,-19.555460611979168,-88.87735154893663,-42.791358100043404,0.10882991375309406,0.05441495687654703,0.05437416605430074,-0.018437703450520832,0.06785074869791667,-0.0,-0.1718,-0.0122,-0.6425,-0.00609,0.00761,0.00839,0.0009336521616205573,0.001000449643470347,0.0009531251853331923,0.00040806198376230896,0.0004944083630107343,0.0005558294942602515,0.011769188567996025,0.011828426271677017,0.00905721914023161,passive,0
1.4608,rehab,small_slow,-2.0595020936219095,-666.6448898854622,321.93072669753735,-177.39703492102754,0.1399607114603874,-149.96858783804805,-5.8968,-2.4472,6.6184,-230.5716,-10.2546,127.5402,77.24462830194152,26.485902389677445,81.22113520556157,-19.555460611979168,-88.87736002604167,-42.791358100043404,0.3809114966062036,0.16324487062964108,0.18950736168587562,0.0272369384765625,-0.0,-0.0,0.1661,0.0742,-0.4391,0.00852,-0.01209,0.00614,0.0009336521616205573,0.001000449643470347,0.0009531251853331923,0.00040806198376230896,0.0004944083630107343,0.0005558294942602515,0.011769188567996025,0.011828426271677017,0.00905721914023161,passive,0
1.481,rehab,small_slow,-1.9805734462195441,-666.6418648371891,321.87916083378076,-177.40101212495088,0.14363045753097273,-149.96187296791044,-14.7314,-3.1664,14.9414,-172.3662,2.4821,24.6319,77.25134519067142,26.488343040541846,81.22410613711517,-19.555460611979168,-88.87736002604167,-42.791358100043404,0.489748208829672,0.2176666259765625,0.20596645846225248,0.00996059841579861,-0.0,-0.0,0.0509,-0.024,-0.3769,-0.00486,-0.00516,-0.00104,0.0009336521616205573,0.001000449643470347,0.0009531251853331923,0.00040806198376230896,0.0004944083630107343,0.0005558294942602515,0.011769188567996025,0.011828426271677017,0.00905721914023161,passive,0
1.501,rehab,small_slow,-1.8286534540416775,-666.6430067895108,321.79219958364854,-177.40748654017216,0.14959603805124097,-149.94880325369667,-20.6395,-1.6339,17.1405,-36.2426,17.7267,-121.3585,77.26441185073097,26.4932379392114,81.22801525758044,-19.555460611979168,-88.8773685031467,-42.79136657714844,0.5985781225827661,0.2176666259765625,0.12983038873955755,-0.006663004557291666,-0.06785074869791667,-0.0,-0.0815,0.0272,-0.0903,-0.01555,0.00225,0.00203,0.0009336521616205573,0.001000449643470347,0.0009531251853331923,0.00040806198376230896,0.0004944083630107343,0.0005558294942602515,0.011769188567996025,0.011828426271677017,0.00905721914023161,passive,0
1.5207,rehab,small_slow,-1.7012680215095386,-666.6437941645269,321.7386071251369,-177.41146688105727,0.15328241031123038,-149.9378541301075,-16.9288,-0.0518,7.6074,226.0517,42.1619,-333.8174,77.27536418650409,26.496256460057626,81.23042191609298,-19.555460611979168,-88.87736002604167,-42.79136657714844,0.979496417659344,0.16324487062964108,0.3259186697478342,-0.021040174696180556,-0.06785074869791667,-0.06785074869791667,-0.2805,-0.1836,0.7876,0.00928,-0.01585,-0.00058,0.0009336521616205573,0.001000449643470347,0.0009531251853331923,0.00040806198376230896,0.0004944083630107343,0.0005558294942602515,0.011769188567996025,0.011828426271677017,0.00905721914023161,passive,0
1.5412,rehab,small_slow,-4.498438748779317,-667.1038861245438,323.9162257643946,-177.17514428531507,-0.060436180801576325,-150.25907669128756,-5.9962,0.9832,-7.1766,579.9417,67.0746,-591.0031,77.04468528823097,26.424892916537747,81.0884426607944,-19.663645426432293,-88.87730068630643,-42.70228915744357,5.713760829207921,4.462176030225093,6.817023400032874,-15.895784166124132,-0.06785074869791667,4.546152750651042,0.3959,-1.5772,4.9054,0.16516,-0.07637,0.02075,0.0009336521616205573,0.001000449643470347,0.0009531251853331923,0.00040806198376230896,0.0004944083630107343,0.0005558294942602515,0.011769188567996025,0.011828426271677017,0.00905721914023161,passive,0
1.5608,rehab,small_slow,-3.6291164965405236,-666.9243160601468,323.22531210514717,-177.17683338360848,-0.06233733444164247,-150.23511257915516,6.5931,1.7254,-19.135,774.1318,51.6328,-692.2346,77.11657231396968,26.428285353254562,81.19978800858601,-19.779959784613716,-88.8811747233073,-42.655741373697914,1.795747964689047,-1.795747964689047,8.528613099957457,-2.7619086371527777,0.20355224609375,2.171291775173611,0.2575,1.0925,-1.1847,-0.01307,0.00203,0.00997,0.0009336521616205573,0.001000449643470347,0.0009531251853331923,0.00040806198376230896,0.0004944083630107343,0.0005558294942602515,0.011769188567996025,0.011828426271677017,0.00905721914023161,passive,0
1.581,rehab,small_slow,-3.615584950265527,-666.5286223214397,322.6766126391108,-177.20675844135303,-0.04057714095568878,-150.27578791804746,23.2995,2.4756,-31.4476,777.4879,5.3254,-590.3372,77.11088879273669,26.403443742506575,81.31814937780399,-19.837849934895832,-88.88632032606337,-42.621400621202255,-1.1427480867593596,-0.0,4.802255913762763,-4.233737521701388,-0.20355224609375,2.103441026475694,0.0802,-0.0351,-4.4557,-0.09532,0.03524,0.01001,0.0009336521616205573,0.001000449643470347,0.0009531251853331923,0.00040806198376230896,0.0004944083630107343,0.0005558294942602515,0.011769188567996025,0.011828426271677017,0.00905721914023161,passive,0
1.6007,rehab,small_slow,-2.080001289661035,-666.4619934732174,320.6493237560145,-177.32121496166144,0.06973101569174103,-150.20016751015203,42.9056,3.0506,-44.2757,637.0925,-25.4112,-366.3847,77.24114068663947,26.498901065033262,81.45530851760714,-19.91331312391493,-88.88400607638889,-42.567291259765625,7.237427211043858,4.516590987101639,6.7949555651976326,-3.3568742540147567,-0.13570149739583334,2.4427032470703125,0.5512,0.3673,-4.253,-0.10133,0.00948,-0.00326,0.0009336521616205573,0.001000449643470347,0.0009531251853331923,0.00040806198376230896,0.0004944083630107343,0.0005558294942602515,0.011769188567996025,0.011828426271677017,0.00905721914023161,passive,0
1.6206,rehab,small_slow,-0.7232464071410595,-666.5278813656537,319.29327844039227,-177.37605129291978,0.12209224311223184,-150.13323368345087,61.4838,3.3181,-55.4875,391.8217,-35.8906,-124.6954,77.3590873491646,26.573820208558942,81.54077208868348,-19.999525282118054,-88.88383653428819,-42.51720852322048,4.788672569954749,2.122251302889078,2.8650861683458384,-4.1300201416015625,-0.2714114718967014,2.714114718967014,0.5841,0.693,-1.6814,-0.05983,0.01936,-0.00408,0.0009336521616205573,0.001000449643470347,0.0009531251853331923,0.00040806198376230896,0.0004944083630107343,0.0005558294942602515,0.011769188567996025,0.011828426271677017,0.00905721914023161,passive,0
1.6411,rehab,small_slow,0.40338571973020165,-666.570056109053,318.7979013769488,-177.3554403425276,0.10350192478010853,-150.10273278174495,64.7998,0.96,-54.7185,151.1619,-38.9443,32.4965,77.45724366442992,26.595922035746053,81.60027230140007,-20.11105007595486,-88.88554043240018,-42.45081583658854,4.462176030225093,0.7618297916827815,2.2256288434019185,-4.824778238932292,-0.0,2.985526190863715,0.1413,-0.1238,-0.5423,-0.01414,0.00337,0.00266,0.0009336521616205573,0.001000449643470347,0.0009531251853331923,0.00040806198376230896,0.0004944083630107343,0.0005558294942602515,0.011769188567996025,0.011828426271677017,0.00905721914023161,passive,0
1.6607,rehab,small_slow,1.233245457756214,-666.5597467210117,318.3650096505137,-177.35210520501465,0.09944516350370414,-150.0797366621957,57.1794,-2.0086,-44.3452,-45.4942,-37.4789,124.1264,77.52888594523515,26.611986821240716,81.65054019134824,-20.184139675564236,-88.88765970865886,-42.40302191840278,4.734257613078202,1.305999755859375,3.7951509079130568,-4.64601304796007,-0.0,2.985526190863715,-0.354,-0.2343,-0.4357,0.00608,-0.0082,0.00365,0.0009336521616205573,0.001000449643470347,0.0009531251853331923,0.00040806198376230896,0.0004944083630107343,0.0005558294942602515,0.011769188567996025,0.011828426271677017,0.00905721914023161,passive,0
1.6808,rehab,small_slow,2.6870948666856966,-666.5773334629389,317.3177389494279,-177.37004097359608,0.11689202302984734,-150.030504766803,50.872,-1.8998,-35.741,-193.4979,-28.2114,179.2086,77.65469163951308,26.66213913719253,81.74090545956452,-20.302098592122395,-88.8889651828342,-42.32776217990451,4.516590987101639,2.3943328857421875,3.970007565942141,-5.025338066948785,-0.20355224609375,3.2569376627604165,-0.3646,-0.1843,-0.218,0.0143,-0.01012,0.00825,0.0009336521616205573,0.001000449643470347,0.0009531251853331923,0.00040806198376230896,0.0004944083630107343,0.0005558294942602515,0.011769188567996025,0.011828426271677017,0.00905721914023161,passive,0
1.7007,rehab,small_slow,3.5175464222952755,-666.5968038313856,316.5728241741877,-177.38306739181027,0.1297431872440131,-150.01197288320787,44.8225,-0.7448,-32.5168,-228.1553,-11.6948,163.9127,77.72677582089264,26.699082025206916,81.80305027725673,-20.38461473253038,-88.88968573676215,-42.27512783474392,4.190087648901609,2.2855029719890934,3.6211304617400217,-5.323333740234375,-0.0,3.392647637261285,-0.4617,-0.3964,0.8753,0.01992,-0.00693,0.00801,0.0009336521616205573,0.001000449643470347,0.0009531251853331923,0.00040806198376230896,0.0004944083630107343,0.0005558294942602515,0.011769188567996025,0.011828426271677017,0.00905721914023161,passive,0
1.721,rehab,small_slow,4.455131122562291,-666.6223424957424,315.6204680894007,-177.38844482986502,0.13309670243520358,-150.01490997837539,43.3916,-0.3866,-36.4213,-138.2349,10.6385,65.1135,77.80875177666692,26.744414225663288,81.89172272634978,-20.515094333224827,-88.89314439561632,-42.19173855251736,3.373836101871906,1.5780813387124846,3.8249622005047184,-5.478702121310763,-0.06785074869791667,3.4604983859592013,-0.4383,-0.1527,0.6534,0.0147,-0.02056,0.00914,0.0009336521616205573,0.001000449643470347,0.0009531251853331923,0.00040806198376230896,0.0004944083630107343,0.0005558294942602515,0.011769188567996025,0.011828426271677017,0.00905721914023161,passive,0
1.7411,rehab,small_slow,5.088219200109023,-666.6251515681741,315.07054090415807,-177.3843791861123,0.12822710736920992,-150.0187956612292,44.2098,-0.4397,-39.3963,-5.3476,23.3312,-57.789,77.86388737140315,26.767950530099398,81.95068585990678,-20.60575697157118,-88.89565361870659,-42.13377210828993,3.482672814095374,1.4148296696124691,3.7733006241297957,-5.753122965494792,-0.13570149739583334,3.664059109157986,-0.0751,0.1584,-1.2561,0.0042,-0.00326,0.01459,0.0009336521616205573,0.001000449643470347,0.0009531251853331923,0.00040806198376230896,0.0004944083630107343,0.0005558294942602515,0.011769188567996025,0.011828426271677017,0.00905721914023161,passive,0
1.761,rehab,small_slow,5.844340958747059,-666.6216708932243,314.51737933707943,-177.37878450458618,0.12418720041125031,-150.0141685414691,45.2286,-0.345,-39.348,77.2824,14.7145,-122.9634,77.9292614625232,26.790956553846303,82.0112942232944,-20.698165893554688,-88.89658610026042,-42.07404242621528,4.298924361125077,1.5780813387124846,3.794267106764387,-5.819651285807292,-0.0,3.7319098578559027,-0.1304,0.2379,-1.5836,-0.04588,0.00757,0.01418,0.0009336521616205573,0.001000449643470347,0.0009531251853331923,0.00040806198376230896,0.0004944083630107343,0.0005558294942602515,0.011769188567996025,0.011828426271677017,0.00905721914023161,passive,0
1.7808,rehab,small_slow,7.057419786676066,-666.6322339844962,313.5374698717169,-177.38055078222624,0.12561313131034327,-150.0032414125682,47.3394,-0.1462,-39.9329,103.3666,2.1429,-113.066,78.03465135026686,26.836315948184172,82.10625525748375,-20.839224921332466,-88.89933268229167,-41.98118421766493,4.516590987101639,2.176666259765625,4.180698961314588,-5.891587999131945,-0.06785074869791667,3.9354705810546875,-0.1388,0.1775,-1.6305,-0.07517,0.02079,0.00457,0.0009336521616205573,0.001000449643470347,0.0009531251853331923,0.00040806198376230896,0.0004944083630107343,0.0005558294942602515,0.011769188567996025,0.011828426271677017,0.00905721914023161,passive,0
1.8008,rehab,small_slow,7.836405830186858,-666.6365098739526,312.80625456891664,-177.3872633305455,0.13089819262670596,-149.99992167689234,50.3094,-0.0546,-41.9379,89.628,0.4483,-62.5577,78.10239810754757,26.870831782274905,82.17362809889387,-20.934634738498264,-88.90166388617621,-41.91786024305556,4.081257735148514,2.122251302889078,4.265904190516708,-5.837139553493923,-0.20355224609375,3.799769083658854,-0.2094,0.1373,-1.7858,-0.05707,0.00947,0.00345,0.0009336521616205573,0.001000449643470347,0.0009531251853331923,0.00040806198376230896,0.0004944083630107343,0.0005558294942602515,0.011769188567996025,0.011828426271677017,0.00905721914023161,passive,0
1.8207,rehab,small_slow,9.033205732208385,-666.6345487234532,311.77332519998606,-177.39067519547928,0.13425550846237322,-149.99439367120982,51.6666,-0.0848,-43.7921,51.8192,2.5934,-20.8269,78.20618355628288,26.918142337610227,82.27379676139,-21.08044942220052,-88.90414767795139,-41.82124667697482,4.462176030225093,1.795747964689047,4.0406980608949565,-6.108432345920138,-0.06785074869791667,4.071180555555555,-0.1673,0.0325,-1.1671,-0.04197,0.00096,7e-05,0.0009336521616205573,0.001000449643470347,0.0009531251853331923,0.00040806198376230896,0.0004944083630107343,0.0005558294942602515,0.011769188567996025,0.011828426271677017,0.00905721914023161,passive,0
1.8409,rehab,small_slow,10.076502567303875,-666.6361069959703,310.9828026112644,-177.38663229650587,0.13116938534029393,-149.9870290533528,52.1343,-0.1182,-45.0974,14.001,2.5471,-0.9897,78.29670518931776,26.954221819887067,82.35389633934096,-21.204333835177952,-88.90606350368924,-41.7394765218099,4.353339318001624,1.9045846769125154,4.014544345364712,-6.34214613172743,-0.13570149739583334,4.139031304253472,-0.2656,-0.0649,-1.4127,-0.03783,0.01043,0.00773,0.0009336521616205573,0.001000449643470347,0.0009531251853331923,0.00040806198376230896,0.0004944083630107343,0.0005558294942602515,0.011769188567996025,0.011828426271677017,0.00905721914023161,passive,0
1.8608,rehab,small_slow,11.243887770094634,-666.6388270427212,309.96558264268276,-177.38785670104107,0.13210820470823612,-149.9874817529658,51.7848,-0.0303,-44.7643,-19.8972,1.3747,23.1281,78.39818595659615,27.00206945438196,82.45188949131729,-21.35186089409722,-88.90901353624132,-41.63921780056423,4.135672692025062,2.122251302889078,4.270513553430538,-6.07039557562934,-0.13570149739583334,4.274732801649305,-0.2014,-0.1141,-1.555,-0.01722,0.00195,0.00766,0.0009336521616205573,0.001000449643470347,0.0009531251853331923,0.00040806198376230896,0.0004944083630107343,0.0005558294942602515,0.011769188567996025,0.011828426271677017,0.00905721914023161,passive,0
1.8808,rehab,small_slow,11.97498005892171,-666.639472023143,309.25800458230714,-177.3910392870648,0.13433835926984491,-149.99185762037624,50.5791,0.0621,-42.6867,-47.7861,0.5387,53.9141,78.46182643777072,27.035735479675896,82.51847371016399,-21.450398763020832,-88.91134474012587,-41.57233344184028,3.918006066048499,2.0134145906656093,4.063520525941755,-6.1416371663411455,-0.06785074869791667,4.342592027452257,-0.3431,-0.245,-1.5604,-0.04957,0.00197,0.00632,0.0009336521616205573,0.001000449643470347,0.0009531251853331923,0.00040806198376230896,0.0004944083630107343,0.0005558294942602515,0.011769188567996025,0.011828426271677017,0.00905721914023161,passive,0
1.9007,rehab,small_slow,13.124533123508701,-666.6412836637405,308.26628877602457,-177.38984554775683,0.13331504670946692,-149.99463038334548,49.2127,0.072,-40.5527,-56.0751,-0.0977,68.0227,78.56179114615563,27.082828483959236,82.61457008890586,-21.598400539822048,-88.9141845703125,-41.47126939561632,4.244502605778156,1.8501697200359684,4.0326690673828125,-6.002010769314236,-0.13570149739583334,4.206882052951388,-0.3329,-0.0714,-1.7122,-0.05504,-0.00153,0.0101,0.0009336521616205573,0.001000449643470347,0.0009531251853331923,0.00040806198376230896,0.0004944083630107343,0.0005558294942602515,0.011769188567996025,0.011828426271677017,0.00905721914023161,passive,0
1.921,rehab,small_slow,13.941787970022773,-666.6406010325089,307.6238692073361,-177.38792052494014,0.13186279072000312,-149.99147185948053,47.9855,0.0607,-39.3356,-45.714,-1.1182,58.7042,78.63278077380492,27.11340120523283,82.67726558269841,-21.696209377712673,-88.91589694552951,-41.40453762478298,4.516590987101639,2.0134145906656093,3.868424821608137,-5.933948092990451,-0.06785074869791667,4.139031304253472,-0.3619,0.1171,-1.5365,-0.0425,0.00374,0.0166,0.0009336521616205573,0.001000449643470347,0.0009531251853331923,0.00040806198376230896,0.0004944083630107343,0.0005558294942602515,0.011769188567996025,0.011828426271677017,0.00905721914023161,passive,0
1.9408,rehab,small_slow,15.173140970960137,-666.6330911524936,306.63581761746167,-177.38883933692856,0.13266484748104249,-149.9876481534722,47.3416,0.0328,-38.635,-31.548,-2.2271,39.1274,78.73970031738281,27.160664171275524,82.77161475455407,-21.839845445421005,-88.91879611545139,-41.30306667751736,4.4077542748781715,1.9589996337890625,3.978492056969369,-5.844065348307292,-0.13570149739583334,4.274732801649305,-0.3466,0.159,-1.5997,-0.03859,0.00971,0.01518,0.0009336521616205573,0.001000449643470347,0.0009531251853331923,0.00040806198376230896,0.0004944083630107343,0.0005558294942602515,0.011769188567996025,0.011828426271677017,0.00905721914023161,passive,0
1.9609,rehab,small_slow,16.00053608249507,-666.630500400944,306.00537808208674,-177.38768112594494,0.13159717551102015,-149.98409623014368,46.9743,-0.0649,-38.0789,-15.8701,-2.4302,18.1382,78.81160773853264,27.19124369101949,82.83205315618231,-21.934585571289062,-88.92076280381944,-41.23578389485677,4.4077542748781715,1.9589996337890625,3.7344133735883354,-5.96494886610243,-0.13570149739583334,4.206882052951388,-0.4848,-0.0459,-1.2372,-0.05712,-6e-05,0.00598,0.0009336521616205573,0.001000449643470347,0.0009531251853331923,0.00040806198376230896,0.0004944083630107343,0.0005558294942602515,0.011769188567996025,0.011828426271677017,0.00905721914023161,passive,0
1.981,rehab,small_slow,16.818306263163063,-666.631182477212,305.3949598165172,-177.38561005340836,0.12998507463576672,-149.98051683746672,46.6879,-0.1578,-37.9546,-2.6321,-1.2768,7.7653,78.88271973864867,27.221415302540997,82.8901188916499,-22.027562459309895,-88.92252604166667,-41.16929796006944,4.353339318001624,1.9589996337890625,3.570549842154626,-5.8054351806640625,-0.06785074869791667,4.206882052951388,-0.3535,0.1406,-1.1877,-0.03805,0.01233,0.01174,0.0009336521616205573,0.001000449643470347,0.0009531251853331923,0.00040806198376230896,0.0004944083630107343,0.0005558294942602515,0.011769188567996025,0.011828426271677017,0.00905721914023161,passive,0
2.0013,rehab,small_slow,17.950148532942286,-666.6414510574655,304.4287146923343,-177.3882569907275,0.13205823711977183,-149.98192612236616,47.1019,-0.1759,-38.5413,-0.5591,0.4273,16.9715,78.9814267300143,27.271288881207457,82.97599716941909,-22.163094414605034,-88.92554389105902,-41.07072618272569,3.918006066048499,2.067836346012531,3.648881817808246,-5.504158867730035,-0.13570149739583334,4.139031304253472,-0.2495,0.1111,-1.3835,-0.02921,0.00062,0.01154,0.0009336521616205573,0.001000449643470347,0.0009531251853331923,0.00040806198376230896,0.0004944083630107343,0.0005558294942602515,0.011769188567996025,0.011828426271677017,0.00905721914023161,passive,0
2.0208,rehab,small_slow,18.653239762420526,-666.6452282607678,303.7810906460922,-177.39205829678008,0.13513211179964618,-149.98623667970563,47.3321,-0.1301,-38.3257,-11.5813,1.8465,38.3915,79.04274213432085,27.304744153919785,83.03259443528582,-22.250315348307293,-88.92757839626736,-41.00609673394097,3.918006066048499,2.122251302889078,3.5300989434270575,-5.322867499457465,-0.13570149739583334,4.139031304253472,-0.3188,0.164,-1.2172,-0.03678,0.00578,0.01298,0.0009336521616205573,0.001000449643470347,0.0009531251853331923,0.00040806198376230896,0.0004944083630107343,0.0005558294942602515,0.011769188567996025,0.011828426271677017,0.00905721914023161,passive,0
2.0407,rehab,small_slow,19.708546929507502,-666.6527317668616,302.9030630181738,-177.39241522074025,0.13558830004743397,-149.99095827385875,46.4365,-0.0427,-36.6265,-33.874,2.9177,65.2135,79.13475263236772,27.35035509166151,83.11121874516553,-22.377005683051216,-88.93022325303819,-40.910797119140625,3.918006066048499,1.795747964689047,3.091284874642249,-5.2081553141276045,-0.13570149739583334,3.9354705810546875,-0.4019,0.1027,-1.1275,-0.04972,0.00903,0.00611,0.0009336521616205573,0.001000449643470347,0.0009531251853331923,0.00040806198376230896,0.0004944083630107343,0.0005558294942602515,0.011769188567996025,0.011828426271677017,0.00905721914023161,passive,0
2.061,rehab,small_slow,20.607180305060524,-666.6547457888685,302.23677660449425,-177.39037699586052,0.1339691479657983,-149.99099638329943,46.136,0.053,-35.3994,-63.6319,3.0879,95.6422,79.2130166233176,27.38478934410775,83.17233699383122,-22.477603488498264,-88.93235948350694,-40.833630032009545,3.8635911091719524,1.686918050935953,3.014584531878481,-4.957275390625,-0.06785074869791667,3.799769083658854,-0.3789,0.0905,-1.2413,-0.04912,0.01375,0.0075,0.0009336521616205573,0.001000449643470347,0.0009531251853331923,0.00040806198376230896,0.0004944083630107343,0.0005558294942602515,0.011769188567996025,0.011828426271677017,0.00905721914023161,passive,0
2.081,rehab,small_slow,21.682233763332178,-666.6449415452727,301.4553532132549,-177.39089552095976,0.13439682714308487,-149.98821673960828,44.6396,0.1284,-33.0061,-93.7163,2.0804,122.2048,79.30646159861347,27.424533201916383,83.24373452970298,-22.590899997287327,-88.93497890896268,-40.74424743652344,3.8635911091719524,1.5236663818359375,2.8847269492574257,-4.542728000217013,-0.06785074869791667,3.7319098578559027,-0.3435,0.0925,-1.0932,-0.04586,0.00871,0.00671,0.0009336521616205573,0.001000449643470347,0.0009531251853331923,0.00040806198376230896,0.0004944083630107343,0.0005558294942602515,0.011769188567996025,0.011828426271677017,0.00905721914023161,passive,0
2.101,rehab,small_slow,22.385109724270873,-666.6338121220832,300.971496421986,-177.3908062996113,0.1343049345642197,-149.98532109461792,42.1872,0.1397,-30.0276,-115.2267,0.5685,135.5772,79.36748466869392,27.448783345741802,83.28875400052212,-22.66210767957899,-88.93666585286458,-40.68692525227865,3.64592448319539,1.4148296696124691,2.61485486927599,-4.3575286865234375,-0.13570149739583334,3.392647637261285,-0.4544,0.0817,-1.3369,-0.04695,0.0148,0.01017,0.0009336521616205573,0.001000449643470347,0.0009531251853331923,0.00040806198376230896,0.0004944083630107343,0.0005558294942602515,0.011769188567996025,0.011828426271677017,0.00905721914023161,passive,0
2.1209,rehab,small_slow,23.36425183837994,-666.6322197273167,300.3147429893467,-177.38862143138368,0.13239709539316086,-149.9838620672117,39.358,0.116,-27.0616,-124.5261,-0.8669,136.2976,79.45275788259978,27.483482738532643,83.34808425147935,-22.761645846896702,-88.93913269042969,-40.604239569769966,3.2650061881188117,1.4148296696124691,2.3189446477606745,-4.027777777777778,-0.13570149739583334,3.392647637261285,-0.4892,0.1041,-1.0869,-0.04418,0.01165,0.0146,0.0009336521616205573,0.001000449643470347,0.0009531251853331923,0.00040806198376230896,0.0004944083630107343,0.0005558294942602515,0.011769188567996025,0.011828426271677017,0.00905721914023161,passive,0
2.1409,rehab,small_slow,23.945779541312184,-666.6365515845413,299.89620023252775,-177.388607532296,0.13225363721594482,-149.98605256827852,36.249,0.0807,-24.143,-131.3699,-1.8211,138.0847,79.50352885935565,27.5064751653388,83.38388499647084,-22.822189331054688,-88.94078572591145,-40.55196974012587,3.1017545190187965,1.360414712735922,2.2174978728341586,-3.5921563042534723,-0.13570149739583334,3.1890869140625,-0.1901,0.1793,-1.2614,-0.04106,0.0103,0.01089,0.0009336521616205573,0.001000449643470347,0.0009531251853331923,0.00040806198376230896,0.0004944083630107343,0.0005558294942602515,0.011769188567996025,0.011828426271677017,0.00905721914023161,passive,0
2.1608,rehab,small_slow,24.76613225971761,-666.6388833507988,299.298679545951,-177.39088292431836,0.13410433075677824,-149.98937415579036,33.7427,0.0082,-21.6198,-130.7711,-1.9931,139.9917,79.57508276004603,27.539332172658185,83.43385375372254,-22.904408772786457,-88.94305759006076,-40.47803243001302,2.992917806795328,1.1971630436359066,1.8954203388478497,-3.256378173828125,-0.06785074869791667,2.8498246934678817,-0.2105,0.1514,-1.4353,-0.03735,0.00629,0.01052,0.0009336521616205573,0.001000449643470347,0.0009531251853331923,0.00040806198376230896,0.0004944083630107343,0.0005558294942602515,0.011769188567996025,0.011828426271677017,0.00905721914023161,passive,0
2.1807,rehab,small_slow,25.313227135844283,-666.6398876485041,298.961282595235,-177.3906407638057,0.13397750308168693,-149.98859734851172,31.6597,-0.0225,-19.2822,-118.116,-1.4716,134.8841,79.62276043278156,27.558109547832224,83.46246171705793,-22.953516642252605,-88.94438849555121,-40.43168809678819,2.992917806795328,1.0339181730062654,1.6210680668896968,-2.9506344265407987,-0.06785074869791667,2.6462639702690973,-0.1375,0.2083,-1.2403,-0.02197,-0.00367,0.00757,0.0009336521616205573,0.001000449643470347,0.0009531251853331923,0.00040806198376230896,0.0004944083630107343,0.0005558294942602515,0.011769188567996025,0.011828426271677017,0.00905721914023161,passive,0
2.2009,rehab,small_slow,25.863196544595844,-666.6392737477672,298.67611226641554,-177.38923792428864,0.13283384618350896,-149.98471842295402,29.671,-0.0377,-16.8087,-113.8994,-0.6573,137.3055,79.6706488580987,27.57409955015277,83.4870721798132,-22.99729241265191,-88.94566853841145,-40.388175116644966,2.992917806795328,0.979496417659344,1.4860232513729887,-2.537850273980035,-0.0,2.5784132215711804,-0.2159,0.1842,-0.9882,-0.02525,-0.0029,0.00668,0.0009336521616205573,0.001000449643470347,0.0009531251853331923,0.00040806198376230896,0.0004944083630107343,0.0005558294942602515,0.011769188567996025,0.011828426271677017,0.00905721914023161,passive,0
2.2206,rehab,small_slow,26.60852013348532,-666.6348915071703,298.2845981200262,-177.39009063038586,0.13355239224474066,-149.9804323974281,27.1968,-0.0475,-13.8395,-117.5072,0.066,144.0327,79.73550626547029,27.59611979569539,83.5194736896175,-23.052478366427952,-88.94749959309895,-40.32823350694444,2.503169597965656,0.8162515470297029,1.2262129075456374,-2.028774685329861,-0.06785074869791667,2.307001749674479,-0.4271,0.2349,-1.2921,-0.03481,0.00161,0.01454,0.0009336521616205573,0.001000449643470347,0.0009531251853331923,0.00040806198376230896,0.0004944083630107343,0.0005558294942602515,0.011769188567996025,0.011828426271677017,0.00905721914023161,passive,0
2.2412,rehab,small_slow,27.04363446386354,-666.6341210222789,298.0712525439983,-177.39080804640656,0.1341442413847888,-149.97929586507462,24.4917,-0.0225,-10.3996,-128.1117,0.6203,151.3994,79.77340773780747,27.608574593421256,83.53633389614596,-23.08200412326389,-88.94863552517361,-40.291807386610245,2.2310880151125465,0.7074148348062346,0.8999407173383354,-1.628816392686632,-0.0,2.171291775173611,-0.3588,0.1446,-1.1418,-0.0354,-0.00499,0.00894,0.0009336521616205573,0.001000449643470347,0.0009531251853331923,0.00040806198376230896,0.0004944083630107343,0.0005558294942602515,0.011769188567996025,0.011828426271677017,0.00905721914023161,passive,0
2.2611,rehab,small_slow,27.585380199299294,-666.6359255357975,297.84238800861635,-177.3910318397875,0.13425957488879273,-149.9809243143067,22.4462,-0.0002,-7.5475,-148.9409,0.5779,159.7065,79.82066390537979,27.62262023321473,83.5537039879525,-23.11469184027778,-88.95021226671007,-40.24330139160156,1.7413330078125,0.489748208829672,0.5442651427618348,-1.080474853515625,-0.13570149739583334,1.9677310519748263,-0.3218,0.2159,-1.096,-0.0358,0.01154,0.0079,0.0009336521616205573,0.001000449643470347,0.0009531251853331923,0.00040806198376230896,0.0004944083630107343,0.0005558294942602515,0.011769188567996025,0.011828426271677017,0.00905721914023161,passive,0
2.2806,rehab,small_slow,27.93904499132082,-666.6393762861744,297.71987826991983,-177.39166959410713,0.13474650695707185,-149.98528151204718,19.4665,0.0139,-4.7499,-162.4934,0.1813,154.1709,79.85156295323135,27.63089397166035,83.56165819829053,-23.131213717990452,-88.95137363009982,-40.20824008517795,1.4148296696124691,0.3809114966062036,0.26072813732789296,-0.5800289577907985,-0.0,1.5606180826822915,-0.3117,0.2641,-0.5326,-0.05135,0.00319,0.00589,0.0009336521616205573,0.001000449643470347,0.0009531251853331923,0.00040806198376230896,0.0004944083630107343,0.0005558294942602515,0.011769188567996025,0.011828426271677017,0.00905721914023161,passive,0
2.3011,rehab,small_slow,28.30501046720973,-666.6488866488196,297.6813792461382,-177.39043842769763,0.13373536641463055,-149.9876026896121,15.2664,0.0148,-0.9185,-173.0534,-0.3036,144.0939,79.88359734563544,27.635700490215036,83.56155622123491,-23.138580322265625,-88.95248413085938,-40.1739756266276,1.1971630436359066,-0.10882991375309406,-0.09183373781714109,-0.06900363498263888,-0.06785074869791667,1.2892066107855902,-0.1081,0.3383,0.2624,-0.02893,0.00362,-0.00086,0.0009336521616205573,0.001000449643470347,0.0009531251853331923,0.00040806198376230896,0.0004944083630107343,0.0005558294942602515,0.011769188567996025,0.011828426271677017,0.00905721914023161,passive,0
2.3206,rehab,small_slow,28.52322810758094,-666.6378839246587,297.7142580527774,-177.38902195792338,0.1325441365214476,-149.98669495718275,12.0614,0.0044,1.7876,-180.503,-0.9673,137.6206,79.9024223101021,27.633633755221226,83.56006055775255,-23.137427435980904,-88.95308600531683,-40.156046549479164,1.1971630436359066,-0.05441495687654703,-0.11141333249535891,0.17317030164930555,-0.0,0.9499359130859375,-0.2073,0.3226,-0.5562,-0.03111,-0.00392,0.00702,0.0009336521616205573,0.001000449643470347,0.0009531251853331923,0.00040806198376230896,0.0004944083630107343,0.0005558294942602515,0.011769188567996025,0.011828426271677017,0.00905721914023161,passive,0
2.3406,rehab,small_slow,28.799301037377713,-666.633668240074,297.80369077285513,-177.38856759783826,0.13214442096396292,-149.98229895318545,8.2683,-0.0311,4.3203,-179.8,-1.2611,133.6165,79.9263597242903,27.63019372921179,83.55061068393216,-23.12575446234809,-88.95379808213976,-40.13637966579861,0.8162515470297029,-0.16324487062964108,-0.5450809592067605,0.7837422688802083,-0.0,0.6106736924913194,-0.0505,0.2102,-1.0194,-0.03287,-0.00191,0.00304,0.0009336521616205573,0.001000449643470347,0.0009531251853331923,0.00040806198376230896,0.0004944083630107343,0.0005558294942602515,0.011769188567996025,0.011828426271677017,0.00905721914023161,passive,0
2.3608,rehab,small_slow,28.92078084107012,-666.6339298967437,297.8801803149186,-177.39105732019132,0.1341602726815944,-149.98045755265727,4.5459,-0.0708,6.6075,-171.2398,-0.7992,133.4489,79.93691774878171,27.6275899150584,83.5405693431892,-23.110182020399304,-88.95420498318143,-40.12749565972222,0.489748208829672,-0.2176666259765625,-0.6944841441541615,1.1251661512586806,-0.06785074869791667,0.4071129692925347,-0.0926,0.2369,-0.5058,-0.03924,0.00882,0.00288,0.0009336521616205573,0.001000449643470347,0.0009531251853331923,0.00040806198376230896,0.0004944083630107343,0.0005558294942602515,0.011769188567996025,0.011828426271677017,0.00905721914023161,passive,0
2.3808,rehab,small_slow,29.000673766413097,-666.6374154726803,298.0535567747725,-177.39480138024896,0.13735743411169704,-149.98034591820695,1.3977,-0.0721,8.888,-153.2266,0.0946,130.1971,79.94387258397471,27.6207166615099,83.52005835806969,-23.07809617784288,-88.95451015896268,-40.120298597547745,0.05441495687654703,-0.435333251953125,-0.9997898517268718,1.4931064181857638,-0.0,0.13570149739583334,-0.1769,0.2647,-0.276,-0.01011,0.01006,0.00503,0.0009336521616205573,0.001000449643470347,0.0009531251853331923,0.00040806198376230896,0.0004944083630107343,0.0005558294942602515,0.011769188567996025,0.011828426271677017,0.00905721914023161,passive,0
2.401,rehab,small_slow,28.95236235899937,-666.6423879809997,298.23466772233274,-177.39505159411942,0.13760713061728838,-149.98529821567206,-1.4821,-0.0945,11.6465,-135.9893,1.0464,128.9496,79.93972551704633,27.612415729182782,83.50206960545908,-23.05148654513889,-88.95460340711806,-40.11919657389323,-0.32649653972965653,-0.5985781225827661,-1.2828781581161046,1.7744191487630208,-0.0,-0.06785074869791667,-0.103,0.2346,-0.1377,-0.02182,-0.00656,0.00899,0.0009336521616205573,0.001000449643470347,0.0009531251853331923,0.00040806198376230896,0.0004944083630107343,0.0005558294942602515,0.011769188567996025,0.011828426271677017,0.00905721914023161,passive,0
2.4212,rehab,small_slow,28.882394186987128,-666.6497160939873,298.45501104951893,-177.39458428490735,0.13721262613590288,-149.99038949442885,-4.2599,-0.0738,14.767,-124.0227,1.759,130.8078,79.93372926617613,27.60231320220645,83.4805456482538,-23.02045186360677,-88.9546881781684,-40.11975606282552,-0.435333251953125,-0.6529998779296875,-1.4238512397992729,2.0444234212239585,-0.0,-0.06785074869791667,-0.115,0.2974,-0.59,-0.01738,-0.00381,0.00986,0.0009336521616205573,0.001000449643470347,0.0009531251853331923,0.00040806198376230896,0.0004944083630107343,0.0005558294942602515,0.011769188567996025,0.011828426271677017,0.00905721914023161,passive,0
2.4408,rehab,small_slow,28.7371051119605,-666.6512851603987,298.8275976114937,-177.39464925712227,0.13717130234728656,-149.99669846762106,-6.4937,0.0163,17.5312,-112.882,1.8564,124.1653,79.92107051433904,27.58386215361038,83.44590744169632,-22.96715630425347,-88.95473904079861,-40.125512017144096,-0.544163165706219,-0.87066650390625,-1.4713793461865718,2.358517116970486,-0.0,-0.4749637179904514,-0.0161,0.3177,-0.4304,-0.01606,0.00761,0.00639,0.0009336521616205573,0.001000449643470347,0.0009531251853331923,0.00040806198376230896,0.0004944083630107343,0.0005558294942602515,0.011769188567996025,0.011828426271677017,0.00905721914023161,passive,0
2.4608,rehab,small_slow,28.647146641503106,-666.6448687618866,299.12136968558656,-177.39394617196953,0.1364162605008396,-149.99466865504763,-8.2665,0.0835,19.6202,-103.8577,1.2307,105.5584,79.9130891101195,27.568382036567915,83.42040637932202,-22.926898532443577,-88.95467122395833,-40.13507419162326,-0.544163165706219,-1.0339181730062654,-1.7264511561629796,2.62969970703125,0.06785074869791667,-0.678524441189236,-0.1638,0.161,-0.7601,-0.03085,0.00822,0.00829,0.0009336521616205573,0.001000449643470347,0.0009531251853331923,0.00040806198376230896,0.0004944083630107343,0.0005558294942602515,0.011769188567996025,0.011828426271677017,0.00905721914023161,passive,0
2.4809,rehab,small_slow,28.449413586096995,-666.6374538017203,299.69682868339606,-177.3917965921689,0.1341637023665401,-149.98811928783715,-10.216,0.1081,21.6079,-98.041,0.4581,81.1162,79.89566463054997,27.538563945505878,83.37000931843673,-22.84905327690972,-88.95448472764757,-40.158182779947914,-0.7618297916827815,-1.0339181730062654,-1.9778993814298422,2.948277791341146,0.06785074869791667,-0.8820851643880208,-0.0792,0.2534,-0.5591,-0.01691,0.0037,0.00906,0.0009336521616205573,0.001000449643470347,0.0009531251853331923,0.00040806198376230896,0.0004944083630107343,0.0005558294942602515,0.011769188567996025,0.011828426271677017,0.00905721914023161,passive,0
2.5006,rehab,small_slow,28.278732552569707,-666.6369136511629,300.0472101240738,-177.39097130403547,0.13318781000390573,-149.98615224644118,-12.1105,0.0873,22.9707,-87.894,-0.2743,54.4468,79.88074878654858,27.520779147006497,83.33849840825147,-22.800504896375866,-88.95430670844183,-40.17452663845486,-1.0339181730062654,-1.0883331298828125,-2.010124131004409,3.143649631076389,-0.0,-1.0856458875868056,-0.1772,0.3468,-0.3226,-0.01976,0.00222,0.00869,0.0009336521616205573,0.001000449643470347,0.0009531251853331923,0.00040806198376230896,0.0004944083630107343,0.0005558294942602515,0.011769188567996025,0.011828426271677017,0.00905721914023161,passive,0
2.5208,rehab,small_slow,27.958575481963546,-666.6347133798004,300.5818905404273,-177.39176288311998,0.13345136433887064,-149.9846167335927,-14.3806,0.0453,24.0902,-78.5515,-0.9901,34.1319,79.85276628248762,27.493558071627476,83.2895562200263,-22.722668117947048,-88.95389980740018,-40.20317925347222,-1.251584798982828,-1.0339181730062654,-2.0758721379950495,3.307698567708333,-0.0,-1.2892066107855902,0.0803,0.193,-0.7924,-0.01308,-0.0001,0.00185,0.0009336521616205573,0.001000449643470347,0.0009531251853331923,0.00040806198376230896,0.0004944083630107343,0.0005558294942602515,0.011769188567996025,0.011828426271677017,0.00905721914023161,passive,0
2.5408,rehab,small_slow,27.705045222929957,-666.6386169078555,300.9520614167689,-177.39224369322181,0.13371233093212817,-149.98447651217217,-15.8605,-0.0097,24.2652,-74.6671,-1.1628,25.4024,79.830691649182,27.47530417867226,83.25472765629834,-22.668372260199654,-88.95345899793837,-40.22478739420573,-1.4692514249593904,-1.251584798982828,-2.269642140605662,3.427157931857639,-0.0,-1.357057359483507,0.0765,0.2061,-0.8897,-0.0116,0.00087,0.00917,0.0009336521616205573,0.001000449643470347,0.0009531251853331923,0.00040806198376230896,0.0004944083630107343,0.0005558294942602515,0.011769188567996025,0.011828426271677017,0.00905721914023161,passive,0
2.561,rehab,small_slow,27.288412413230848,-666.639872465525,301.541893054746,-177.3925856033433,0.13389535365973165,-149.98410726294756,-17.2632,-0.0285,24.3357,-71.2005,-0.721,22.1242,79.79432663114945,27.445560870784345,83.20045546729966,-22.582855224609375,-88.95261128743489,-40.260560777452255,-1.5780813387124846,-1.251584798982828,-2.2653047165068068,3.5319264729817705,0.06785074869791667,-1.5606180826822915,0.0103,0.2754,-0.3811,-0.01628,-0.00618,0.00564,0.0009336521616205573,0.001000449643470347,0.0009531251853331923,0.00040806198376230896,0.0004944083630107343,0.0005558294942602515,0.011769188567996025,0.011828426271677017,0.00905721914023161,passive,0
2.5808,rehab,small_slow,26.9782531410608,-666.6430935914391,301.9456288938878,-177.39290121742673,0.13422585049943417,-149.9850981050347,-18.2012,-0.0059,24.6285,-68.6863,-0.0215,23.634,79.76728911447053,27.42547818929842,83.16280553836634,-22.52387152777778,-88.95189921061198,-40.285941229926216,-1.686918050935953,-1.251584798982828,-2.3168915097076113,3.7493133544921875,-0.0,-1.6284688313802083,0.2593,0.4194,-0.2283,-0.00995,-0.01403,0.00222,0.0009336521616205573,0.001000449643470347,0.0009531251853331923,0.00040806198376230896,0.0004944083630107343,0.0005558294942602515,0.011769188567996025,0.011828426271677017,0.00905721914023161,passive,0
2.6008,rehab,small_slow,26.5238632514458,-666.639735119648,302.58646481947113,-177.39200670144345,0.1337840308071072,-149.98329452531033,-19.1286,0.0134,25.1245,-67.3217,0.658,28.369,79.72750446583964,27.392621181979038,83.1052292927657,-22.43313259548611,-88.95058525933159,-40.32649570041232,-1.795747964689047,-1.4692514249593904,-2.3502652007754485,3.8382890489366317,0.06785074869791667,-1.7641703287760415,0.3091,0.2999,-0.6354,0.00196,-0.0041,0.00258,0.0009336521616205573,0.001000449643470347,0.0009531251853331923,0.00040806198376230896,0.0004944083630107343,0.0005558294942602515,0.011769188567996025,0.011828426271677017,0.00905721914023161,passive,0
2.621,rehab,small_slow,26.20055746135589,-666.6358522197994,303.0182013722259,-177.39164650055423,0.13368840385348113,-149.9821189057615,-20.991,0.0283,26.3315,-70.6196,1.1399,36.2014,79.69918203825998,27.37032219915107,83.06658678715772,-22.371622721354168,-88.94965277777777,-40.35529242621528,-1.7413330078125,-1.360414712735922,-2.4111523014484066,3.8599989149305554,0.06785074869791667,-1.832029554578993,-0.0061,0.3523,-0.7484,-0.01713,0.00577,0.00879,0.0009336521616205573,0.001000449643470347,0.0009531251853331923,0.00040806198376230896,0.0004944083630107343,0.0005558294942602515,0.011769188567996025,0.011828426271677017,0.00905721914023161,passive,0
2.6408,rehab,small_slow,25.857341373925333,-666.6357754901805,303.45011460255466,-177.39169690389065,0.13391065419967002,-149.98152183456386,-22.5746,0.0431,27.1287,-73.1424,1.2214,40.1795,79.66919398543858,27.348553497012297,83.02689051864171,-22.309036254882812,-88.94871181911893,-40.385165744357636,-1.9045846769125154,-1.360414712735922,-2.4922988438370206,3.890677558051215,0.06785074869791667,-1.8998803032769096,0.1179,0.4035,-0.4201,-0.01405,-0.00261,0.00601,0.0009336521616205573,0.001000449643470347,0.0009531251853331923,0.00040806198376230896,0.0004944083630107343,0.0005558294942602515,0.011769188567996025,0.011828426271677017,0.00905721914023161,passive,0
2.661,rehab,small_slow,25.29902803245294,-666.6345679891572,304.1060743820563,-177.39165472605444,0.13407313493339884,-149.98182376041166,-24.0203,0.0645,27.7634,-67.8538,0.9769,32.5894,79.62042855744315,27.3153021784112,82.96698239770267,-22.214313083224827,-88.94727071126302,-40.43255276150173,-2.122251302889078,-1.305999755859375,-2.5094989738842046,4.042544894748263,-0.0,-2.0355902777777777,0.0907,0.3815,-0.3567,-0.0128,-0.01465,0.00441,0.0009336521616205573,0.001000449643470347,0.0009531251853331923,0.00040806198376230896,0.0004944083630107343,0.0005558294942602515,0.011769188567996025,0.011828426271677017,0.00905721914023161,passive,0
2.6809,rehab,small_slow,24.897966064251793,-666.6375797004367,304.5485672777091,-177.39111470456015,0.13377781660297153,-149.9836896160189,-25.3197,0.0823,28.2361,-51.9554,0.6174,14.0241,79.58547762124846,27.293275134398204,82.92617797851562,-22.151065402560764,-88.94626193576389,-40.46491834852431,-2.3399179288656407,-1.4148296696124691,-2.492475604066754,4.0154266357421875,0.06785074869791667,-2.0355902777777777,0.1424,0.3647,0.3364,-0.0141,0.0078,0.00099,0.0009336521616205573,0.001000449643470347,0.0009531251853331923,0.00040806198376230896,0.0004944083630107343,0.0005558294942602515,0.011769188567996025,0.011828426271677017,0.00905721914023161,passive,0
2.701,rehab,small_slow,24.17171441109973,-666.6355885106645,305.32972440596546,-177.38973543888397,0.13270661855059057,-149.98748389827122,-26.3305,0.0966,28.5066,-26.4966,-0.0547,-12.0386,79.52210907888885,27.2534972842377,82.85582060861115,-22.04083760579427,-88.94457499186198,-40.52324083116319,-2.2855029719890934,-1.4148296696124691,-2.4191744964901765,3.9699639214409723,0.06785074869791667,-2.171291775173611,0.2642,0.2979,0.1583,-0.0111,-0.01413,-0.00086,0.0009336521616205573,0.001000449643470347,0.0009531251853331923,0.00040806198376230896,0.0004944083630107343,0.0005558294942602515,0.011769188567996025,0.011828426271677017,0.00905721914023161,passive,0
2.7209,rehab,small_slow,23.757243843881604,-666.6346330827605,305.76662848024586,-177.38934039339964,0.13241759245536805,-149.98857812844076,-26.8822,0.098,28.4822,-3.9161,-1.0485,-35.1194,79.4859480149675,27.231422650932085,82.81602236303952,-21.978369818793404,-88.94358317057292,-40.55759853786892,-2.3943328857421875,-1.4148296696124691,-2.422131831103032,4.01094224717882,0.06785074869791667,-2.2391425238715277,0.2404,0.4516,-0.1478,-0.01219,-0.00956,0.0023,0.0009336521616205573,0.001000449643470347,0.0009531251853331923,0.00040806198376230896,0.0004944083630107343,0.0005558294942602515,0.011769188567996025,0.011828426271677017,0.00905721914023161,passive,0
2.741,rehab,small_slow,23.15353089967082,-666.6280937372725,306.4178306648302,-177.38814752380924,0.13147760350459592,-149.9880191024354,-26.682,0.0743,27.3844,12.5269,-2.0816,-54.1623,79.43318508639194,27.197987773630878,82.75784105357558,-21.886622111002605,-88.94205729166667,-40.60987684461806,-2.122251302889078,-1.305999755859375,-2.4146603121615873,3.770506117078993,0.06785074869791667,-2.103441026475694,0.0962,0.4595,0.2942,-0.01242,-0.00376,0.00226,0.0009336521616205573,0.001000449643470347,0.0009531251853331923,0.00040806198376230896,0.0004944083630107343,0.0005558294942602515,0.011769188567996025,0.011828426271677017,0.00905721914023161,passive,0
2.7609,rehab,small_slow,22.755924918057012,-666.625430741794,306.8284906243394,-177.38831573949903,0.1316454192547778,-149.98692280875792,-25.7172,0.0336,25.6591,24.0557,-2.7321,-69.6697,79.39846529818998,27.177279632870512,82.72012313993851,-21.82685004340278,-88.94104851616753,-40.64501444498698,-2.2310880151125465,-1.251584798982828,-2.3602861461072866,3.6735026041666665,-0.0,-2.171291775173611,0.209,0.4942,0.0295,0.0052,0.00017,0.00506,0.0009336521616205573,0.001000449643470347,0.0009531251853331923,0.00040806198376230896,0.0004944083630107343,0.0005558294942602515,0.011769188567996025,0.011828426271677017,0.00905721914023161,passive,0
2.781,rehab,small_slow,22.147311844590657,-666.6246033432017,307.42728716559776,-177.38820026636458,0.13161184231765138,-149.98654779371532,-24.7458,-0.0453,23.7294,28.651,-2.7618,-78.5482,79.34538963997718,27.14744794486773,82.66472240485767,-21.740069919162327,-88.93951416015625,-40.697479248046875,-2.176666259765625,-1.1427480867593596,-2.228280246847927,3.5672760009765625,0.13570149739583334,-2.307001749674479,0.2043,0.3671,-0.5867,-0.0122,-0.0116,-0.00181,0.0009336521616205573,0.001000449643470347,0.0009531251853331923,0.00040806198376230896,0.0004944083630107343,0.0005558294942602515,0.011769188567996025,0.011828426271677017,0.00905721914023161,passive,0
2.8008,rehab,small_slow,21.741199962941007,-666.6290578151277,307.7995980175174,-177.38901033833505,0.13233442477289578,-149.98640531341817,-24.386,-0.1313,22.3443,25.7648,-2.009,-78.399,79.3100647879119,27.129676743309098,82.62862932564008,-21.68401930067274,-88.93850538465712,-40.732311672634545,-2.3399179288656407,-1.1427480867593596,-2.1932817213606124,3.456912570529514,0.13570149739583334,-2.307001749674479,0.284,0.3591,-0.0965,-0.00371,-4e-05,-0.0023,0.0009336521616205573,0.001000449643470347,0.0009531251853331923,0.00040806198376230896,0.0004944083630107343,0.0005558294942602515,0.011769188567996025,0.011828426271677017,0.00905721914023161,passive,0
2.8206,rehab,small_slow,21.137543242124128,-666.6353451894034,308.3359932683507,-177.38969260652257,0.13293167042765708,-149.98602492172424,-24.2281,-0.1778,21.0907,16.1811,-0.6526,-66.6258,79.25756699968092,27.10403291305693,82.57692695844291,-21.604122585720486,-88.937013414171,-40.78428480360243,-2.176666259765625,-1.0883331298828125,-2.1060709433980507,3.246731228298611,0.13570149739583334,-2.0355902777777777,0.2119,0.3797,-0.3888,-0.01012,0.00436,0.00813,0.0009336521616205573,0.001000449643470347,0.0009531251853331923,0.00040806198376230896,0.0004944083630107343,0.0005558294942602515,0.011769188567996025,0.011828426271677017,0.00905721914023161,passive,0
2.8407,rehab,small_slow,20.726995637328876,-666.6370837734846,308.6794475828857,-177.38975165364207,0.13303021738818332,-149.98705652519322,-23.9861,-0.1726,19.7581,8.5182,0.7379,-51.6281,79.22183423939317,27.08724069123221,82.54457983640161,-21.55379401312934,-88.93599616156683,-40.81841362847222,-2.2855029719890934,-1.0339181730062654,-1.9296982264754796,3.0822245279947915,0.06785074869791667,-2.103441026475694,0.2787,0.2657,0.0086,-0.02259,-0.00394,-0.00925,0.0009336521616205573,0.001000449643470347,0.0009531251853331923,0.00040806198376230896,0.0004944083630107343,0.0005558294942602515,0.011769188567996025,0.011828426271677017,0.00905721914023161,passive,0
2.8611,rehab,small_slow,20.32331115463227,-666.6418600977314,309.0072703157529,-177.38949433068294,0.13282037423786303,-149.98810410239045,-23.778,-0.1235,18.7373,12.9372,1.9498,-44.2493,79.18676093073175,27.071583813960007,82.51327288032758,-21.50610182020399,-88.93502129448784,-40.851898193359375,-2.2310880151125465,-0.9250814607827971,-1.8259467700920482,2.837397257486979,-0.0,-2.0355902777777777,0.3331,0.443,0.0897,-0.01052,0.00044,-0.0041,0.0009336521616205573,0.001000449643470347,0.0009531251853331923,0.00040806198376230896,0.0004944083630107343,0.0005558294942602515,0.011769188567996025,0.011828426271677017,0.00905721914023161,passive,0
2.8812,rehab,small_slow,19.74403717620254,-666.6438621144082,309.4588841821927,-177.3894827671152,0.13287223632870035,-149.98868744712772,-23.6843,-0.0456,18.0607,24.1245,2.6291,-41.6151,79.1363502729057,27.04950238218402,82.47076204507658,-21.439929538302952,-88.93354627821181,-40.90097215440538,-2.0134145906656093,-0.9250814607827971,-1.6936485366065903,2.579049004448785,0.06785074869791667,-1.8998803032769096,0.2992,0.3357,-1.0661,-0.01121,0.00742,0.00159,0.0009336521616205573,0.001000449643470347,0.0009531251853331923,0.00040806198376230896,0.0004944083630107343,0.0005558294942602515,0.011769188567996025,0.011828426271677017,0.00905721914023161,passive,0
2.901,rehab,small_slow,19.37270280837145,-666.6430698692043,309.7417054184924,-177.3892409541956,0.1327130371822301,-149.98860037547118,-23.2674,0.0351,17.4643,40.1375,2.2893,-42.4919,79.1040031508644,27.035402354627553,82.44466951577971,-21.399010552300346,-88.93257141113281,-40.93293931749132,-1.8501697200359684,-0.87066650390625,-1.5490790640953744,2.511011759440104,-0.0,-2.103441026475694,0.1771,0.4395,-0.3249,-0.01804,0.01107,0.00056,0.0009336521616205573,0.001000449643470347,0.0009531251853331923,0.00040806198376230896,0.0004944083630107343,0.0005558294942602515,0.011769188567996025,0.011828426271677017,0.00905721914023161,passive,0
2.9206,rehab,small_slow,18.755336943779625,-666.6398739701658,310.1895001376971,-177.39020163587273,0.13348923980422428,-149.98800078795261,-22.5548,0.0635,16.8788,57.0369,1.2935,-45.1958,79.0502136532623,27.01305578250696,82.40277054286238,-21.331829494900173,-88.93103705512152,-40.98656548394097,-1.8501697200359684,-0.7618297916827815,-1.499565804358756,2.3406219482421875,0.06785074869791667,-1.8998803032769096,0.0375,0.41,0.1006,-0.02881,-0.00033,0.00111,0.0009336521616205573,0.001000449643470347,0.0009531251853331923,0.00040806198376230896,0.0004944083630107343,0.0005558294942602515,0.011769188567996025,0.011828426271677017,0.00905721914023161,passive,0
2.9406,rehab,small_slow,18.42846655831871,-666.639895448487,310.4281273708364,-177.3907324685162,0.13397085339830353,-149.9868789581185,-20.622,0.0639,15.5274,66.7171,0.3339,-46.3853,79.02175525627514,27.00144399510752,82.37995487628596,-21.29575941297743,-88.93016391330295,-41.01573520236545,-1.7413330078125,-0.7074148348062346,-1.3479055272470606,2.237548828125,0.06785074869791667,-1.7641703287760415,0.2332,0.3733,0.0592,-0.01245,-0.00516,0.00033,0.0009336521616205573,0.001000449643470347,0.0009531251853331923,0.00040806198376230896,0.0004944083630107343,0.0005558294942602515,0.011769188567996025,0.011828426271677017,0.00905721914023161,passive,0
2.9618,rehab,small_slow,17.9654183551949,-666.6373581226293,310.77976481651746,-177.390864694301,0.13410640227353662,-149.98605073779223,-18.9491,0.0604,14.372,78.3372,-0.4539,-52.3682,78.9814063346032,26.984012717067603,82.34717945061108,-21.24407450358073,-88.92896016438802,-41.0563235812717,-1.5236663818359375,-0.7074148348062346,-1.3708707601717203,2.0687442355685763,0.06785074869791667,-1.696319580078125,0.205,0.2728,-0.1441,-0.01515,-0.00539,-0.0004,0.0009336521616205573,0.001000449643470347,0.0009531251853331923,0.00040806198376230896,0.0004944083630107343,0.0005558294942602515,0.011769188567996025,0.011828426271677017,0.00905721914023161,passive,0
2.9807,rehab,small_slow,17.684779383553764,-666.6356300940191,311.0053724302486,-177.39076563857975,0.1340774015979373,-149.98462670651153,-17.7434,0.0183,13.6204,83.4335,-0.8404,-55.8953,78.95693863972579,26.972883621064742,82.32615178174312,-21.211200290256077,-88.9281717936198,-41.081839667426216,-1.5236663818359375,-0.6529998779296875,-1.2942180067005724,1.9019826253255208,0.06785074869791667,-1.4927588568793402,0.2711,0.4157,0.2157,-0.01715,-0.00599,-0.00237,0.0009336521616205573,0.001000449643470347,0.0009531251853331923,0.00040806198376230896,0.0004944083630107343,0.0005558294942602515,0.011769188567996025,0.011828426271677017,0.00905721914023161,passive,0
3.001,rehab,small_slow,17.277073838964217,-666.6359716918694,311.32987773850425,-177.39020743454995,0.13360732600971642,-149.9843908213377,-15.4304,-0.0206,12.0326,79.9008,-0.6827,-53.9795,78.92146422131226,26.95720634838142,82.29561985129178,-21.164601643880207,-88.92713758680556,-41.11701965332031,-1.360414712735922,-0.544163165706219,-1.2519519163830446,1.8193393283420138,-0.06785074869791667,-1.357057359483507,0.3094,0.531,-0.1341,0.00298,0.00656,0.00218,0.0009336521616205573,0.001000449643470347,0.0009531251853331923,0.00040806198376230896,0.0004944083630107343,0.0005558294942602515,0.011769188567996025,0.011828426271677017,0.00905721914023161,passive,0
3.0211,rehab,small_slow,17.027517168718273,-666.6393302134337,311.52507887627195,-177.39013154430174,0.13356099237952543,-149.98427673072374,-14.3635,-0.0018,11.2916,75.3318,-0.2515,-50.5037,78.89980429469949,26.94825276289836,82.27638018013226,-21.135813395182293,-88.92650180392795,-41.13846672905816,-1.305999755859375,-0.5985781225827661,-1.1328291184831374,1.7404852973090277,-0.0,-1.2892066107855902,0.43,0.4869,0.617,-0.00601,-0.00526,-0.00055,0.0009336521616205573,0.001000449643470347,0.0009531251853331923,0.00040806198376230896,0.0004944083630107343,0.0005558294942602515,0.011769188567996025,0.011828426271677017,0.00905721914023161,passive,0
3.0407,rehab,small_slow,16.789449232955885,-666.6381116474452,311.70213828200986,-177.3904645907823,0.13383637433221773,-149.9847827728144,-13.0982,0.0154,10.3581,71.3637,0.0274,-48.0801,78.879075758528,26.93962550399327,82.25954036901493,-21.10928005642361,-88.92593383789062,-41.158387925889755,-1.1971630436359066,-0.489748208829672,-1.0047051458075495,1.6241878933376737,-0.0,-1.153496636284722,0.3907,0.3878,-0.2601,-0.00449,-0.00569,-0.00195,0.0009336521616205573,0.001000449643470347,0.0009531251853331923,0.00040806198376230896,0.0004944083630107343,0.0005558294942602515,0.011769188567996025,0.011828426271677017,0.00905721914023161,passive,0
3.0612,rehab,small_slow,16.480391851685756,-666.6387045776507,311.9492442442539,-177.3898996182853,0.13335789414913188,-149.9855279957658,-11.5291,0.0087,9.2735,73.5474,0.2319,-51.6416,78.85220140513808,26.927809762482596,82.23618762327892,-21.074032253689236,-88.92517937554253,-41.184115939670136,-1.0339181730062654,-0.489748208829672,-0.9514595258353961,1.3458167182074652,-0.0,-1.0177951388888888,0.2992,0.357,-0.0858,0.0006,-0.01166,-0.00054,0.0009336521616205573,0.001000449643470347,0.0009531251853331923,0.00040806198376230896,0.0004944083630107343,0.0005558294942602515,0.011769188567996025,0.011828426271677017,0.00905721914023161,passive,0
3.081,rehab,small_slow,16.289178674782516,-666.6399550637839,312.0987298283204,-177.3889776924558,0.13257058415710837,-149.9873522464292,-10.0358,0.0139,8.287,75.1439,0.2478,-54.8482,78.83559954048383,26.92067816705987,82.22231874371519,-21.053780449761284,-88.92474704318576,-41.19866265190972,-0.979496417659344,-0.435333251953125,-0.7904173596070545,1.2079026963975694,0.06785074869791667,-0.8142344156901041,0.4822,0.2239,-0.188,-0.00818,-0.00319,-0.00328,0.0009336521616205573,0.001000449643470347,0.0009531251853331923,0.00040806198376230896,0.0004944083630107343,0.0005558294942602515,0.011769188567996025,0.011828426271677017,0.00905721914023161,passive,0
3.1012,rehab,small_slow,16.062378517300015,-666.6342366839208,312.2857161218012,-177.38885655322596,0.1325003162820578,-149.98891561882732,-8.4987,0.0295,7.2838,80.9504,-0.0523,-60.6594,78.81577520087214,26.91104473453937,82.20560810353496,-21.027001274956596,-88.92420450846355,-41.21661716037326,-0.7074148348062346,-0.32649653972965653,-0.6201904599029239,1.0714213053385417,-0.0,-0.6106736924913194,0.4221,0.1436,-0.8743,-0.01523,-0.00385,-0.00587,0.0009336521616205573,0.001000449643470347,0.0009531251853331923,0.00040806198376230896,0.0004944083630107343,0.0005558294942602515,0.011769188567996025,0.011828426271677017,0.00905721914023161,passive,0
3.1206,rehab,small_slow,15.950915302770781,-666.6328407940456,312.39036291873157,-177.38883401994403,0.13246254974019284,-149.9887419444797,-7.1093,0.0194,6.2359,85.4185,-0.1245,-65.1443,78.80605338823678,26.90595268022896,82.1957775153736,-21.011810302734375,-88.92394171820746,-41.22634039984809,-0.489748208829672,-0.2176666259765625,-0.5810516659576114,0.8626386854383681,-0.06785074869791667,-0.5428229437934028,0.3082,0.1601,-1.0538,-0.0179,0.00815,0.00323,0.0009336521616205573,0.001000449643470347,0.0009531251853331923,0.00040806198376230896,0.0004944083630107343,0.0005558294942602515,0.011769188567996025,0.011828426271677017,0.00905721914023161,passive,0
3.141,rehab,small_slow,15.80713700486274,-666.6365652765577,312.53073405721443,-177.38878372668333,0.13244577265193946,-149.9881010486963,-5.0923,0.0008,4.5103,82.9368,0.0992,-64.457,78.79359859051091,26.89988164618464,82.18139875053178,-20.99099900987413,-88.9235602484809,-41.23920016818576,-0.3809114966062036,-0.16324487062964108,-0.45203709366297956,0.6290266248914931,0.06785074869791667,-0.4071129692925347,0.308,0.5195,0.8724,-0.01083,-0.00173,-0.00198,0.0009336521616205573,0.001000449643470347,0.0009531251853331923,0.00040806198376230896,0.0004944083630107343,0.0005558294942602515,0.011769188567996025,0.011828426271677017,0.00905721914023161,passive,0
3.1608,rehab,small_slow,15.751075169015323,-666.6380053096025,312.58701649707416,-177.38890677714465,0.13258229568036364,-149.98759089520487,-3.48,0.0046,3.1862,79.7384,0.0711,-62.0326,78.78873768419322,26.89747498767211,82.17551807365795,-20.98236083984375,-88.9233907063802,-41.24447292751736,-0.2176666259765625,-0.16324487062964108,-0.30525811828008975,0.4749637179904514,-0.0,-0.2714114718967014,0.3525,0.2419,-0.265,-0.01136,-0.00633,0.00338,0.0009336521616205573,0.001000449643470347,0.0009531251853331923,0.00040806198376230896,0.0004944083630107343,0.0005558294942602515,0.011769188567996025,0.011828426271677017,0.00905721914023161,passive,0
3.1806,rehab,small_slow,15.684163094884857,-666.6365134579914,312.64584124657256,-177.38932398431172,0.1329417253978154,-149.98777105915383,-1.8341,0.0023,1.9717,71.7687,-0.1996,-54.0359,78.78289099967125,26.89459243623337,82.16982095548423,-20.973052978515625,-88.92323811848958,-41.250033908420136,-0.16324487062964108,-0.10882991375309406,-0.18081891654741647,0.3127712673611111,-0.0,-0.20355224609375,0.4433,0.3821,-0.473,0.00605,-0.00097,0.00314,0.0009336521616205573,0.001000449643470347,0.0009531251853331923,0.00040806198376230896,0.0004944083630107343,0.0005558294942602515,0.011769188567996025,0.011828426271677017,0.00905721914023161,passive,0
3.2009,rehab,small_slow,15.648775586116333,-666.6358298106511,312.66877459466815,-177.3896891585397,0.13327006116812107,-149.98861641705105,-0.436,0.0156,0.96,60.8309,-0.3497,-42.3003,78.77980449412128,26.89346389015122,82.16750947555693,-20.969051784939236,-88.92317030164931,-41.25222947862413,-0.16324487062964108,-0.0,-0.11527486366800742,0.21341959635416666,-0.06785074869791667,-0.13570149739583334,0.4239,0.2265,-0.5179,-0.01206,-0.01495,-0.00069,0.0009336521616205573,0.001000449643470347,0.0009531251853331923,0.00040806198376230896,0.0004944083630107343,0.0005558294942602515,0.011769188567996025,0.011828426271677017,0.00905721914023161,passive,0
3.2208,rehab,small_slow,15.642965884346424,-666.636585552613,312.67281226616274,-177.39103841625789,0.134453676401229,-149.9875830876458,0.5803,0.0339,0.2773,46.8463,-0.3326,-28.4967,78.77930140731358,26.89361345649946,82.16593902890045,-20.965788099500866,-88.92312791612413,-41.25372992621528,0.05441495687654703,-0.0,0.024161763710550743,0.044199625651041664,-0.0,-0.0,0.2252,0.2175,-0.6442,-0.03588,-0.00646,-0.00368,0.0009336521616205573,0.001000449643470347,0.0009531251853331923,0.00040806198376230896,0.0004944083630107343,0.0005558294942602515,0.011769188567996025,0.011828426271677017,0.00905721914023161,passive,0
3.2409,rehab,small_slow,15.675489964417402,-666.6344479448733,312.6680969755524,-177.39184092282431,0.13517775721968742,-149.9847562679489,1.3132,0.0082,-0.1079,31.7541,-0.3116,-16.3758,78.78206838475596,26.893783418258817,82.16608859524868,-20.96502516004774,-88.92311096191406,-41.25378078884548,0.2176666259765625,0.05441495687654703,0.024630858166383045,0.032857259114583336,-0.0,-0.0,0.2882,0.3362,-0.2148,-0.01907,-0.00171,0.00037,0.0009336521616205573,0.001000449643470347,0.0009531251853331923,0.00040806198376230896,0.0004944083630107343,0.0005558294942602515,0.011769188567996025,0.011828426271677017,0.00905721914023161,passive,0
3.2611,rehab,small_slow,15.741777812056418,-666.6326193973667,312.66179051270325,-177.39216566261817,0.13549649809404352,-149.97938221064305,1.8328,-0.0293,-0.2497,20.2073,-0.1494,-9.1337,78.7877587044593,26.89408255095529,82.16653049582303,-20.965321858723957,-88.923094007704,-41.2534671359592,0.2176666259765625,0.05441495687654703,-0.0319120199373453,-0.003551907009548611,-0.0,-0.0,0.2753,0.3071,0.1283,-0.00976,-0.00607,0.0006,0.0009336521616205573,0.001000449643470347,0.0009531251853331923,0.00040806198376230896,0.0004944083630107343,0.0005558294942602515,0.011769188567996025,0.011828426271677017,0.00905721914023161,passive,0
3.2807,rehab,small_slow,15.780220698449897,-666.6337199640263,312.6604146887554,-177.39169769697259,0.1350907687740467,-149.976964020895,2.1901,-0.0364,-0.3549,12.8077,0.254,-5.3246,78.79110355188351,26.894320497418395,82.16661887593789,-20.966296725802952,-88.92311943901909,-41.25255160861545,0.2176666259765625,-0.0,0.018641405766553217,-0.08832295735677083,-0.0,0.06785074869791667,0.3549,0.3609,-0.8105,-0.0034,-0.00035,0.00397,0.0009336521616205573,0.001000449643470347,0.0009531251853331923,0.00040806198376230896,0.0004944083630107343,0.0005558294942602515,0.011769188567996025,0.011828426271677017,0.00905721914023161,passive,0
3.3008,rehab,small_slow,15.807759814950996,-666.6360885980571,312.65762328805215,-177.39082863897835,0.1343809081579587,-149.9766085491249,2.2855,-0.0133,-0.3845,10.2359,0.8352,-5.283,78.79353060580716,26.894680816348234,82.16694520251586,-20.968170166015625,-88.9231448703342,-41.250500149197045,0.10882991375309406,0.05441495687654703,0.027221075379022276,-0.16195509168836805,-0.06785074869791667,0.20355224609375,0.1724,0.1978,-0.323,-0.02614,-0.00699,0.00063,0.0009336521616205573,0.001000449643470347,0.0009531251853331923,0.00040806198376230896,0.0004944083630107343,0.0005558294942602515,0.011769188567996025,0.011828426271677017,0.00905721914023161,passive,0
3.3209,rehab,small_slow,15.843590179591493,-666.6391694262454,312.65249055364063,-177.38878163358103,0.1327469831052758,-149.97947163698132,2.3409,0.0179,-0.4884,11.0539,1.4596,-8.0643,78.79669869300163,26.895047933748454,82.16823011341661,-20.97262912326389,-88.92321268717448,-41.244515313042534,0.16324487062964108,-0.0,0.07035736990447092,-0.1725090874565972,-0.06785074869791667,0.2714114718967014,0.1941,0.4064,-0.0252,-0.02,0.00321,-0.0004,0.0009336521616205573,0.001000449643470347,0.0009531251853331923,0.00040806198376230896,0.0004944083630107343,0.0005558294942602515,0.011769188567996025,0.011828426271677017,0.00905721914023161,passive,0
3.3407,rehab,small_slow,15.885034927769981,-666.638661091789,312.6425237604287,-177.3872873527636,0.13160792247187583,-149.9819452572362,2.466,0.0486,-0.6915,12.399,1.6337,-11.0654,78.8002882853593,26.895272283270806,82.17029684841043,-20.976986355251736,-88.92327202690971,-41.23849656846788,0.2720815828531095,0.05441495687654703,0.11150171261022586,-0.22750006781684026,0.06785074869791667,0.2714114718967014,0.1629,0.2288,0.0716,-0.03341,-0.00196,-0.00124,0.0009336521616205573,0.001000449643470347,0.0009531251853331923,0.00040806198376230896,0.0004944083630107343,0.0005558294942602515,0.011769188567996025,0.011828426271677017,0.00905721914023161,passive,0
3.3609,rehab,small_slow,15.951899681314455,-666.6345655782998,312.6198756556009,-177.38659229477744,0.13113259101665045,-149.98415221572293,2.9613,0.0917,-1.0572,15.1974,1.1231,-13.635,78.80602619435527,26.895795765489634,82.17369608359762,-20.981996324327255,-88.92341613769531,-41.23060438368056,0.2176666259765625,-0.0,0.15692229318146658,-0.2261437310112847,-0.06785074869791667,0.4071129692925347,0.4493,0.2994,-0.3744,-0.01046,-0.01285,-0.00215,0.0009336521616205573,0.001000449643470347,0.0009531251853331923,0.00040806198376230896,0.0004944083630107343,0.0005558294942602515,0.011769188567996025,0.011828426271677017,0.00905721914023161,passive,0
3.3809,rehab,small_slow,16.005488573973494,-666.6313438794433,312.59978957952285,-177.38654603724302,0.131190952540335,-149.9852706921972,3.4292,0.1252,-1.383,19.7106,0.2682,-15.835,78.81062196032836,26.896400829352956,82.17621151763613,-20.985293918185764,-88.92351786295573,-41.22492472330729,0.32649653972965653,0.05441495687654703,0.15722142587793936,-0.1964145236545139,-0.0,0.339262220594618,0.2528,0.2563,-0.7357,-0.01755,-0.00519,0.00263,0.0009336521616205573,0.001000449643470347,0.0009531251853331923,0.00040806198376230896,0.0004944083630107343,0.0005558294942602515,0.011769188567996025,0.011828426271677017,0.00905721914023161,passive,0
3.401,rehab,small_slow,16.095676843461025,-666.6273669128692,312.56428166721355,-177.38640603990595,0.13118557651451007,-149.98672504246758,3.8929,0.1255,-1.7409,23.1256,-0.6281,-16.9011,78.8183858134959,26.897672143312963,82.18037218150526,-20.991126166449654,-88.92371283637152,-41.21576944986979,0.3809114966062036,0.10882991375309406,0.19017361178256498,-0.2714114718967014,0.06785074869791667,0.4071129692925347,0.2571,0.3893,0.6184,-0.01125,0.00143,-0.00195,0.0009336521616205573,0.001000449643470347,0.0009531251853331923,0.00040806198376230896,0.0004944083630107343,0.0005558294942602515,0.011769188567996025,0.011828426271677017,0.00905721914023161,passive,0
3.4207,rehab,small_slow,16.16169039625446,-666.6263256287514,312.5354647345957,-177.38618098098922,0.13104830710269164,-149.98747754852278,4.2097,0.0887,-2.0095,23.2809,-1.326,-15.9168,78.82410332708075,26.898950255743348,82.1834110977626,-20.995907253689236,-88.92386542426215,-41.209352281358505,0.3809114966062036,0.05441495687654703,0.19332810203627784,-0.3131188286675347,-0.0,0.4071129692925347,0.174,0.3134,-0.0877,-0.02558,0.00726,-0.00213,0.0009336521616205573,0.001000449643470347,0.0009531251853331923,0.00040806198376230896,0.0004944083630107343,0.0005558294942602515,0.011769188567996025,0.011828426271677017,0.00905721914023161,passive,0
3.4411,rehab,small_slow,16.272141418963702,-666.6261989055731,312.47888272893323,-177.38627879724052,0.13116016734931077,-149.98804233067992,4.5716,0.0325,-2.2584,21.9359,-1.8081,-14.0572,78.83370276724938,26.90175122553759,82.18865951689163,-21.004130045572918,-88.92415364583333,-41.199281480577255,0.435333251953125,0.10882991375309406,0.23695388642868193,-0.3640238444010417,-0.0,0.4749637179904514,0.3827,0.316,-0.3006,-0.00227,-0.00176,-0.0044,0.0009336521616205573,0.001000449643470347,0.0009531251853331923,0.00040806198376230896,0.0004944083630107343,0.0005558294942602515,0.011769188567996025,0.011828426271677017,0.00905721914023161,passive,0
3.4613,rehab,small_slow,16.353929499516234,-666.6254428387724,312.4333246384213,-177.38676704941892,0.1315763286404643,-149.98799753461836,5.2145,-0.0105,-2.6197,22.189,-1.9599,-13.3015,78.84080037032024,26.903974325350017,82.19273859911625,-21.010013156467014,-88.92437405056424,-41.19229634602865,0.435333251953125,0.10882991375309406,0.2678189419283725,-0.3576066758897569,-0.06785074869791667,0.4749637179904514,0.3313,0.3167,-0.5862,-0.00353,0.01032,0.00409,0.0009336521616205573,0.001000449643470347,0.0009531251853331923,0.00040806198376230896,0.0004944083630107343,0.0005558294942602515,0.011769188567996025,0.011828426271677017,0.00905721914023161,passive,0
3.4808,rehab,small_slow,16.441580432428506,-666.6263000844434,312.3877188987876,-177.38712918895396,0.13187880310908784,-149.98784151718772,5.6475,-0.0417,-2.8888,21.6827,-1.6024,-12.5123,78.84843505255067,26.906408177744044,82.19655933946666,-21.016031901041668,-88.9246114095052,-41.184887356228295,0.489748208829672,0.2176666259765625,0.2362808378616182,-0.4043155246310764,-0.0,0.4749637179904514,0.4648,0.3794,-0.4643,0.0076,0.00366,0.00267,0.0009336521616205573,0.001000449643470347,0.0009531251853331923,0.00040806198376230896,0.0004944083630107343,0.0005558294942602515,0.011769188567996025,0.011828426271677017,0.00905721914023161,passive,0
3.5008,rehab,small_slow,16.583355384753546,-666.6276478437602,312.3171585062515,-177.38744227255742,0.13208277807387414,-149.98720849943638,5.9545,-0.0639,-3.0754,19.226,-0.9018,-11.4683,78.86078787322091,26.91015413492033,82.20263037351098,-21.025848388671875,-88.92501831054688,-41.17328219943576,0.544163165706219,0.16324487062964108,0.2395373051709468,-0.4303910997178819,-0.0,0.5428229437934028,0.341,0.3016,-0.721,-0.01217,-0.00111,0.00282,0.0009336521616205573,0.001000449643470347,0.0009531251853331923,0.00040806198376230896,0.0004944083630107343,0.0005558294942602515,0.011769188567996025,0.011828426271677017,0.00905721914023161,passive,0
3.5207,rehab,small_slow,16.68381479931335,-666.6285231700462,312.26933026447676,-177.38741223225202,0.13202488696565684,-149.98665373557324,6.3012,-0.0722,-3.2434,15.3655,-0.1987,-10.3339,78.86953750459274,26.912662770488474,82.20690661137647,-21.03295220269097,-88.92528957790799,-41.165169609917534,0.544163165706219,0.16324487062964108,0.2745902184212562,-0.416319105360243,-0.0,0.5428229437934028,0.4441,0.3662,-0.0414,-0.00339,-0.00538,-0.00017,0.0009336521616205573,0.001000449643470347,0.0009531251853331923,0.00040806198376230896,0.0004944083630107343,0.0005558294942602515,0.011769188567996025,0.011828426271677017,0.00905721914023161,passive,0
3.5408,rehab,small_slow,16.859416331940707,-666.6298800755873,312.180397465484,-177.3876194786538,0.13209314484354484,-149.9864876202793,6.7559,-0.0721,-3.498,10.5652,0.3305,-8.4877,78.88484086140548,26.917306125754177,82.21477924007,-21.045744154188366,-88.9258321126302,-41.15018208821615,0.544163165706219,0.16324487062964108,0.2545007384649598,-0.5044979519314235,0.06785074869791667,0.5428229437934028,0.4027,0.2701,-0.1909,-0.01084,-0.00435,-0.00298,0.0009336521616205573,0.001000449643470347,0.0009531251853331923,0.00040806198376230896,0.0004944083630107343,0.0005558294942602515,0.011769188567996025,0.011828426271677017,0.00905721914023161,passive,0
3.561,rehab,small_slow,16.95783857810185,-666.6315614821393,312.1256574319469,-177.387764223405,0.13213832255786326,-149.98707525525842,6.937,-0.0588,-3.679,7.8744,0.6267,-7.0267,78.89344092642907,26.920249863426285,82.21948378156907,-21.053543090820312,-88.92617119683159,-41.141086154513886,0.5985781225827661,0.16324487062964108,0.3081202743077042,-0.4754299587673611,-0.0,0.5428229437934028,0.3585,0.4219,0.0113,-0.01746,-0.0101,-0.00288,0.0009336521616205573,0.001000449643470347,0.0009531251853331923,0.00040806198376230896,0.0004944083630107343,0.0005558294942602515,0.011769188567996025,0.011828426271677017,0.00905721914023161,passive,0
3.5809,rehab,small_slow,17.114677974285886,-666.633403925708,312.03901483985965,-177.38802309509765,0.1322569764476591,-149.9875721176399,6.916,-0.0402,-3.7919,6.9568,0.7282,-6.0078,78.9071262472927,26.924818435517867,82.22705047909577,-21.06585184733073,-88.92667982313368,-41.127048068576386,0.5985781225827661,0.16324487062964108,0.3666347088200031,-0.4785071478949653,-0.06785074869791667,0.6106736924913194,0.4484,0.3649,-0.9112,-0.00172,-0.00503,0.00136,0.0009336521616205573,0.001000449643470347,0.0009531251853331923,0.00040806198376230896,0.0004944083630107343,0.0005558294942602515,0.011769188567996025,0.011828426271677017,0.00905721914023161,passive,0
3.6008,rehab,small_slow,17.232592324348573,-666.634314481632,311.97701082561815,-177.38837032166302,0.13249690980408652,-149.98698635051284,6.9818,-0.023,-3.914,6.7286,0.6315,-5.0643,78.91739873602839,26.928088499767945,82.23238047986928,-21.074337429470486,-88.92701890733507,-41.11746046278212,0.6529998779296875,0.2176666259765625,0.3617873994430693,-0.5421193440755209,-0.06785074869791667,0.5428229437934028,0.3088,0.2413,-0.0634,-0.01574,-0.0153,-0.00508,0.0009336521616205573,0.001000449643470347,0.0009531251853331923,0.00040806198376230896,0.0004944083630107343,0.0005558294942602515,0.011769188567996025,0.011828426271677017,0.00905721914023161,passive,0
3.6207,rehab,small_slow,17.415648066358465,-666.6335679342792,311.87637302069686,-177.38930718644784,0.13324072829283068,-149.98619316801782,7.0893,-0.0062,-3.9741,8.2642,0.4589,-4.6537,78.93330715670444,26.933153360196858,82.24122528982635,-21.087527804904514,-88.92752753363715,-41.102498372395836,0.6529998779296875,0.2176666259765625,0.3862414973797184,-0.5936516655815972,-0.13570149739583334,0.6106736924913194,0.2993,0.2694,-0.5606,-0.00638,0.00029,-0.00086,0.0009336521616205573,0.001000449643470347,0.0009531251853331923,0.00040806198376230896,0.0004944083630107343,0.0005558294942602515,0.011769188567996025,0.011828426271677017,0.00905721914023161,passive,0
3.6409,rehab,small_slow,17.533862291392136,-666.6331194688182,311.806435141472,-177.3898274864958,0.13364899544003503,-149.9863903836736,7.3709,-0.0013,-4.0558,12.4757,0.3647,-5.4575,78.9435864439105,26.93663417702854,82.24749347951152,-21.09694586859809,-88.92787509494357,-41.09213087293837,0.7074148348062346,0.16324487062964108,0.3628683562325959,-0.6379275851779513,-0.0,0.5428229437934028,0.3105,0.3613,-0.0623,-0.01205,-0.00593,-0.00347,0.0009336521616205573,0.001000449643470347,0.0009531251853331923,0.00040806198376230896,0.0004944083630107343,0.0005558294942602515,0.011769188567996025,0.011828426271677017,0.00905721914023161,passive,0
3.6606,rehab,small_slow,17.6523712489416,-666.6329218787384,311.73653772814674,-177.3900728507743,0.13380486452917822,-149.98681399919292,7.6527,-0.0043,-4.1416,16.2108,0.3471,-6.535,78.95389972346844,26.940101396919477,82.25391123554495,-21.106881035698784,-88.92823961046007,-41.08150906032986,0.6529998779296875,0.2176666259765625,0.41011772533454516,-0.6639607747395834,-0.06785074869791667,0.678524441189236,0.3381,0.43,0.1138,-0.00508,0.0107,-0.00103,0.0009336521616205573,0.001000449643470347,0.0009531251853331923,0.00040806198376230896,0.0004944083630107343,0.0005558294942602515,0.011769188567996025,0.011828426271677017,0.00905721914023161,passive,0
3.681,rehab,small_slow,17.847375472478802,-666.6332981693874,311.6327720218202,-177.38983070470795,0.13352403575649863,-149.98676317636162,7.9814,-0.0064,-4.2773,17.5506,0.3388,-7.3202,78.97087550399327,26.945302226755878,82.26364664512106,-21.122716267903645,-88.92879909939236,-41.064766777886284,0.7074148348062346,0.2176666259765625,0.4358839280534499,-0.6784142388237847,-0.06785074869791667,0.678524441189236,0.4467,0.4342,-0.4252,0.01041,-0.00359,0.00368,0.0009336521616205573,0.001000449643470347,0.0009531251853331923,0.00040806198376230896,0.0004944083630107343,0.0005558294942602515,0.011769188567996025,0.011828426271677017,0.00905721914023161,passive,0
