t,trajectory_type,trajectory_variant,x,y,z,rx,ry,rz,vx,vy,vz,ax,ay,az,j1,j2,j3,j4,j5,j6,dj1,dj2,dj3,dj4,dj5,dj6,fx,fy,fz,tx,ty,tz,Mx,My,Mz,Bx,By,Bz,Kx,Ky,Kz,mode,comfort
0.0005,rehab,large_fast,80.22195935976615,-666.6340870253039,262.48022091056623,-177.38955969463373,0.13310750075304456,-149.98549992503848,0.7444,0.1148,-0.7221,-23.023,-4.0279,28.3157,84.42619248191909,30.03407846582998,85.85560487048461,-27.966283162434895,-89.09211052788628,-35.68874782986111,-0.0,-0.0,-5.4387762995049506e-05,0.020005967881944444,0.06785074869791667,-0.06785074869791667,2.0619,0.7685,3.2388,0.01725,-0.02816,-0.04961,0.0010842340998351574,0.0010001200716942549,0.0008382695959880948,0.0004649730690289289,0.0005000359378755093,0.0005742319044657052,0.009005180560052395,0.009485418908298016,0.011597619391977787,passive,1
0.021,rehab,large_fast,80.22197000959443,-666.6339767969044,262.4807476501311,-177.38952789551433,0.13308514069186408,-149.9855082442181,0.4913,0.0739,-0.4565,-22.1525,-3.4387,25.153,84.42619248191909,30.03403087653736,85.85560487048461,-27.96627468532986,-89.09211052788628,-35.68873935275607,-0.0,-0.0,-0.004228648572865099,0.007595486111111111,-0.0,-0.0,2.0126,0.7621,2.7227,0.01011,-0.02463,-0.04473,0.0010842340998351574,0.0010001200716942549,0.0008382695959880948,0.0004649730690289289,0.0005000359378755093,0.0005742319044657052,0.009005180560052395,0.009485418908298016,0.011597619391977787,passive,1
0.0412,rehab,large_fast,80.22189205012116,-666.6338126022133,262.481056671798,-177.38951628807857,0.13306634819319613,-149.98551530401036,-0.0062,0.0019,0.0546,-20.8031,-2.3377,19.8086,84.42618568344872,30.033990085715114,85.85562526589572,-27.96627468532986,-89.09211900499132,-35.68873935275607,-0.0,-0.05441495687654703,0.026969531975170172,0.016572740342881944,-0.06785074869791667,-0.0,2.0061,0.7965,3.1805,0.00487,-0.02344,-0.04324,0.0010842340998351574,0.0010001200716942549,0.0008382695959880948,0.0004649730690289289,0.0005000359378755093,0.0005742319044657052,0.009005180560052395,0.009485418908298016,0.011597619391977787,passive,1
0.0607,rehab,large_fast,80.22190154949827,-666.6338642997301,262.48152622224995,-177.38945750280595,0.13303467149221507,-149.98551523094915,-0.4598,-0.0479,0.4976,-19.3579,-1.3407,15.7455,84.42618568344872,30.033962891833617,85.85561166895498,-27.966300116644966,-89.09211052788628,-35.68873935275607,0.05441495687654703,-0.0,0.019198880337252474,-0.043385823567708336,-0.0,-0.0,2.1049,0.6981,2.8093,0.0078,-0.01994,-0.04441,0.0010842340998351574,0.0010001200716942549,0.0008382695959880948,0.0004649730690289289,0.0005000359378755093,0.0005742319044657052,0.009005180560052395,0.009485418908298016,0.011597619391977787,passive,1
0.0809,rehab,large_fast,80.22032924133904,-666.633785073327,262.4834019084616,-177.38933115152608,0.13293502085438888,-149.98567664726943,-0.8805,-0.0765,0.8828,-17.8333,-0.4299,12.9227,84.42604971404123,30.033806527015006,85.85559807201423,-27.96629163953993,-89.09211900499132,-35.68871392144097,-0.0,-0.05441495687654703,-0.006145817218440594,-0.007332695855034722,-0.0,-0.0,2.0157,0.7312,2.888,0.00373,-0.0206,-0.04785,0.0010842340998351574,0.0010001200716942549,0.0008382695959880948,0.0004649730690289289,0.0005000359378755093,0.0005742319044657052,0.009005180560052395,0.009485418908298016,0.011597619391977787,passive,1
0.1013,rehab,large_fast,80.21431055067522,-666.6332626607164,262.49161391878084,-177.38876805490733,0.13255289606181916,-149.98619627158322,-1.253,-0.073,1.1577,-16.6955,0.3123,12.1174,84.42551943335202,30.03311308303682,85.85554368425123,-27.966223822699654,-89.09210205078125,-35.688722398546005,-0.05441495687654703,-0.05441495687654703,-0.004534579739712253,0.009519788953993056,-0.0,-0.0,2.0187,0.7523,3.3499,-0.00447,-0.02493,-0.04748,0.0010842340998351574,0.0010001200716942549,0.0008382695959880948,0.0004649730690289289,0.0005000359378755093,0.0005742319044657052,0.009005180560052395,0.009485418908298016,0.011597619391977787,passive,1
0.121,rehab,large_fast,80.16724162333553,-666.6361615715313,262.5360825826879,-177.38580313451928,0.13041211952609594,-149.99015783833224,-1.5992,-0.0459,1.368,-14.9684,1.0524,12.1555,84.42145394806815,30.02985661572749,85.85440833969872,-27.96548631456163,-89.09211900499132,-35.688815646701386,-0.2176666259765625,-0.16324487062964108,-0.08827133934096534,0.0681728786892361,-0.0,-0.0,2.213,0.7341,3.4527,0.0224,-0.02152,-0.05153,0.0010842340998351574,0.0010001200716942549,0.0008382695959880948,0.0004649730690289289,0.0005000359378755093,0.0005742319044657052,0.009005180560052395,0.009485418908298016,0.011597619391977787,passive,1
0.1406,rehab,large_fast,80.11904835334134,-666.6402839881096,262.5822684307823,-177.38349439496812,0.1287559778753587,-149.9936727506305,-1.8084,-0.0173,1.4644,-14.2283,1.5155,14.2661,84.41729328419902,30.026708923944152,85.85247757411238,-27.963231404622395,-89.09211052788628,-35.68943447536892,-0.2176666259765625,-0.16324487062964108,-0.08776825253326113,0.13895670572916666,-0.0,-0.13570149739583334,1.9561,0.7016,2.877,0.00715,-0.01746,-0.04536,0.0010842340998351574,0.0010001200716942549,0.0008382695959880948,0.0004649730690289289,0.0005000359378755093,0.0005742319044657052,0.009005180560052395,0.009485418908298016,0.011597619391977787,passive,1
0.1609,rehab,large_fast,80.06604773983075,-666.6410681382464,262.6239143805031,-177.38337154233102,0.1285637423347579,-149.9948930532446,-2.1533,0.0113,1.8106,-17.3622,1.5024,21.1886,84.41267712281481,30.023588426042313,85.8503020635926,-27.95805189344618,-89.09209357367621,-35.6927744547526,-0.16324487062964108,-0.10882991375309406,-0.10070574165570854,0.2682410346137153,-0.0,-0.13570149739583334,2.2629,0.7907,3.5438,0.01919,-0.03213,-0.05403,0.0010842340998351574,0.0010001200716942549,0.0008382695959880948,0.0004649730690289289,0.0005000359378755093,0.0005742319044657052,0.009005180560052395,0.009485418908298016,0.011597619391977787,passive,1
0.1807,rehab,large_fast,80.03942143786043,-666.6386999333765,262.6426582537922,-177.38512737647605,0.12971144536875845,-149.9935444315316,-2.5227,0.0437,2.3385,-26.377,1.1152,33.7789,84.41032485206529,30.022011180915456,85.84877240775835,-27.952745225694443,-89.09206814236111,-35.696419609917534,-0.16324487062964108,-0.10882991375309406,-0.1325973661819307,0.3968726264105903,-0.0,-0.2714114718967014,2.1598,0.7519,3.1681,0.00476,-0.02949,-0.05282,0.0010842340998351574,0.0010001200716942549,0.0008382695959880948,0.0004649730690289289,0.0005000359378755093,0.0005742319044657052,0.009005180560052395,0.009485418908298016,0.011597619391977787,passive,1
0.2007,rehab,large_fast,79.98744313700966,-666.6340240130424,262.68562438725604,-177.38849671040663,0.13196480464394902,-149.99058444740922,-3.033,0.0706,3.0797,-40.1845,0.4592,49.8459,84.40572228762183,30.018550759494893,85.84529838939704,-27.941546969943577,-89.09196641710069,-35.70386250813802,-0.32649653972965653,-0.16324487062964108,-0.21186753074721534,0.5428144666883681,-0.0,-0.339262220594618,2.3379,0.7606,3.6681,0.01432,-0.015,-0.05698,0.0010842340998351574,0.0010001200716942549,0.0008382695959880948,0.0004649730690289289,0.0005000359378755093,0.0005742319044657052,0.009005180560052395,0.009485418908298016,0.011597619391977787,passive,1
0.2211,rehab,large_fast,79.92755592514459,-666.632697967173,262.7458196930471,-177.38969617848292,0.13278589007819463,-149.98918050349778,-3.938,0.0704,4.2472,-58.2473,-0.1329,68.0507,84.40045347308168,30.014145350692296,85.84130768728728,-27.931510077582466,-89.091796875,-35.7104237874349,-0.3809114966062036,-0.3809114966062036,-0.2732169274056312,0.6781853569878472,-0.06785074869791667,-0.4749637179904514,2.1089,0.7273,2.7609,0.02498,-0.02721,-0.04614,0.0010842340998351574,0.0010001200716942549,0.0008382695959880948,0.0004649730690289289,0.0005000359378755093,0.0005742319044657052,0.009005180560052395,0.009485418908298016,0.011597619391977787,passive,1
0.2409,rehab,large_fast,79.84739607458897,-666.6327525400058,262.8357287824653,-177.3898067311266,0.13292158683804378,-149.98808061136165,-5.2374,0.0557,5.7531,-80.7795,-0.6161,87.7591,84.39341025777382,30.007768385481125,85.83577373240253,-27.919201321072048,-89.09150865342882,-35.71842617458767,-0.489748208829672,-0.489748208829672,-0.42284446187538677,0.8456166585286458,0.06785074869791667,-0.5428229437934028,2.2834,0.7618,3.3734,0.03122,-0.03516,-0.04979,0.0010842340998351574,0.0010001200716942549,0.0008382695959880948,0.0004649730690289289,0.0005000359378755093,0.0005742319044657052,0.009005180560052395,0.009485418908298016,0.011597619391977787,passive,1
0.261,rehab,large_fast,79.6959259315927,-666.6323102599017,263.01441838265606,-177.38935333525873,0.13268209371417702,-149.98579925813914,-7.0801,0.0353,7.701,-103.7293,-1.0343,105.2856,84.38009885278079,29.995075641292157,85.82512732779625,-27.895931667751736,-89.09097459581163,-35.73375278049045,-0.5985781225827661,-0.6529998779296875,-0.5087703289371905,1.1194610595703125,-0.0,-0.7463751898871528,2.1275,0.8394,3.5702,0.02207,-0.02824,-0.04943,0.0010842340998351574,0.0010001200716942549,0.0008382695959880948,0.0004649730690289289,0.0005000359378755093,0.0005742319044657052,0.009005180560052395,0.009485418908298016,0.011597619391977787,passive,1
0.2808,rehab,large_fast,79.56500076419907,-666.6321435742153,263.1597048989619,-177.38916586881115,0.13259715344065343,-149.984437424048,-9.5435,0.0002,10.1458,-119.4472,-1.2009,115.1083,84.36860263937771,29.984694377030475,85.81649327042079,-27.876756456163193,-89.09055074055989,-35.74639214409722,-0.8162515470297029,-0.7074148348062346,-0.5476099901860303,1.2855105929904513,0.06785074869791667,-0.8820851643880208,2.2676,0.7272,3.2233,0.02138,-0.03383,-0.04833,0.0010842340998351574,0.0010001200716942549,0.0008382695959880948,0.0004649730690289289,0.0005000359378755093,0.0005742319044657052,0.009005180560052395,0.009485418908298016,0.011597619391977787,passive,1
0.3008,rehab,large_fast,79.31337155192763,-666.6341196984838,263.4178921598121,-177.3893906944254,0.13283744613457052,-149.98354212241014,-11.9525,-0.0155,12.4007,-128.1984,-0.986,118.7068,84.34654160301284,29.966331708549273,85.80075481150409,-27.841686672634548,-89.08980475531683,-35.76894972059462,-1.0883331298828125,-0.87066650390625,-0.7570300715984685,1.6044701470269096,0.06785074869791667,-1.0856458875868056,2.133,0.6103,3.449,0.01559,-0.02217,-0.05132,0.0010842340998351574,0.0010001200716942549,0.0008382695959880948,0.0004649730690289289,0.0005000359378755093,0.0005742319044657052,0.009005180560052395,0.009485418908298016,0.011597619391977787,passive,1
0.321,rehab,large_fast,79.1109637942713,-666.6332964159878,263.625553789048,-177.38946820524097,0.1329054785905126,-149.98311472280926,-14.7911,-0.0256,14.9603,-132.6292,-0.5085,119.8072,84.32878399839495,29.95127309667002,85.78863993729695,-27.813898722330727,-89.08925374348958,-35.78681945800781,-1.1971630436359066,-0.979496417659344,-0.8112478728341584,1.8580118815104165,0.06785074869791667,-1.153496636284722,2.2551,0.7061,4.065,0.02478,-0.03371,-0.05207,0.0010842340998351574,0.0010001200716942549,0.0008382695959880948,0.0004649730690289289,0.0005000359378755093,0.0005742319044657052,0.009005180560052395,0.009485418908298016,0.011597619391977787,passive,1
0.3407,rehab,large_fast,78.74547363407625,-666.6300074528497,263.9840111757149,-177.39016250878512,0.1334294731319433,-149.98317833011967,-17.9437,-0.0399,17.7358,-127.498,0.1812,114.0637,84.29670881516863,29.924922225498918,85.7680609674737,-27.76519775390625,-89.08827887641058,-35.818277994791664,-1.5236663818359375,-1.1427480867593596,-0.928310734210628,2.151853773328993,0.06785074869791667,-1.4249081081814237,2.277,0.714,3.6545,0.03948,-0.02163,-0.0474,0.0010842340998351574,0.0010001200716942549,0.0008382695959880948,0.0004649730690289289,0.0005000359378755093,0.0005742319044657052,0.009005180560052395,0.009485418908298016,0.011597619391977787,passive,1
0.3608,rehab,large_fast,78.38973788252449,-666.6328383602455,264.3382108376651,-177.39011073877808,0.1334585662668818,-149.98331001306764,-19.9156,-0.0351,19.3987,-116.811,1.0811,103.9057,84.26553782850209,29.899686303469213,85.74673416590926,-27.717785305447048,-89.08730400933159,-35.848778618706596,-1.686918050935953,-1.305999755859375,-1.1699283713161355,2.592485215928819,0.06785074869791667,-1.6284688313802083,2.1196,0.6917,3.549,0.0185,-0.02592,-0.05295,0.0010842340998351574,0.0010001200716942549,0.0008382695959880948,0.0004649730690289289,0.0005000359378755093,0.0005742319044657052,0.009005180560052395,0.009485418908298016,0.011597619391977787,passive,1
0.381,rehab,large_fast,77.88395443451894,-666.6358396533786,264.830336931358,-177.3902987676936,0.1336114726096022,-149.98415653625253,-22.1655,-0.0107,21.3704,-113.0473,1.6446,98.9519,84.22122539860187,29.864463428459544,85.7172695953067,-27.651629977756077,-89.08599853515625,-35.89149475097656,-1.9589996337890625,-1.5780813387124846,-1.2863657734181622,2.891447279188368,-0.0,-1.8998803032769096,2.1472,0.7274,3.6821,0.01886,-0.02292,-0.04846,0.0010842340998351574,0.0010001200716942549,0.0008382695959880948,0.0004649730690289289,0.0005000359378755093,0.0005742319044657052,0.009005180560052395,0.009485418908298016,0.011597619391977787,passive,1
0.4011,rehab,large_fast,77.50938358458463,-666.6348586510824,265.18967003434904,-177.39111245521275,0.13420794387831125,-149.98404000136432,-24.5681,0.0297,23.5491,-114.3884,1.6407,96.5514,84.18837518975286,29.838425286925666,85.69596998762376,-27.602352566189236,-89.08500671386719,-35.92390272352431,-2.176666259765625,-1.795747964689047,-1.3706260152382426,3.145929972330729,0.06785074869791667,-2.103441026475694,2.072,0.5931,2.763,0.02225,-0.03224,-0.04174,0.0010842340998351574,0.0010001200716942549,0.0008382695959880948,0.0004649730690289289,0.0005000359378755093,0.0005742319044657052,0.009005180560052395,0.009485418908298016,0.011597619391977787,passive,1
0.421,rehab,large_fast,76.87090077851563,-666.6367035634302,265.7969126645335,-177.39097487182423,0.1340789406969109,-149.984065991194,-26.4328,0.0753,25.203,-117.4957,1.2502,94.4605,84.1324237785717,29.794738316299892,85.6601624441619,-27.521464029947914,-89.08335367838542,-35.97891065809462,-2.3943328857421875,-1.9589996337890625,-1.5509894342705755,3.5518815782335067,0.06785074869791667,-2.374852498372396,2.1383,0.5674,3.4293,0.02864,-0.03086,-0.04651,0.0010842340998351574,0.0010001200716942549,0.0008382695959880948,0.0004649730690289289,0.0005000359378755093,0.0005742319044657052,0.009005180560052395,0.009485418908298016,0.011597619391977787,passive,1
0.441,rehab,large_fast,76.39630082195931,-666.6320994114543,266.2374786473096,-177.39100317400099,0.13414172609320352,-149.98466146017438,-28.5608,0.1296,26.9277,-133.2089,0.4389,102.9562,84.09077634905825,29.762268821791846,85.63539561658803,-27.46300591362847,-89.0820821126302,-36.019295586480034,-2.7752511808187657,-2.176666259765625,-1.5955534075746443,3.842434353298611,0.06785074869791667,-2.6462639702690973,2.1701,0.6933,3.9597,0.02577,-0.02752,-0.05156,0.0010842340998351574,0.0010001200716942549,0.0008382695959880948,0.0004649730690289289,0.0005000359378755093,0.0005742319044657052,0.009005180560052395,0.009485418908298016,0.011597619391977787,passive,1
0.4609,rehab,large_fast,75.89447635710569,-666.6295771381178,266.70628953659804,-177.3905541322218,0.13376340817526644,-149.9845907887818,-31.6004,0.1369,29.1623,-149.0826,-0.5645,110.6071,84.04676985032488,29.728099709690206,85.60865043413521,-27.40142822265625,-89.08079359266493,-36.06267293294271,-2.938502849918781,-2.176666259765625,-1.7445690797107054,3.948050604926215,-0.0,-2.781973944769965,2.185,0.625,3.766,0.03862,-0.02095,-0.05134,0.0010842340998351574,0.0010001200716942549,0.0008382695959880948,0.0004649730690289289,0.0005000359378755093,0.0005742319044657052,0.009005180560052395,0.009485418908298016,0.011597619391977787,passive,1
0.481,rehab,large_fast,75.09248275591924,-666.6243853487314,267.45382377339445,-177.38947191996402,0.1329769180010482,-149.9833895517886,-34.8833,0.0773,31.4214,-146.4512,-1.3776,101.8812,83.97641248042041,29.673616768109916,85.56615319582495,-27.30375501844618,-89.07862345377605,-36.13311767578125,-2.992917806795328,-2.2855029719890934,-1.8173127127165842,4.154730902777778,0.13570149739583334,-3.0533854166666665,2.1865,0.6124,3.9376,0.02682,-0.03408,-0.05129,0.0010842340998351574,0.0010001200716942549,0.0008382695959880948,0.0004649730690289289,0.0005000359378755093,0.0005742319044657052,0.009005180560052395,0.009485418908298016,0.011597619391977787,passive,1
0.501,rehab,large_fast,74.52498354779374,-666.6216700002383,267.97636981289116,-177.3885724452252,0.13232435094786327,-149.98224803138845,-37.7547,0.0263,33.2936,-141.3201,-1.7306,92.0843,83.92663408033918,29.635688101891244,85.53625352311842,-27.235590616861977,-89.07707214355469,-36.18325975206163,-3.373836101871906,-2.3399179288656407,-1.9210165798073948,4.3019866943359375,0.06785074869791667,-3.2569376627604165,2.0232,0.6211,3.7585,0.0294,-0.03433,-0.04669,0.0010842340998351574,0.0010001200716942549,0.0008382695959880948,0.0004649730690289289,0.0005000359378755093,0.0005742319044657052,0.009005180560052395,0.009485418908298016,0.011597619391977787,passive,1
0.5212,rehab,large_fast,73.61528672325366,-666.6222547994686,268.7698044111526,-177.38905476393373,0.1326988753224771,-149.98109784008392,-40.8593,-0.0179,35.4568,-130.5334,-1.5683,78.9977,83.8468880228477,29.578492570631575,85.48933048059445,-27.128558688693577,-89.07458835177951,-36.26293606228298,-3.482672814095374,-2.448754641089109,-1.917093862401377,4.5688120524088545,0.13570149739583334,-3.392647637261285,2.1481,0.5675,4.1731,0.03364,-0.04078,-0.05141,0.0010842340998351574,0.0010001200716942549,0.0008382695959880948,0.0004649730690289289,0.0005000359378755093,0.0005742319044657052,0.009005180560052395,0.009485418908298016,0.011597619391977787,passive,1
0.541,rehab,large_fast,72.8067906874449,-666.6261235777107,269.449633651864,-177.3900728198043,0.13346149668291632,-149.98117314149718,-44.2695,-0.0536,37.7575,-104.7184,-0.907,54.6952,83.77605476001702,29.529835918162128,85.44827451800356,-27.03555636935764,-89.07241821289062,-36.33263481987847,-3.7003394400719367,-2.557584554842203,-2.0976272431930694,4.674267239040798,0.06785074869791667,-3.528349134657118,2.1278,0.6082,3.9312,0.04397,-0.0371,-0.04796,0.0010842340998351574,0.0010001200716942549,0.0008382695959880948,0.0004649730690289289,0.0005000359378755093,0.0005742319044657052,0.009005180560052395,0.009485418908298016,0.011597619391977787,passive,1
0.5606,rehab,large_fast,71.76751241515697,-666.6311323537014,270.3028991193272,-177.39016675604336,0.13347412266118175,-149.98254388604343,-44.9226,-0.0521,37.5371,-77.8396,-0.0766,30.8733,83.68503004017442,29.46865648326307,85.3974967427773,-26.920954386393227,-89.06972249348958,-36.420983208550346,-3.7003394400719367,-2.61199951171875,-2.222141228099861,4.6882883707682295,0.06785074869791667,-3.664059109157986,2.0225,0.5337,3.8236,0.02399,-0.02523,-0.05257,0.0010842340998351574,0.0010001200716942549,0.0008382695959880948,0.0004649730690289289,0.0005000359378755093,0.0005742319044657052,0.009005180560052395,0.009485418908298016,0.011597619391977787,passive,1
0.581,rehab,large_fast,71.05838385117703,-666.63113565715,270.89731571891303,-177.3893900752457,0.1329296246574787,-149.98306094962584,-45.4848,-0.031,37.3014,-58.2664,0.25,12.5249,83.62287842401183,29.425928096960085,85.36269537293084,-26.842608981662327,-89.06781514485677,-36.48172166612413,-4.026835979801594,-2.7752511808187657,-2.1022298076365256,5.033213297526042,0.06785074869791667,-3.8676198323567705,2.1061,0.633,4.0247,0.05531,-0.02596,-0.04124,0.0010842340998351574,0.0010001200716942549,0.0008382695959880948,0.0004649730690289289,0.0005000359378755093,0.0005742319044657052,0.009005180560052395,0.009485418908298016,0.011597619391977787,passive,1
0.6009,rehab,large_fast,69.9653913795476,-666.6274419145221,271.81198064489695,-177.38761212915452,0.13162840683517002,-149.9828438527489,-47.7943,-0.0046,38.4596,-43.1052,0.1143,-1.7153,83.52704718561456,29.35998293432859,85.30974888565517,-26.72316657172309,-89.06485663519965,-36.57640245225694,-4.081257735148514,-2.7752511808187657,-2.2257240219871597,5.128267076280382,0.13570149739583334,-4.0033213297526045,1.9501,0.6309,3.5836,0.04156,-0.04986,-0.04379,0.0010842340998351574,0.0010001200716942549,0.0008382695959880948,0.0004649730690289289,0.0005000359378755093,0.0005742319044657052,0.009005180560052395,0.009485418908298016,0.011597619391977787,passive,1
0.6207,rehab,large_fast,69.20901132755996,-666.6275074083878,272.42099427248155,-177.38677188462194,0.1309888058234063,-149.98389661945765,-47.2768,0.0065,37.3561,-30.1417,-0.0119,-9.8036,83.46076889793471,29.31630276217319,85.2739685360748,-26.64288838704427,-89.0628645155165,-36.640709771050346,-4.081257735148514,-2.61199951171875,-2.278092639281018,4.977976481119792,0.13570149739583334,-4.139031304253472,1.9622,0.5146,3.428,0.03659,-0.03024,-0.04414,0.0010842340998351574,0.0010001200716942549,0.0008382695959880948,0.0004649730690289289,0.0005000359378755093,0.0005742319044657052,0.009005180560052395,0.009485418908298016,0.011597619391977787,passive,1
0.6412,rehab,large_fast,68.05565581944103,-666.6265290369663,273.312427341025,-177.38787648741976,0.1317829474260653,-149.98448890069767,-48.1116,-0.0041,37.2973,-33.2483,-0.1629,-3.152,83.37670581175549,29.262730815623065,85.22945895053373,-26.541595458984375,-89.060304429796,-36.72325134277344,-4.026835979801594,-2.7752511808187657,-2.183321962262144,4.975475735134548,0.13570149739583334,-4.071180555555555,1.9316,0.6192,3.7951,0.0577,-0.03507,-0.03967,0.0010842340998351574,0.0010001200716942549,0.0008382695959880948,0.0004649730690289289,0.0005000359378755093,0.0005742319044657052,0.009005180560052395,0.009485418908298016,0.011597619391977787,passive,1
0.6608,rehab,large_fast,67.28192796401656,-666.6261291022836,273.90358892483727,-177.3890271233353,0.13262155709899284,-149.98441305916282,-49.2828,-0.0389,37.5977,-29.9141,-0.2292,-1.9859,83.29188129689433,29.210083461043858,85.18465023229618,-26.439717610677082,-89.05771043565538,-36.80675930447048,-4.244502605778156,-2.503169597965656,-2.2420947386486696,5.012342664930555,0.13570149739583334,-4.139031304253472,1.7001,0.4638,3.9579,0.03245,-0.02047,-0.03746,0.0010842340998351574,0.0010001200716942549,0.0008382695959880948,0.0004649730690289289,0.0005000359378755093,0.0005742319044657052,0.009005180560052395,0.009485418908298016,0.011597619391977787,passive,1
0.6811,rehab,large_fast,66.1081820086228,-666.6295765110325,274.7822062830103,-177.39083168169833,0.13394881390046667,-149.98382799510526,-49.7561,-0.0715,37.4302,-14.8233,-0.0453,-13.0693,83.20617977935488,29.158326706083695,85.13921605478419,-26.338170369466145,-89.05504862467448,-36.89169141981337,-4.353339318001624,-2.6664212670656715,-2.313988562857751,5.091052585177951,0.13570149739583334,-4.206882052951388,1.6718,0.4542,4.1777,0.02568,-0.04218,-0.04204,0.0010842340998351574,0.0010001200716942549,0.0008382695959880948,0.0004649730690289289,0.0005000359378755093,0.0005742319044657052,0.009005180560052395,0.009485418908298016,0.011597619391977787,passive,1
0.7007,rehab,large_fast,65.1099454824583,-666.6323429270834,275.5213188545286,-177.3914744392329,0.13448906243503228,-149.9844673732746,-49.8937,-0.0497,37.257,-15.892,0.2803,-13.8977,83.11922734326656,29.10635240007155,85.09399942832418,-26.23684353298611,-89.0523444281684,-36.977293226453995,-4.4077542748781715,-2.6664212670656715,-2.363243480720142,5.12235853407118,0.13570149739583334,-4.206882052951388,1.6454,0.4072,4.0493,0.03558,-0.0392,-0.03949,0.0010842340998351574,0.0010001200716942549,0.0008382695959880948,0.0004649730690289289,0.0005000359378755093,0.0005742319044657052,0.009005180560052395,0.009485418908298016,0.011597619391977787,passive,1
0.7211,rehab,large_fast,64.30633262641418,-666.633982739961,276.1196741487239,-177.3911408419847,0.1342839216377967,-149.9855601427797,-50.171,-0.0165,37.0907,-10.847,0.5732,-20.8248,83.04899914429919,29.0643310546875,85.05701574948755,-26.156480577256943,-89.05018276638455,-37.04575432671441,-4.462176030225093,-2.6664212670656715,-2.316735144889001,5.007875230577257,0.06785074869791667,-4.342592027452257,1.7076,0.4352,4.0675,0.04234,-0.03779,-0.04218,0.0010842340998351574,0.0010001200716942549,0.0008382695959880948,0.0004649730690289289,0.0005000359378755093,0.0005742319044657052,0.009005180560052395,0.009485418908298016,0.011597619391977787,passive,1
0.7406,rehab,large_fast,63.091273929813106,-666.6328577002412,277.0244343074815,-177.38943009087043,0.1329629960759728,-149.9868994005779,-50.6404,0.0007,36.8275,2.5227,0.6459,-36.3621,82.94256229211788,29.00039823928682,85.00224727215154,-26.036766899956596,-89.04695298936632,-37.14919196234809,-4.353339318001624,-2.6664212670656715,-2.227783958510597,4.9191029866536455,0.13570149739583334,-4.274732801649305,1.7305,0.3677,3.5984,0.04141,-0.03051,-0.0346,0.0010842340998351574,0.0010001200716942549,0.0008382695959880948,0.0004649730690289289,0.0005000359378755093,0.0005742319044657052,0.009005180560052395,0.009485418908298016,0.011597619391977787,passive,1
0.7607,rehab,large_fast,62.28631928377528,-666.632129691746,277.61993800584304,-177.3881589025892,0.13203888726205876,-149.98741088669695,-49.0406,0.0196,34.8253,12.0478,0.4818,-48.0111,82.87177661857983,28.9583157076694,84.96607940975983,-25.95791286892361,-89.04477437337239,-37.21829732259115,-4.353339318001624,-2.6664212670656715,-2.321630043558555,4.927317301432292,0.06785074869791667,-4.206882052951388,1.6077,0.4134,3.3395,0.03707,-0.0413,-0.03641,0.0010842340998351574,0.0010001200716942549,0.0008382695959880948,0.0004649730690289289,0.0005000359378755093,0.0005742319044657052,0.009005180560052395,0.009485418908298016,0.011597619391977787,passive,1
0.7814,rehab,large_fast,61.08543638903719,-666.6292458298857,278.4710768974681,-177.38774670294944,0.13176312590340636,-149.9871690214349,-50.504,0.0236,34.7648,17.177,0.0776,-57.6838,82.74901663902962,28.887754383653697,84.90537586778697,-25.823974609375,-89.04092576768663,-37.33980814615885,-4.4077542748781715,-2.3943328857421875,-2.1529531950997836,4.777882893880208,0.13570149739583334,-4.47829352484809,1.3746,0.3373,3.2622,0.03228,-0.04068,-0.03096,0.0010842340998351574,0.0010001200716942549,0.0008382695959880948,0.0004649730690289289,0.0005000359378755093,0.0005742319044657052,0.009005180560052395,0.009485418908298016,0.011597619391977787,passive,1
0.8008,rehab,large_fast,60.280011581385736,-666.6278247535929,279.0056321255726,-177.3887393912686,0.13253015373510557,-149.98779002853067,-50.074,0.01,33.6714,12.5971,-0.1764,-57.2472,82.67845531501392,28.849880105198018,84.8723828910601,-25.749808417426216,-89.03873867458768,-37.40889655219184,-4.516590987101639,-2.3399179288656407,-2.0631861922764543,4.6640268961588545,0.13570149739583334,-4.274732801649305,1.2867,0.1752,2.8645,0.01901,-0.03178,-0.03438,0.0010842340998351574,0.0010001200716942549,0.0008382695959880948,0.0004649730690289289,0.0005000359378755093,0.0005742319044657052,0.009005180560052395,0.009485418908298016,0.011597619391977787,passive,1
0.8212,rehab,large_fast,59.07577192618599,-666.6311978941047,279.7853146521606,-177.38964407891478,0.13317954401484125,-149.98783665073645,-48.8505,-0.0124,31.7424,5.9103,-0.1071,-51.5913,82.57303143491839,28.795281589621364,84.82345429977568,-25.642081366644966,-89.03548346625433,-37.513037787543404,-4.4077542748781715,-2.2310880151125465,-1.964445208558942,4.317220052083333,0.20355224609375,-4.342592027452257,1.3068,0.2514,2.8933,0.03191,-0.03279,-0.02821,0.0010842340998351574,0.0010001200716942549,0.0008382695959880948,0.0004649730690289289,0.0005000359378755093,0.0005742319044657052,0.009005180560052395,0.009485418908298016,0.011597619391977787,passive,1
0.8405,rehab,large_fast,58.285655472887385,-666.6316313968115,280.28209620365425,-177.39076574878248,0.1340499329116368,-149.98683749903654,-48.8417,-0.015,30.8291,-2.0429,-0.069,-43.2059,82.52108432278774,28.769168664913366,84.79999957698406,-25.589650472005207,-89.03380499945746,-37.56513807508681,-4.244502605778156,-2.2855029719890934,-1.9503655764135983,4.4025421142578125,0.06785074869791667,-4.206882052951388,1.2617,0.2425,3.2531,0.0366,-0.03119,-0.03131,0.0010842340998351574,0.0010001200716942549,0.0008382695959880948,0.0004649730690289289,0.0005000359378755093,0.0005742319044657052,0.009005180560052395,0.009485418908298016,0.011597619391977787,passive,1
0.8612,rehab,large_fast,57.10937725962599,-666.6331882962851,281.01718677568334,-177.39091376868976,0.13423369896109988,-149.9840219273313,-48.3276,-0.0045,29.6764,-4.4109,-0.1052,-38.4119,82.4178699455639,28.71737791760133,84.75398073101988,-25.488391452365452,-89.03045654296875,-37.66962687174479,-4.244502605778156,-2.067836346012531,-1.8503328833249535,4.155137803819445,0.20355224609375,-4.410442776150173,1.0962,0.086,3.1707,0.02022,-0.04635,-0.03199,0.0010842340998351574,0.0010001200716942549,0.0008382695959880948,0.0004649730690289289,0.0005000359378755093,0.0005742319044657052,0.009005180560052395,0.009485418908298016,0.011597619391977787,passive,1
0.8812,rehab,large_fast,56.315674337124385,-666.6317137999932,281.51426348204063,-177.38957237352514,0.13319594194192647,-149.98353429402434,-49.8535,0.0022,29.9388,-10.055,-0.1101,-34.2115,82.33132541769803,28.673670551564435,84.71668432254603,-25.406511094835068,-89.0277099609375,-37.75633070203993,-4.571005943978187,-2.176666259765625,-1.8377761085434716,4.1387685139973955,0.13570149739583334,-4.342592027452257,1.2061,-0.0296,3.2336,0.02684,-0.05344,-0.0288,0.0010842340998351574,0.0010001200716942549,0.0008382695959880948,0.0004649730690289289,0.0005000359378755093,0.0005742319044657052,0.009005180560052395,0.009485418908298016,0.011597619391977787,passive,1
0.9009,rehab,large_fast,55.50832910059992,-666.6316888747942,281.99524443337685,-177.38859292246153,0.13248023998060962,-149.98417189708258,-50.416,0.0178,29.6058,-23.1732,-0.1967,-22.592,82.27840612430384,28.648264667775372,84.69491562040726,-25.358573065863716,-89.02602301703558,-37.80819363064236,-4.353339318001624,-2.176666259765625,-1.8179109781095297,3.9153883192274304,0.20355224609375,-4.342592027452257,1.0374,0.0865,3.1979,0.03214,-0.0376,-0.02811,0.0010842340998351574,0.0010001200716942549,0.0008382695959880948,0.0004649730690289289,0.0005000359378755093,0.0005742319044657052,0.009005180560052395,0.009485418908298016,0.011597619391977787,passive,1
0.9207,rehab,large_fast,54.104999717147976,-666.6299176352353,282.81382210361573,-177.3875475330448,0.13163152624000082,-149.98479315560402,-50.058,0.0037,28.6428,-21.6868,-0.4039,-18.1938,82.13780016002089,28.581796022925047,84.63808040807743,-25.23290846082899,-89.02164883083768,-37.94659084743923,-4.244502605778156,-2.122251302889078,-1.7585739286819306,3.84474860297309,0.20355224609375,-4.274732801649305,0.8497,0.0439,3.0431,0.01741,-0.04923,-0.02425,0.0010842340998351574,0.0010001200716942549,0.0008382695959880948,0.0004649730690289289,0.0005000359378755093,0.0005742319044657052,0.009005180560052395,0.009485418908298016,0.011597619391977787,passive,1
0.941,rehab,large_fast,53.30400079209991,-666.6289059518422,283.2608485781248,-177.38800550333733,0.13193662820039387,-149.9846045805069,-50.472,-0.0281,28.1673,-13.9444,-0.5474,-16.6454,82.08475849415996,28.55779742250348,84.61742665508005,-25.186564127604164,-89.02004665798611,-37.99876742892795,-4.298924361125077,-1.9045846769125154,-1.7181366268951113,3.814570109049479,0.13570149739583334,-4.274732801649305,0.9788,-0.0322,3.3071,0.02621,-0.04148,-0.0303,0.0010842340998351574,0.0010001200716942549,0.0008382695959880948,0.0004649730690289289,0.0005000359378755093,0.0005742319044657052,0.009005180560052395,0.009485418908298016,0.011597619391977787,passive,1
0.9608,rehab,large_fast,52.11792857441234,-666.6306667181614,283.91291379947626,-177.38894186799723,0.13270188220655105,-149.98383163657562,-50.5321,-0.0387,27.6495,2.2945,-0.4271,-18.444,81.9811498056544,28.512234074054376,84.57596278426671,-25.095011393229164,-89.01668124728732,-38.10249328613281,-4.298924361125077,-1.9045846769125154,-1.6173832959467822,3.843349880642361,0.20355224609375,-4.274732801649305,0.9421,-0.0501,3.6929,0.02341,-0.04939,-0.02755,0.0010842340998351574,0.0010001200716942549,0.0008382695959880948,0.0004649730690289289,0.0005000359378755093,0.0005742319044657052,0.009005180560052395,0.009485418908298016,0.011597619391977787,passive,1
0.9813,rehab,large_fast,51.32962747120948,-666.6335996732045,284.3377982386575,-177.38997433844645,0.13353294453523976,-149.98329344489306,-51.0142,-0.045,27.7101,18.7358,-0.1709,-19.1511,81.91224050993966,28.482851085096303,84.54827941290223,-25.03448486328125,-89.0144771999783,-38.17109849717882,-4.244502605778156,-1.795747964689047,-1.7497495141359838,3.7372250027126737,0.20355224609375,-4.342592027452257,0.9392,0.0716,3.8375,0.02286,-0.03972,-0.02862,0.0010842340998351574,0.0010001200716942549,0.0008382695959880948,0.0004649730690289289,0.0005000359378755093,0.0005742319044657052,0.009005180560052395,0.009485418908298016,0.011597619391977787,passive,1
1.001,rehab,large_fast,50.13660510945978,-666.6340010859575,284.97765248253813,-177.39139853997534,0.13457319999889267,-149.9829389918162,-50.7104,-0.0468,27.4855,15.6019,0.1724,-9.3687,81.80794517592628,28.438416282729346,84.50700589925935,-24.944068060980904,-89.01122199164496,-38.27485826280382,-4.298924361125077,-1.8501697200359684,-1.7556777803024444,3.751085069444444,0.13570149739583334,-4.546152750651042,0.926,0.0536,3.0281,0.03034,-0.0389,-0.02004,0.0010842340998351574,0.0010001200716942549,0.0008382695959880948,0.0004649730690289289,0.0005000359378755093,0.0005742319044657052,0.009005180560052395,0.009485418908298016,0.011597619391977787,passive,1
1.0211,rehab,large_fast,49.33133624427271,-666.6371644117521,285.41236755477394,-177.39156660220556,0.13470227642044497,-149.9832372616549,-49.868,-0.0351,27.1839,12.6941,0.5988,-1.9779,81.73785974483678,28.408944913656406,84.4786766732093,-24.883609347873264,-89.00909423828125,-38.3440907796224,-4.298924361125077,-1.9045846769125154,-1.811656385365099,3.835110134548611,0.13570149739583334,-4.342592027452257,0.8096,0.0207,3.1266,0.0343,-0.03932,-0.02385,0.0010842340998351574,0.0010001200716942549,0.0008382695959880948,0.0004649730690289289,0.0005000359378755093,0.0005742319044657052,0.009005180560052395,0.009485418908298016,0.011597619391977787,passive,1
1.0407,rehab,large_fast,48.129070940706804,-666.6340288020692,286.068568467182,-177.39192195647905,0.13502810485248506,-149.9832150432138,-49.4452,-0.0102,27.1832,13.5742,0.7641,-1.2373,81.61496379587909,28.356141194258587,84.42941495687654,-24.777433607313366,-89.00518629286024,-38.46575419108073,-4.4077542748781715,-1.8501697200359684,-1.8122682476987932,3.707631429036458,0.06785074869791667,-4.342592027452257,0.7522,-0.1751,2.225,0.02734,-0.04063,-0.01565,0.0010842340998351574,0.0010001200716942549,0.0008382695959880948,0.0004649730690289289,0.0005000359378755093,0.0005742319044657052,0.009005180560052395,0.009485418908298016,0.011597619391977787,passive,1
1.0607,rehab,large_fast,47.315566995474555,-666.6336175915428,286.52537464570014,-177.39031711384294,0.1337423295990066,-149.98439048766934,-48.0907,0.0071,26.525,8.7977,0.6979,-1.6079,81.5438178034112,28.325024595355043,84.40032430214457,-24.717186821831596,-89.00300767686632,-38.53502909342448,-4.571005943978187,-1.9045846769125154,-1.8283602270749535,3.7925550672743054,0.06785074869791667,-4.274732801649305,0.7621,-0.1128,3.2273,0.02597,-0.03959,-0.02186,0.0010842340998351574,0.0010001200716942549,0.0008382695959880948,0.0004649730690289289,0.0005000359378755093,0.0005742319044657052,0.009005180560052395,0.009485418908298016,0.011597619391977787,passive,1
1.0812,rehab,large_fast,46.098678972089566,-666.634460354072,287.208774767225,-177.38850354568217,0.13226504431787323,-149.98570945738737,-49.3284,0.0095,27.2655,-2.7349,0.5006,0.1092,81.43742174205214,28.279080532564976,84.35556317319964,-24.625667995876736,-88.99975246853299,-38.63905164930556,-4.353339318001624,-1.9045846769125154,-1.9076235931698637,3.8330078125,0.20355224609375,-4.342592027452257,0.5846,-0.1967,2.6736,0.02412,-0.04502,-0.01994,0.0010842340998351574,0.0010001200716942549,0.0008382695959880948,0.0004649730690289289,0.0005000359378755093,0.0005742319044657052,0.009005180560052395,0.009485418908298016,0.011597619391977787,passive,1
1.1007,rehab,large_fast,45.289347467559665,-666.6345104500413,287.65201141344505,-177.38831018652505,0.13206456830433533,-149.98659985335553,-50.3757,0.0221,27.7826,-20.1263,0.0901,6.0692,81.36666326239558,28.2494052093808,84.32587425307472,-24.56448025173611,-88.9976077609592,-38.70821634928385,-4.516590987101639,-1.8501697200359684,-1.86756700572401,3.7844000922309027,0.06785074869791667,-4.139031304253472,0.6646,0.0139,2.5157,0.03961,-0.03717,-0.01168,0.0010842340998351574,0.0010001200716942549,0.0008382695959880948,0.0004649730690289289,0.0005000359378755093,0.0005742319044657052,0.009005180560052395,0.009485418908298016,0.011597619391977787,passive,1
1.1206,rehab,large_fast,44.48278033637491,-666.6338822188293,288.10025868506443,-177.38775660691633,0.13161995033039078,-149.9869590795013,-49.7607,0.0279,27.2552,-35.6701,-0.3565,13.9073,81.29613593073175,28.219539529026143,84.29578422319771,-24.50312296549479,-88.99542066786024,-38.77767774793837,-4.353339318001624,-1.9045846769125154,-1.8783017904451578,3.8430107964409723,0.13570149739583334,-4.206882052951388,0.5702,-0.1714,1.9563,0.02136,-0.03569,-0.01278,0.0010842340998351574,0.0010001200716942549,0.0008382695959880948,0.0004649730690289289,0.0005000359378755093,0.0005742319044657052,0.009005180560052395,0.009485418908298016,0.011597619391977787,passive,1
1.1409,rehab,large_fast,43.269005540794616,-666.6347145207644,288.75094360925823,-177.38841962352342,0.13212875934220902,-149.9882072292515,-50.1502,0.0129,27.2235,-36.1928,-0.5942,17.9435,81.19004580053952,28.176586793200805,84.25076475237856,-24.41115485297309,-88.99217393663194,-38.88146294487847,-4.353339318001624,-1.8501697200359684,-1.9737183221495977,3.8460201687282987,0.20355224609375,-4.274732801649305,0.4541,-0.0856,2.3758,0.02433,-0.03511,-0.01233,0.0010842340998351574,0.0010001200716942549,0.0008382695959880948,0.0004649730690289289,0.0005000359378755093,0.0005742319044657052,0.009005180560052395,0.009485418908298016,0.011597619391977787,passive,1
1.1609,rehab,large_fast,42.278308918974695,-666.6338724980163,289.2901191224501,-177.38921363329936,0.13281780601098384,-149.98765367718642,-51.0701,-0.0007,27.6245,-10.4794,-0.6382,9.8246,81.10342648949954,28.141261941135518,84.21291086933401,-24.334292941623264,-88.98942735460069,-38.96775139702691,-4.135672692025062,-1.686918050935953,-1.8427389919167698,3.9089457194010415,0.06785074869791667,-4.47829352484809,0.5174,-0.1538,2.1264,0.01485,-0.04049,-0.01464,0.0010842340998351574,0.0010001200716942549,0.0008382695959880948,0.0004649730690289289,0.0005000359378755093,0.0005742319044657052,0.009005180560052395,0.009485418908298016,0.011597619391977787,passive,1
1.1809,rehab,large_fast,41.09640098817191,-666.6327638428991,289.93800419752563,-177.390362930609,0.13380937524737097,-149.98610422111273,-51.8063,-0.0275,28.1878,14.5902,-0.5708,2.9018,81.00009653827932,28.099254192692218,84.16664047996596,-24.241324530707466,-88.98612976074219,-39.07156202528212,-4.462176030225093,-1.7413330078125,-1.8935779533763923,3.916041056315104,0.13570149739583334,-4.410442776150173,0.3685,-0.0598,3.1014,0.01936,-0.03132,-0.01513,0.0010842340998351574,0.0010001200716942549,0.0008382695959880948,0.0004649730690289289,0.0005000359378755093,0.0005742319044657052,0.009005180560052395,0.009485418908298016,0.011597619391977787,passive,1
1.2008,rehab,large_fast,40.29449923805335,-666.6310023827604,290.36686361931163,-177.39174707956008,0.13491258296554354,-149.9857951856779,-52.5001,-0.0434,28.9201,20.1767,-0.2579,6.249,80.92999751024907,28.071468844272122,84.13570064129216,-24.178695678710938,-88.98396809895833,-39.14125230577257,-4.298924361125077,-1.7413330078125,-1.9616578357054455,3.856167263454861,0.06785074869791667,-4.274732801649305,0.3619,-0.1204,3.2335,0.00639,-0.02838,-0.01746,0.0010842340998351574,0.0010001200716942549,0.0008382695959880948,0.0004649730690289289,0.0005000359378755093,0.0005742319044657052,0.009005180560052395,0.009485418908298016,0.011597619391977787,passive,1
1.2207,rehab,large_fast,39.07280274784699,-666.6342548638156,291.0378075090607,-177.39183220285898,0.1349225236356438,-149.9878891190366,-51.4609,-0.0343,28.9181,29.3283,0.4163,4.1898,80.82332271160466,28.029046389135985,84.08666327448175,-24.08398946126302,-88.98079766167534,-39.244749281141495,-4.298924361125077,-1.686918050935953,-2.0250195795946784,4.068332248263888,0.13570149739583334,-4.274732801649305,0.452,-0.2433,2.4175,0.0149,-0.03854,-0.0167,0.0010842340998351574,0.0010001200716942549,0.0008382695959880948,0.0004649730690289289,0.0005000359378755093,0.0005742319044657052,0.009005180560052395,0.009485418908298016,0.011597619391977787,passive,1
1.2408,rehab,large_fast,38.26475926338374,-666.6378307173994,291.49228275933257,-177.39157305445508,0.13462552052567248,-149.98903402386256,-48.7595,-0.022,27.9391,32.5089,1.0107,0.8972,80.7528021784112,28.00081234167118,84.05282728742844,-24.020199245876736,-88.9787377251519,-39.31339687771267,-4.4077542748781715,-1.7413330078125,-2.163218885365099,4.004321628146701,0.13570149739583334,-4.410442776150173,0.3745,-0.2221,2.5486,0.00853,-0.03426,-0.01887,0.0010842340998351574,0.0010001200716942549,0.0008382695959880948,0.0004649730690289289,0.0005000359378755093,0.0005742319044657052,0.009005180560052395,0.009485418908298016,0.011597619391977787,passive,1
1.2609,rehab,large_fast,37.070506725884606,-666.6380364990935,292.18809143415797,-177.39039984334588,0.13370554186556488,-149.98863785706132,-47.372,-0.0042,27.4875,29.0915,1.0995,-2.8766,80.64848644898669,27.95745849609375,84.00158721621673,-23.923907809787327,-88.97549947102864,-39.417004055447045,-4.298924361125077,-1.686918050935953,-2.1479427224338643,4.063330756293403,0.13570149739583334,-4.139031304253472,0.1652,-0.2437,2.2315,0.00587,-0.04416,-0.00878,0.0010842340998351574,0.0010001200716942549,0.0008382695959880948,0.0004649730690289289,0.0005000359378755093,0.0005742319044657052,0.009005180560052395,0.009485418908298016,0.011597619391977787,passive,1
1.2814,rehab,large_fast,36.280940434436495,-666.6375863027592,292.6564021137212,-177.38893818896497,0.1326575819280396,-149.98757728358163,-48.7789,0.0256,28.5158,20.8651,0.6902,-5.2995,80.57950237009784,27.928435826065517,83.9671529637705,-23.860109117296005,-88.97323608398438,-39.48631286621094,-4.298924361125077,-1.795747964689047,-2.1871766949644185,3.990444607204861,0.13570149739583334,-4.274732801649305,0.2894,-0.1936,3.0168,0.01222,-0.04598,-0.01318,0.0010842340998351574,0.0010001200716942549,0.0008382695959880948,0.0004649730690289289,0.0005000359378755093,0.0005742319044657052,0.009005180560052395,0.009485418908298016,0.011597619391977787,passive,1
1.3008,rehab,large_fast,35.10066123199775,-666.6336988668287,293.3582901157442,-177.3877080280585,0.13164111424403854,-149.9858557857352,-48.7878,0.0648,28.5477,-8.2094,-0.0005,6.2705,80.47637637298887,27.885020794254718,83.91503588988049,-23.762969970703125,-88.97003173828125,-39.590047200520836,-4.298924361125077,-1.7413330078125,-2.232794431176516,4.012544420030382,0.13570149739583334,-4.274732801649305,0.1867,-0.2856,2.3366,0.007,-0.04916,-0.00728,0.0010842340998351574,0.0010001200716942549,0.0008382695959880948,0.0004649730690289289,0.0005000359378755093,0.0005742319044657052,0.009005180560052395,0.009485418908298016,0.011597619391977787,passive,1
1.3214,rehab,large_fast,34.310582694481106,-666.6326558945099,293.8302006438911,-177.38679723381517,0.13073454788187466,-149.98512046591642,-48.9296,0.0815,28.4896,-40.5995,-0.5628,23.7797,80.40739909257039,27.856263264571087,83.87939830817798,-23.697721693250866,-88.96802266438802,-39.659016927083336,-4.353339318001624,-1.7413330078125,-2.1750550222868967,4.013714260525173,0.13570149739583334,-4.274732801649305,0.2122,-0.2983,2.1144,0.01248,-0.02775,-0.01329,0.0010842340998351574,0.0010001200716942549,0.0008382695959880948,0.0004649730690289289,0.0005000359378755093,0.0005742319044657052,0.009005180560052395,0.009485418908298016,0.011597619391977787,passive,1
1.341,rehab,large_fast,33.52150506376227,-666.6314664720461,294.27632787263065,-177.3879846324494,0.13173931701988917,-149.9840033898597,-50.334,0.0322,29.2189,-48.6228,-0.6401,33.6803,80.33848979685565,27.82927333718479,83.8443657903388,-23.631998697916668,-88.9658694797092,-39.728291829427086,-4.244502605778156,-1.7413330078125,-2.3051709467821784,4.209849039713542,0.13570149739583334,-4.410442776150173,0.0787,-0.2654,2.0746,0.01253,-0.03452,-0.00838,0.0010842340998351574,0.0010001200716942549,0.0008382695959880948,0.0004649730690289289,0.0005000359378755093,0.0005742319044657052,0.009005180560052395,0.009485418908298016,0.011597619391977787,passive,1
1.3609,rehab,large_fast,32.13328898660314,-666.6308249831268,295.06988559382853,-177.38987733664794,0.13344704823684997,-149.9824609344041,-49.1861,-0.0215,28.6028,-32.4815,-0.3559,31.9389,80.21729346549157,27.7819559833791,83.78107203115331,-23.51507398817274,-88.9620378282335,-39.84969245062934,-4.190087648901609,-1.6325030940594059,-2.391933025700031,4.206500583224826,0.13570149739583334,-4.274732801649305,0.2274,-0.358,2.386,0.02157,-0.03637,-0.01687,0.0010842340998351574,0.0010001200716942549,0.0008382695959880948,0.0004649730690289289,0.0005000359378755093,0.0005742319044657052,0.009005180560052395,0.009485418908298016,0.011597619391977787,passive,1
1.382,rehab,large_fast,31.330343554436347,-666.6311417761583,295.53346546558265,-177.3908432016546,0.1342306625506084,-149.9824003512325,-51.5852,-0.0461,30.3872,-12.71,0.2015,28.928,80.14723522828356,27.75468052023708,83.74363285480159,-23.44696044921875,-88.95993550618489,-39.91903516981337,-4.4077542748781715,-1.7413330078125,-2.363005534257039,4.220614963107638,0.06785074869791667,-4.206882052951388,0.0599,-0.4569,2.0818,0.01264,-0.04364,-0.00872,0.0010842340998351574,0.0010001200716942549,0.0008382695959880948,0.0004649730690289289,0.0005000359378755093,0.0005742319044657052,0.009005180560052395,0.009485418908298016,0.011597619391977787,passive,1
1.4007,rehab,large_fast,30.11831412441753,-666.6320243287462,296.24907644139597,-177.39145624059736,0.13475822705036705,-149.98364715987637,-52.9138,-0.0288,31.7496,1.8126,0.7355,25.9631,80.04151221549157,27.7130126953125,83.68560791015625,-23.343243069118923,-88.95678202311198,-40.02232869466146,-4.298924361125077,-1.686918050935953,-2.4756085990679146,4.314668443467882,0.13570149739583334,-4.342592027452257,0.1435,-0.4888,1.8798,0.01902,-0.05715,-0.0067,0.0010842340998351574,0.0010001200716942549,0.0008382695959880948,0.0004649730690289289,0.0005000359378755093,0.0005742319044657052,0.009005180560052395,0.009485418908298016,0.011597619391977787,passive,1
1.4209,rehab,large_fast,29.30668517232883,-666.6359689001575,296.74948929897624,-177.3903195859314,0.13382594682020332,-149.9844747724133,-51.7697,0.034,31.9091,21.9896,1.1379,15.9072,79.97078092971651,27.684513507503095,83.64479669249884,-23.27324761284722,-88.95467122395833,-40.09143405490451,-4.4077542748781715,-1.7413330078125,-2.561065371673886,4.386071099175347,0.13570149739583334,-4.206882052951388,0.2398,-0.5191,2.0814,0.02754,-0.04385,-0.00537,0.0010842340998351574,0.0010001200716942549,0.0008382695959880948,0.0004649730690289289,0.0005000359378755093,0.0005742319044657052,0.009005180560052395,0.009485418908298016,0.011597619391977787,passive,1
1.4406,rehab,large_fast,28.1010844613625,-666.6375335017643,297.5029121505289,-177.3894359031306,0.1331198584430403,-149.98506421405148,-50.9534,0.0844,32.2214,27.0459,0.9254,12.6298,79.86566298078782,27.64163555485187,83.5829510075031,-23.166427612304688,-88.95151774088542,-40.19474453396267,-4.4077542748781715,-1.8501697200359684,-2.5929977870223544,4.597125583224826,0.13570149739583334,-4.342592027452257,0.1512,-0.3504,2.7274,0.02378,-0.03651,-0.00434,0.0010842340998351574,0.0010001200716942549,0.0008382695959880948,0.0004649730690289289,0.0005000359378755093,0.0005742319044657052,0.009005180560052395,0.009485418908298016,0.011597619391977787,passive,1
1.4607,rehab,large_fast,27.301317615406422,-666.6313059098559,298.01677405715856,-177.3889374430988,0.13267051062591548,-149.9843800356198,-49.056,0.107,31.4376,27.6316,-0.0314,10.0038,79.79582909310218,27.61183785920096,83.54164350150835,-23.093812730577255,-88.94943237304688,-40.264434814453125,-4.353339318001624,-1.9045846769125154,-2.743033229714573,4.7119903564453125,0.13570149739583334,-4.342592027452257,0.0987,-0.3442,2.9246,0.0208,-0.03703,-0.00886,0.0010842340998351574,0.0010001200716942549,0.0008382695959880948,0.0004649730690289289,0.0005000359378755093,0.0005742319044657052,0.009005180560052395,0.009485418908298016,0.011597619391977787,passive,1
1.4806,rehab,large_fast,26.11227522321284,-666.6280968668872,298.8004246834677,-177.38809964894452,0.1319818653714301,-149.98412134716506,-48.632,0.0866,31.5632,23.1235,-1.2331,11.2506,79.69211162907062,27.567729383411972,83.4766161323774,-22.98254224989149,-88.94632975260417,-40.36714341905382,-4.353339318001624,-1.8501697200359684,-2.7790107349357984,4.640231662326388,0.13570149739583334,-4.410442776150173,0.0536,-0.5001,2.6079,0.01816,-0.04149,-0.0104,0.0010842340998351574,0.0010001200716942549,0.0008382695959880948,0.0004649730690289289,0.0005000359378755093,0.0005742319044657052,0.009005180560052395,0.009485418908298016,0.011597619391977787,passive,1
1.5008,rehab,large_fast,25.31875121091402,-666.6229866613678,299.3191259797621,-177.38891470399338,0.13265305089359575,-149.98406980125876,-48.647,0.0297,32.0043,1.5512,-2.2045,26.1216,79.62286240983717,27.538584340917,83.43287477398863,-22.906451755099827,-88.94429524739583,-40.43557908799913,-4.353339318001624,-1.8501697200359684,-2.7256903317895267,4.835001627604167,0.06785074869791667,-4.206882052951388,0.0121,-0.6081,2.3028,0.01474,-0.04081,-0.01061,0.0010842340998351574,0.0010001200716942549,0.0008382695959880948,0.0004649730690289289,0.0005000359378755093,0.0005742319044657052,0.009005180560052395,0.009485418908298016,0.011597619391977787,passive,1
1.521,rehab,large_fast,24.106314964182623,-666.6223622293678,300.11597769992676,-177.38954739186053,0.1332449855365486,-149.98592577408772,-49.2182,-0.0351,32.9077,-18.3849,-2.3119,47.699,79.51719378480817,27.49506733205059,83.36401306756652,-22.78998480902778,-88.94120110405815,-40.53806728786892,-4.4077542748781715,-1.7413330078125,-2.9920679979985305,4.8913319905598955,0.13570149739583334,-4.410442776150173,0.0472,-0.3951,2.6404,0.01824,-0.05326,-0.00516,0.0010842340998351574,0.0010001200716942549,0.0008382695959880948,0.0004649730690289289,0.0005000359378755093,0.0005742319044657052,0.009005180560052395,0.009485418908298016,0.011597619391977787,passive,1
1.5411,rehab,large_fast,23.294297022069035,-666.626789201054,300.6491836785614,-177.39053494019254,0.134093911807467,-149.9866809321598,-50.629,-0.0962,34.5811,-36.3621,-1.3121,75.4463,79.4465168867961,27.466928463171023,83.31613823919012,-22.710494995117188,-88.93914964463976,-40.60708787706163,-4.571005943978187,-1.7413330078125,-3.022205617168162,5.01267327202691,0.20355224609375,-4.410442776150173,0.0403,-0.5652,1.8538,0.01589,-0.04857,9e-05,0.0010842340998351574,0.0010001200716942549,0.0008382695959880948,0.0004649730690289289,0.0005000359378755093,0.0005742319044657052,0.009005180560052395,0.009485418908298016,0.011597619391977787,passive,1
1.5606,rehab,large_fast,22.482210674380458,-666.6323388068575,301.20966814486576,-177.39041629207495,0.13398082010631635,-149.98744593870902,-50.6972,-0.1213,35.6158,-32.8396,0.4037,85.423,79.37586718266553,27.437681443620438,83.26589754312346,-22.628996107313366,-88.93712361653645,-40.676049126519096,-4.4077542748781715,-1.9045846769125154,-3.145210341651841,5.204671223958333,0.13570149739583334,-4.410442776150173,-0.1375,-0.5616,2.4088,0.00473,-0.04257,-0.01295,0.0010842340998351574,0.0010001200716942549,0.0008382695959880948,0.0004649730690289289,0.0005000359378755093,0.0005742319044657052,0.009005180560052395,0.009485418908298016,0.011597619391977787,passive,1
1.581,rehab,large_fast,21.079411473555428,-666.6374024560046,302.2146512289105,-177.39112513230683,0.13449419290594236,-149.98775015102837,-50.815,-0.1063,37.1729,-5.0308,2.1227,75.0481,79.2537802516824,27.385523578908185,83.17504278504022,-22.48131646050347,-88.93367343478732,-40.79616122775607,-4.4077542748781715,-1.9045846769125154,-3.36417547546991,5.344026353624132,0.13570149739583334,-4.274732801649305,-0.0759,-0.5963,2.0395,0.01566,-0.04449,-0.00733,0.0010842340998351574,0.0010001200716942549,0.0008382695959880948,0.0004649730690289289,0.0005000359378755093,0.0005742319044657052,0.009005180560052395,0.009485418908298016,0.011597619391977787,passive,1
1.6006,rehab,large_fast,20.278581881540756,-666.6375120613377,302.8057737637506,-177.39199323828984,0.13526703119895248,-149.98789821153258,-50.9922,-0.0414,39.005,22.7992,2.6771,58.2717,79.184041542582,27.35496445457534,83.12123969049738,-22.39362080891927,-88.93165588378906,-40.864757961697045,-4.353339318001624,-1.9045846769125154,-3.4143889776550895,5.536507500542535,0.13570149739583334,-4.139031304253472,-0.0635,-0.7003,2.6381,0.02088,-0.04069,-0.01116,0.0010842340998351574,0.0010001200716942549,0.0008382695959880948,0.0004649730690289289,0.0005000359378755093,0.0005742319044657052,0.009005180560052395,0.009485418908298016,0.011597619391977787,passive,1
1.6208,rehab,large_fast,19.076387460724217,-666.6331240258668,303.74319879903834,-177.3918609200609,0.1351220248608778,-149.98818329082974,-51.3765,0.064,41.2197,47.4383,2.1258,36.9106,79.07930430799428,27.306368988339262,83.03697265020692,-22.2576904296875,-88.92869737413194,-40.96767001681857,-4.244502605778156,-2.067836346012531,-3.5695504670095914,5.9131113688151045,0.06785074869791667,-4.274732801649305,-0.0709,-0.6544,2.5952,0.01229,-0.04537,-0.01228,0.0010842340998351574,0.0010001200716942549,0.0008382695959880948,0.0004649730690289289,0.0005000359378755093,0.0005742319044657052,0.009005180560052395,0.009485418908298016,0.011597619391977787,passive,1
1.6406,rehab,large_fast,18.285227938247555,-666.6314843525838,304.39197096102197,-177.39113134788423,0.13438423192428195,-149.98739014579027,-50.4192,0.1536,41.7679,57.7234,1.0673,21.5537,79.01041540769067,27.2732672360864,82.97819987382039,-22.16467115614149,-88.92679850260417,-41.03630065917969,-4.244502605778156,-2.122251302889078,-3.703895040077738,5.794711642795138,0.13570149739583334,-4.206882052951388,-0.0721,-0.5119,2.6854,0.02845,-0.04415,-0.00596,0.0010842340998351574,0.0010001200716942549,0.0008382695959880948,0.0004649730690289289,0.0005000359378755093,0.0005742319044657052,0.009005180560052395,0.009485418908298016,0.011597619391977787,passive,1
1.6607,rehab,large_fast,17.116712215423373,-666.6307631316099,305.3926417931724,-177.38939635993927,0.13290310705471706,-149.98691907877355,-46.938,0.1734,40.2984,59.9503,-0.4087,8.2287,78.90869669394918,27.222999346138227,82.88666526869972,-22.02195061577691,-88.9238993326823,-41.13687303331163,-4.081257735148514,-2.176666259765625,-3.9667714940439356,5.931209988064236,0.13570149739583334,-4.206882052951388,0.1208,-0.581,2.5841,0.0389,-0.04015,-0.00173,0.0010842340998351574,0.0010001200716942549,0.0008382695959880948,0.0004649730690289289,0.0005000359378755093,0.0005742319044657052,0.009005180560052395,0.009485418908298016,0.011597619391977787,passive,1
1.6808,rehab,large_fast,16.358531233363365,-666.626935004914,306.0682307424804,-177.3886805839011,0.13234650380754345,-149.9852981405289,-45.694,0.0811,40.1801,59.2955,-2.1695,0.0967,78.84263595732132,27.189122568262686,82.824602032652,-21.924794514973957,-88.92194959852431,-41.20345221625434,-4.190087648901609,-2.067836346012531,-3.8981205402034345,6.048931545681423,-0.0,-4.071180555555555,-0.0867,-0.5373,1.8874,0.03214,-0.03566,0.00512,0.0010842340998351574,0.0010001200716942549,0.0008382695959880948,0.0004649730690289289,0.0005000359378755093,0.0005742319044657052,0.009005180560052395,0.009485418908298016,0.011597619391977787,passive,1
1.7006,rehab,large_fast,15.224664213186589,-666.6225499067333,307.09011018237743,-177.3876163768592,0.13142265098828182,-149.9850592272703,-44.8598,-0.037,40.1798,54.2712,-3.3478,0.0959,78.74390857054455,27.138569142558786,82.72975657245901,-21.777699788411457,-88.91918606228299,-41.30075242784288,-4.081257735148514,-1.9589996337890625,-3.9375924591970914,5.964152018229167,0.06785074869791667,-4.071180555555555,-0.0861,-0.5858,2.5033,0.01541,-0.02646,-0.00665,0.0010842340998351574,0.0010001200716942549,0.0008382695959880948,0.0004649730690289289,0.0005000359378755093,0.0005742319044657052,0.009005180560052395,0.009485418908298016,0.011597619391977787,passive,1
1.7209,rehab,large_fast,14.471246091207341,-666.622592081776,307.7558030653881,-177.38846067761125,0.13208302643796135,-149.98542907848014,-44.7267,-0.0906,40.9149,40.9145,-3.1386,14.5483,78.67838491307627,27.106541548625078,82.66587134635094,-21.678670247395832,-88.91743977864583,-41.36478847927517,-4.026835979801594,-2.067836346012531,-4.040303749613242,6.062071058485243,0.06785074869791667,-3.9354705810546875,0.0758,-0.6176,2.9853,0.01767,-0.04713,-0.00752,0.0010842340998351574,0.0010001200716942549,0.0008382695959880948,0.0004649730690289289,0.0005000359378755093,0.0005742319044657052,0.009005180560052395,0.009485418908298016,0.011597619391977787,passive,1
1.7406,rehab,large_fast,13.738155686980058,-666.6239460833965,308.42098318072806,-177.3894880597828,0.13299713182516804,-149.98569025042886,-44.2582,-0.1136,41.3815,24.2419,-1.5427,36.5218,78.61464925331644,27.07504423538057,82.6011839007387,-21.579115125868054,-88.91568501790364,-41.42713758680556,-3.9724210229250465,-1.8501697200359684,-4.063364161123143,6.194856431749132,0.06785074869791667,-3.9354705810546875,-0.1032,-0.5612,2.1075,0.03512,-0.04945,0.00235,0.0010842340998351574,0.0010001200716942549,0.0008382695959880948,0.0004649730690289289,0.0005000359378755093,0.0005742319044657052,0.009005180560052395,0.009485418908298016,0.011597619391977787,passive,1
1.7609,rehab,large_fast,12.669936613732345,-666.6355184068065,309.42206068613996,-177.39033470821775,0.13379024210172655,-149.98683846449083,-43.5301,-0.1618,41.9861,35.109,0.781,33.9338,78.5219657067025,27.02930412670173,82.50164749598738,-21.429799397786457,-88.9131588406033,-41.51698642306857,-3.8635911091719524,-1.9045846769125154,-4.237826507870514,6.136474609375,0.13570149739583334,-3.596208360460069,0.0565,-0.5577,2.3434,0.02421,-0.03793,-0.00686,0.0010842340998351574,0.0010001200716942549,0.0008382695959880948,0.0004649730690289289,0.0005000359378755093,0.0005742319044657052,0.009005180560052395,0.009485418908298016,0.011597619391977787,passive,1
1.7806,rehab,large_fast,11.984020401276965,-666.6416001545077,310.08927225269025,-177.39063041810488,0.1340791803406915,-149.98700145537723,-42.677,-0.1614,42.7295,65.6954,2.2327,9.5132,78.46243830010442,26.99891496412825,82.43534881289642,-21.330829196506077,-88.91153123643663,-41.575232611762154,-3.5370877709719215,-1.9045846769125154,-4.144972999497215,6.159566243489583,0.13570149739583334,-3.596208360460069,0.0343,-0.4881,2.7681,0.02406,-0.03965,-0.0073,0.0010842340998351574,0.0010001200716942549,0.0008382695959880948,0.0004649730690289289,0.0005000359378755093,0.0005742319044657052,0.009005180560052395,0.009485418908298016,0.011597619391977787,passive,1
1.8007,rehab,large_fast,10.840834066700506,-666.6382746585846,311.25439681125596,-177.39116349397904,0.13455054872455618,-149.98735478266323,-40.9461,-0.062,42.8305,90.2063,2.2374,-15.9485,78.36301067087909,26.94468356595181,82.32154921729966,-21.158964369032116,-88.90886942545573,-41.67236328125,-3.373836101871906,-1.9045846769125154,-3.929950978496287,6.012454562717013,0.13570149739583334,-3.528349134657118,0.1046,-0.6533,2.3162,0.02699,-0.0413,-0.00236,0.0010842340998351574,0.0010001200716942549,0.0008382695959880948,0.0004649730690289289,0.0005000359378755093,0.0005742319044657052,0.009005180560052395,0.009485418908298016,0.011597619391977787,passive,1
1.8208,rehab,large_fast,10.22473881929294,-666.6349175139829,311.91632788998925,-177.391174493911,0.13457993497005005,-149.9865816374643,-39.8743,0.0508,43.3989,112.4452,1.5702,-43.0406,78.30939793350673,26.913995270681852,82.25690936098005,-21.061893039279514,-88.90740288628471,-41.72565036349826,-3.428251058748453,-1.795747964689047,-4.0954869336420945,5.986582438151042,0.06785074869791667,-3.2569376627604165,0.2485,-0.6678,2.9005,0.02012,-0.04914,-0.01498,0.0010842340998351574,0.0010001200716942549,0.0008382695959880948,0.0004649730690289289,0.0005000359378755093,0.0005742319044657052,0.009005180560052395,0.009485418908298016,0.011597619391977787,passive,1
1.8406,rehab,large_fast,9.35370311345664,-666.6382829004888,312.9018888618714,-177.3899002278255,0.133413750888028,-149.98580929928738,-36.8751,0.1087,41.8883,128.9157,0.9037,-68.0773,78.23376495059173,26.869628453018642,82.15932411722618,-20.91925726996528,-88.90541076660156,-41.80044386121962,-3.1017545190187965,-1.9045846769125154,-4.123598608640161,5.8034515380859375,0.06785074869791667,-2.8498246934678817,0.0554,-0.5363,3.279,0.0162,-0.0416,-0.00598,0.0010842340998351574,0.0010001200716942549,0.0008382695959880948,0.0004649730690289289,0.0005000359378755093,0.0005742319044657052,0.009005180560052395,0.009485418908298016,0.011597619391977787,passive,1
1.8609,rehab,large_fast,8.810181047481288,-666.6368916290611,313.5497002874749,-177.38870170456525,0.1323577083108549,-149.98548366844904,-32.7509,0.0832,38.4432,136.2728,-0.1321,-84.5256,78.18650878301942,26.84021827017907,82.09580600851834,-20.826424492730034,-88.90415615505643,-41.84697469075521,-2.992917806795328,-1.7413330078125,-3.9476881877030476,5.78171624077691,0.06785074869791667,-2.9176754421657987,0.1819,-0.5306,2.8671,0.031,-0.04517,-0.0106,0.0010842340998351574,0.0010001200716942549,0.0008382695959880948,0.0004649730690289289,0.0005000359378755093,0.0005742319044657052,0.009005180560052395,0.009485418908298016,0.011597619391977787,passive,1
1.8818,rehab,large_fast,8.043788797738836,-666.6293526503596,314.47556206376566,-177.38869773926479,0.13230206598544136,-149.98538847302828,-30.3745,-0.0118,36.9978,147.6891,-1.7218,-95.847,78.11978859476524,26.798101746209777,82.00443456668665,-20.690867106119793,-88.90246073404948,-41.9122568766276,-2.6664212670656715,-1.686918050935953,-3.7245012037824874,5.513390435112847,0.06785074869791667,-2.5784132215711804,0.3301,-0.5003,3.0407,0.02617,-0.04919,-0.01288,0.0010842340998351574,0.0010001200716942549,0.0008382695959880948,0.0004649730690289289,0.0005000359378755093,0.0005742319044657052,0.009005180560052395,0.009485418908298016,0.011597619391977787,passive,1
1.9005,rehab,large_fast,7.562975145070677,-666.6268514306311,315.0637879403888,-177.38915964309447,0.13272108513322065,-149.9868109054727,-28.0957,-0.0745,35.5876,152.4994,-2.3192,-96.2517,78.07797800196279,26.771934433738785,81.94528787442954,-20.603654649522568,-88.90142652723524,-41.951658460828995,-2.503169597965656,-1.5780813387124846,-3.658406474802754,5.271114773220486,0.06785074869791667,-2.2391425238715277,0.3384,-0.4472,2.9887,0.0319,-0.04626,-0.01213,0.0010842340998351574,0.0010001200716942549,0.0008382695959880948,0.0004649730690289289,0.0005000359378755093,0.0005742319044657052,0.009005180560052395,0.009485418908298016,0.011597619391977787,passive,1
1.921,rehab,large_fast,6.899738800195178,-666.6342789864702,315.90588921875207,-177.3895294091685,0.13310513632539153,-149.98904087237491,-24.6923,-0.0787,33.3338,149.6943,-1.4758,-83.9068,78.02050373341777,26.736167681099165,81.85816547658183,-20.478490193684895,-88.9000023735894,-42.00548807779948,-2.176666259765625,-1.4692514249593904,-3.5960577029993037,5.159242418077257,-0.0,-2.0355902777777777,0.3433,-0.4044,3.5518,0.02695,-0.04401,-0.01517,0.0010842340998351574,0.0010001200716942549,0.0008382695959880948,0.0004649730690289289,0.0005000359378755093,0.0005742319044657052,0.009005180560052395,0.009485418908298016,0.011597619391977787,passive,1
1.9409,rehab,large_fast,6.510128535462614,-666.6402624236769,316.4387922792986,-177.39002434334205,0.13354923677685182,-149.98992450262733,-22.1009,-0.0797,32.1705,150.6315,-0.045,-70.5234,77.9867697234201,26.713943481445312,81.80232963939704,-20.398729112413193,-88.89919704861111,-42.037438286675346,-2.0134145906656093,-1.360414712735922,-3.478852073744972,4.872250027126736,-0.0,-1.9677310519748263,0.4952,-0.4702,3.9858,0.03325,-0.05178,-0.02132,0.0010842340998351574,0.0010001200716942549,0.0008382695959880948,0.0004649730690289289,0.0005000359378755093,0.0005742319044657052,0.009005180560052395,0.009485418908298016,0.011597619391977787,passive,1
1.9611,rehab,large_fast,6.172188411570317,-666.6426687541064,316.9506203314189,-177.39043134306957,0.13391886994975513,-149.990029644491,-18.9848,-0.1069,30.9075,167.3565,1.3238,-74.547,77.95744792069539,26.692297151773282,81.74925398118425,-20.32253689236111,-88.89849344889323,-42.065794203016495,-1.7413330078125,-1.305999755859375,-3.353270728989403,4.708209567599826,0.06785074869791667,-1.696319580078125,0.3705,-0.3905,4.0907,0.04375,-0.04473,-0.01829,0.0010842340998351574,0.0010001200716942549,0.0008382695959880948,0.0004649730690289289,0.0005000359378755093,0.0005742319044657052,0.009005180560052395,0.009485418908298016,0.011597619391977787,passive,1
1.9806,rehab,large_fast,5.7505044119580875,-666.6424056722556,317.6866366691823,-177.3900649583149,0.13362066339201195,-149.99012114671723,-15.5449,-0.0775,29.5033,187.7558,1.8435,-89.8892,77.92078376996635,26.66074545076578,81.67413768201772,-20.215191311306423,-88.89762878417969,-42.10115220811632,-1.305999755859375,-1.1971630436359066,-2.8515164214785735,4.3172454833984375,0.06785074869791667,-1.2892066107855902,0.4296,-0.4645,3.7522,0.03484,-0.05537,-0.01529,0.0010842340998351574,0.0010001200716942549,0.0008382695959880948,0.0004649730690289289,0.0005000359378755093,0.0005742319044657052,0.009005180560052395,0.009485418908298016,0.011597619391977787,passive,1
2.0006,rehab,large_fast,5.490363763742764,-666.6413343069706,318.2491848550601,-177.38988554683584,0.13345901624043613,-149.98901531113444,-11.435,0.0155,27.3303,194.3833,1.6291,-103.8938,77.89812446820854,26.63672645493309,81.61660902570969,-20.133141411675346,-88.89712015787761,-42.12398952907986,-0.979496417659344,-1.1427480867593596,-2.729694630840037,3.9285024007161455,0.06785074869791667,-0.9499359130859375,0.5602,-0.5482,3.4659,0.04926,-0.06185,-0.01831,0.0010842340998351574,0.0010001200716942549,0.0008382695959880948,0.0004649730690289289,0.0005000359378755093,0.0005742319044657052,0.009005180560052395,0.009485418908298016,0.011597619391977787,passive,1
2.0206,rehab,large_fast,5.256512014029241,-666.6372367700342,318.86280338101875,-177.38999737210108,0.13358172540281948,-149.9897088857895,-7.509,0.071,25.4237,199.9005,1.2344,-124.9346,77.87768146779277,26.61036198682124,81.55406309826539,-20.043453640407986,-88.89674716525607,-42.142723931206596,-0.7074148348062346,-1.0339181730062654,-2.456572882019647,3.515531751844618,0.06785074869791667,-0.5428229437934028,0.5854,-0.4881,3.5339,0.04253,-0.05244,-0.01866,0.0010842340998351574,0.0010001200716942549,0.0008382695959880948,0.0004649730690289289,0.0005000359378755093,0.0005742319044657052,0.009005180560052395,0.009485418908298016,0.011597619391977787,passive,1
2.0406,rehab,large_fast,5.158563541633231,-666.6389996386595,319.2282051804939,-177.39006679837343,0.13365827683383874,-149.99041644907558,-3.7129,0.0794,22.9183,198.3131,0.7956,-144.1511,77.86916298441368,26.59531017341236,81.51586249323175,-19.98986138237847,-88.89665391710069,-42.14992947048611,-0.3809114966062036,-0.87066650390625,-2.3397547655766555,3.2369147406684027,-0.06785074869791667,-0.339262220594618,0.4429,-0.4089,3.6449,0.03096,-0.05529,-0.02254,0.0010842340998351574,0.0010001200716942549,0.0008382695959880948,0.0004649730690289289,0.0005000359378755093,0.0005742319044657052,0.009005180560052395,0.009485418908298016,0.011597619391977787,passive,1
2.0612,rehab,large_fast,5.158114416333183,-666.6395623426109,319.7210701699268,-177.3892868357347,0.13308812182575547,-149.98680590176625,1.2109,0.0587,19.1578,194.4252,0.0496,-160.0683,77.86899982112469,26.574792389822477,81.46515270270923,-19.91949293348524,-88.89665391710069,-42.152904934353295,0.16324487062964108,-0.7618297916827815,-1.9632418793026762,2.711639404296875,-0.0,0.06785074869791667,0.5946,-0.4056,3.6646,0.048,-0.05249,-0.0189,0.0010842340998351574,0.0010001200716942549,0.0008382695959880948,0.0004649730690289289,0.0005000359378755093,0.0005742319044657052,0.009005180560052395,0.009485418908298016,0.011597619391977787,passive,1
2.081,rehab,large_fast,5.21082706987977,-666.6363634848868,320.0038375516224,-177.38876134179554,0.13272766453623888,-149.98301591547647,4.6464,0.0365,15.7834,189.8848,-0.7443,-170.8926,77.87341202839767,26.562623127852337,81.43674869348507,-19.87958272298177,-88.89671325683594,-42.151828342013886,0.435333251953125,-0.6529998779296875,-1.6417490137685644,2.2699907090928817,-0.0,0.20355224609375,0.741,-0.3648,4.0937,0.05313,-0.04867,-0.01498,0.0010842340998351574,0.0010001200716942549,0.0008382695959880948,0.0004649730690289289,0.0005000359378755093,0.0005742319044657052,0.009005180560052395,0.009485418908298016,0.011597619391977787,passive,1
2.1008,rehab,large_fast,5.382681918111894,-666.6346930081701,320.35649588554105,-177.3875625129186,0.13208663700078738,-149.9800239343328,8.0739,0.0226,12.1611,180.8493,-0.8613,-174.8276,77.88811711981745,26.54778206702506,81.40111791025294,-19.830822414822048,-88.89691670735677,-42.13955349392361,0.7618297916827815,-0.544163165706219,-1.307175891234143,1.753751966688368,-0.0,0.8142344156901041,0.6788,-0.3355,3.7217,0.04891,-0.04328,-0.01658,0.0010842340998351574,0.0010001200716942549,0.0008382695959880948,0.0004649730690289289,0.0005000359378755093,0.0005742319044657052,0.009005180560052395,0.009485418908298016,0.011597619391977787,passive,1
2.1207,rehab,large_fast,5.542213476989018,-666.6352245594967,320.5324006325776,-177.3871201314423,0.13211745613734183,-149.98162913651262,11.4952,0.012,8.8317,175.313,-0.3375,-173.87,77.90185682844407,26.54067086701346,81.38287761423847,-19.80628119574653,-88.89717102050781,-42.123921712239586,0.9250814607827971,-0.32649653972965653,-0.9132793162128713,1.3313208685980902,-0.0,1.0856458875868056,0.7137,-0.1474,4.3362,0.0457,-0.05642,-0.01874,0.0010842340998351574,0.0010001200716942549,0.0008382695959880948,0.0004649730690289289,0.0005000359378755093,0.0005742319044657052,0.009005180560052395,0.009485418908298016,0.011597619391977787,passive,1
2.141,rehab,large_fast,5.852646545634534,-666.6335758439843,320.70089175118466,-177.38767979689817,0.13312244093481393,-149.9857277706356,15.0133,0.013,5.396,176.3902,0.3092,-172.9925,77.92862240630801,26.533913187461323,81.36501803256498,-19.781578911675346,-88.89787462022569,-42.09276835123698,1.305999755859375,-0.2176666259765625,-0.5468349645633509,0.7452985975477431,-0.0,1.4249081081814237,0.8213,-0.1789,4.5065,0.04495,-0.06177,-0.02381,0.0010842340998351574,0.0010001200716942549,0.0008382695959880948,0.0004649730690289289,0.0005000359378755093,0.0005742319044657052,0.009005180560052395,0.009485418908298016,0.011597619391977787,passive,1
2.1607,rehab,large_fast,6.118653223692847,-666.6374320601335,320.74591319248657,-177.3886447432862,0.13419716419674166,-149.98804502250948,18.5196,0.0105,2.2093,177.8208,0.7297,-172.4983,77.95169641475866,26.533008990901532,81.35862747041305,-19.773669772677952,-88.89856974283855,-42.0672861735026,1.5780813387124846,0.05441495687654703,-0.2180269449064047,0.2718353271484375,-0.06785074869791667,1.7641703287760415,0.8181,-0.1609,3.8594,0.05696,-0.0603,-0.01549,0.0010842340998351574,0.0010001200716942549,0.0008382695959880948,0.0004649730690289289,0.0005000359378755093,0.0005742319044657052,0.009005180560052395,0.009485418908298016,0.011597619391977787,passive,1
2.1807,rehab,large_fast,6.4422229530977235,-666.6335685584157,320.72428919189855,-177.3915198111431,0.1367845608032563,-149.98891714212803,21.7751,0.0339,-1.2118,174.4816,0.7621,-174.5408,77.97963812799738,26.534253110980043,81.35928692203937,-19.772635565863716,-88.89950222439236,-42.038464016384545,1.8501697200359684,0.05441495687654703,0.028070884175819925,-0.05743238661024305,-0.06785074869791667,1.9677310519748263,0.9159,-0.1149,3.9627,0.06775,-0.06222,-0.01609,0.0010842340998351574,0.0010001200716942549,0.0008382695959880948,0.0004649730690289289,0.0005000359378755093,0.0005742319044657052,0.009005180560052395,0.009485418908298016,0.011597619391977787,passive,1
2.201,rehab,large_fast,7.093278328578565,-666.6360146646473,320.6757371603451,-177.38888464870882,0.13407779399036945,-149.99143724086758,25.5522,0.0694,-4.8698,171.0856,0.4561,-186.3951,78.03613341680848,26.536754948077814,81.36552791784305,-19.78704664442274,-88.90162150065105,-41.97962443033854,2.2855029719890934,0.16324487062964108,0.510775877697633,-0.9728410508897569,-0.06785074869791667,2.307001749674479,0.9934,-0.122,4.9282,0.06268,-0.06174,-0.03207,0.0010842340998351574,0.0010001200716942549,0.0008382695959880948,0.0004649730690289289,0.0005000359378755093,0.0005742319044657052,0.009005180560052395,0.009485418908298016,0.011597619391977787,passive,1
2.2209,rehab,large_fast,7.516818503848395,-666.6336903645472,320.5932547521179,-177.38576714554344,0.1309198690838527,-149.99271896401567,29.4228,0.0813,-8.6912,157.6314,-0.1877,-192.6657,78.07285195530051,26.539732678101796,81.37673859549041,-19.80688307020399,-88.90306260850694,-41.94185892740885,2.3399179288656407,0.2720815828531095,0.8460288472694926,-1.4615376790364583,-0.13570149739583334,2.4427032470703125,0.9216,-0.1809,4.3323,0.04653,-0.05379,-0.02908,0.0010842340998351574,0.0010001200716942549,0.0008382695959880948,0.0004649730690289289,0.0005000359378755093,0.0005742319044657052,0.009005180560052395,0.009485418908298016,0.011597619391977787,passive,1
2.2406,rehab,large_fast,8.247787795715498,-666.6301710352623,320.36814402784466,-177.38225177705309,0.12745791203473283,-149.9917926992167,32.4113,0.0788,-12.4732,131.7763,-0.9073,-186.3242,78.13620010224899,26.548822232992343,81.40287191560952,-19.84903123643663,-88.90519883897569,-41.87992519802517,2.884087893042234,0.544163165706219,1.3367016480700804,-2.094718085394965,-0.13570149739583334,2.781973944769965,0.9625,0.064,4.4789,0.05752,-0.04099,-0.02096,0.0010842340998351574,0.0010001200716942549,0.0008382695959880948,0.0004649730690289289,0.0005000359378755093,0.0005742319044657052,0.009005180560052395,0.009485418908298016,0.011597619391977787,passive,1
2.2606,rehab,large_fast,8.783283304900925,-666.6276035803986,320.13131978046073,-177.38228216371047,0.12738180619028713,-149.99089988292792,34.1496,0.0447,-15.8369,108.3117,-1.3372,-174.2208,78.18260646102452,26.559033535494663,81.42732601354618,-19.885177612304688,-88.90664842393663,-41.83482699924045,2.884087893042234,0.7074148348062346,1.7069531431292544,-2.4302249484592013,-0.13570149739583334,2.9176754421657987,0.9625,-0.0069,4.1357,0.04593,-0.04994,-0.02296,0.0010842340998351574,0.0010001200716942549,0.0008382695959880948,0.0004649730690289289,0.0005000359378755093,0.0005742319044657052,0.009005180560052395,0.009485418908298016,0.011597619391977787,passive,1
2.2813,rehab,large_fast,9.651788350518968,-666.6264198471816,319.67023667964133,-177.38429561860062,0.12904464893623457,-149.98837527871552,37.0649,-0.0029,-20.6803,93.2123,-1.3686,-165.861,78.25794031124303,26.57971448237353,81.4725902292988,-19.95083279079861,-88.90892028808594,-41.76277160644531,3.2650061881188117,0.979496417659344,2.073744216767868,-3.0666266547309027,-0.13570149739583334,3.0533854166666665,0.7917,-0.1187,3.7478,0.03798,-0.05107,-0.02338,0.0010842340998351574,0.0010001200716942549,0.0008382695959880948,0.0004649730690289289,0.0005000359378755093,0.0005742319044657052,0.009005180560052395,0.009485418908298016,0.011597619391977787,passive,1
2.3007,rehab,large_fast,10.252685089847672,-666.6286639182833,319.3031973335775,-177.38621308683486,0.13074307781290792,-149.98785941965912,38.258,-0.0474,-23.4161,81.9393,-0.8779,-154.6093,78.31013216830716,26.596649472076113,81.50765673948986,-20.001915825737846,-88.91045464409721,-41.71168009440104,3.319421144995359,1.0883331298828125,2.254862266011757,-3.3933512369791665,-0.06785074869791667,3.324796888563368,1.063,-0.0766,3.9393,0.05918,-0.06505,-0.02473,0.0010842340998351574,0.0010001200716942549,0.0008382695959880948,0.0004649730690289289,0.0005000359378755093,0.0005742319044657052,0.009005180560052395,0.009485418908298016,0.011597619391977787,passive,1
2.3207,rehab,large_fast,11.182631657736621,-666.6304540034182,318.7027780378787,-177.38736801433123,0.1317462676169579,-149.98942548533347,38.6171,-0.0794,-25.3278,78.4556,-0.1582,-138.9724,78.39091839176594,26.62386374898476,81.56671505163212,-20.08927239312066,-88.91288757324219,-41.63032531738281,3.2650061881188117,1.251584798982828,2.579611598855198,-3.9494747585720487,-0.06785074869791667,3.4604983859592013,1.0442,-0.0014,3.8247,0.07107,-0.04919,-0.02304,0.0010842340998351574,0.0010001200716942549,0.0008382695959880948,0.0004649730690289289,0.0005000359378755093,0.0005742319044657052,0.009005180560052395,0.009485418908298016,0.011597619391977787,passive,1
2.341,rehab,large_fast,11.827857948495266,-666.6327340447805,318.2601331644646,-177.38777165337243,0.1319827063469842,-149.99021371920605,40.5361,-0.0528,-28.1054,84.0045,0.4817,-130.5116,78.44701936929533,26.64406200446705,81.61025245590966,-20.15435112847222,-88.91463385687933,-41.574181450737846,3.5915027278484684,1.305999755859375,2.894435164952042,-4.27886962890625,-0.06785074869791667,3.528349134657118,0.948,-0.0282,4.2934,0.04804,-0.04383,-0.02011,0.0010842340998351574,0.0010001200716942549,0.0008382695959880948,0.0004649730690289289,0.0005000359378755093,0.0005742319044657052,0.009005180560052395,0.009485418908298016,0.011597619391977787,passive,1
2.3611,rehab,large_fast,12.847464935169,-666.6345693878047,317.5500425749065,-177.38711880112223,0.13126615688909257,-149.990727905238,43.1866,-0.009,-31.1714,87.3997,0.979,-126.6774,78.53565782603651,26.676252761689742,81.68103133097733,-20.26110331217448,-88.91732109917534,-41.48624844021267,3.809169353825031,1.360414712735922,3.118927455184483,-4.76943122016059,-0.13570149739583334,3.596208360460069,0.7622,0.0093,3.2512,0.04287,-0.04801,-0.01527,0.0010842340998351574,0.0010001200716942549,0.0008382695959880948,0.0004649730690289289,0.0005000359378755093,0.0005742319044657052,0.009005180560052395,0.009485418908298016,0.011597619391977787,passive,1
2.3807,rehab,large_fast,13.559099876958664,-666.6351910921501,317.0320024428789,-177.38687237922412,0.1310034477622928,-149.98981763051952,44.6698,0.0298,-33.3447,87.9613,0.9237,-126.1499,78.597517107973,26.699843453888846,81.73235978230392,-20.338304307725693,-88.91910976833768,-41.42617967393663,4.026835979801594,1.5236663818359375,3.372816331315749,-5.063968234592013,-0.13570149739583334,3.8676198323567705,1.0739,-0.0081,4.0352,0.06281,-0.0489,-0.02266,0.0010842340998351574,0.0010001200716942549,0.0008382695959880948,0.0004649730690289289,0.0005000359378755093,0.0005742319044657052,0.009005180560052395,0.009485418908298016,0.011597619391977787,passive,1
2.4012,rehab,large_fast,14.292952322197511,-666.6329779852432,316.4775834548809,-177.38722445832178,0.1312659328139794,-149.98894108532335,46.4164,0.0419,-35.8211,86.2989,0.171,-129.6982,78.66127316314395,26.72495700345181,81.78720984128442,-20.419811672634548,-88.9209493001302,-41.36422899034288,4.026835979801594,1.5780813387124846,3.5630919201539295,-5.117102728949653,-0.13570149739583334,3.8676198323567705,0.9095,0.0116,3.8095,0.0433,-0.05136,-0.02055,0.0010842340998351574,0.0010001200716942549,0.0008382695959880948,0.0004649730690289289,0.0005000359378755093,0.0005742319044657052,0.009005180560052395,0.009485418908298016,0.011597619391977787,passive,1
2.4209,rehab,large_fast,15.614851170294749,-666.6287101091577,315.4439995531019,-177.3873046438428,0.13137667977487283,-149.9886330530647,48.4044,0.0219,-38.6647,70.5718,-0.6812,-123.5633,78.77614691705988,26.772063604675896,81.88928887395575,-20.572467380099827,-88.9241960313585,-41.25139872233073,3.9724210229250465,1.8501697200359684,3.797170053614248,-5.75699700249566,-0.06785074869791667,3.9354705810546875,0.7773,-0.0687,3.5839,0.02957,-0.05503,-0.02273,0.0010842340998351574,0.0010001200716942549,0.0008382695959880948,0.0004649730690289289,0.0005000359378755093,0.0005742319044657052,0.009005180560052395,0.009485418908298016,0.011597619391977787,passive,1
2.4409,rehab,large_fast,16.38441958555951,-666.6268267710055,314.8180038763776,-177.38742256332878,0.13138132717427017,-149.98819445141703,49.3247,0.0117,-40.988,42.1991,-0.8856,-103.1879,78.84307105942528,26.800929909885518,81.95059068132154,-20.664630466037327,-88.92616271972656,-41.18596394856771,4.135672692025062,1.9045846769125154,3.8290888720219676,-5.850414699978298,-0.06785074869791667,4.071180555555555,0.7112,0.0082,3.3819,0.02965,-0.05509,-0.02258,0.0010842340998351574,0.0010001200716942549,0.0008382695959880948,0.0004649730690289289,0.0005000359378755093,0.0005742319044657052,0.009005180560052395,0.009485418908298016,0.011597619391977787,passive,1
2.4607,rehab,large_fast,17.55519318853245,-666.6302476949533,313.83051550124344,-177.38721321207032,0.1312238435946836,-149.9878633582403,50.1482,-0.0169,-43.2148,17.9978,-0.4123,-80.8628,78.94500732421875,26.847587812064898,82.04570128185914,-20.809843275282116,-88.9290279812283,-41.086010403103295,4.244502605778156,1.9045846769125154,4.037326019589264,-6.217066446940104,-0.06785074869791667,4.274732801649305,0.7197,-0.0451,3.817,0.00561,-0.052,-0.03181,0.0010842340998351574,0.0010001200716942549,0.0008382695959880948,0.0004649730690289289,0.0005000359378755093,0.0005742319044657052,0.009005180560052395,0.009485418908298016,0.011597619391977787,passive,1
2.4807,rehab,large_fast,18.346029038910103,-666.6315311509069,313.1460266549597,-177.38698805855185,0.1310335705261887,-149.98775178160045,50.1859,-0.069,-44.4894,-1.2352,0.2252,-57.8547,79.01386903064086,26.88003691116182,82.1115240720239,-20.910559760199654,-88.93096923828125,-41.018405490451386,4.190087648901609,2.122251302889078,4.1325657910639695,-6.454950968424479,-0.13570149739583334,4.139031304253472,0.709,0.0939,3.0509,0.03602,-0.04013,-0.01621,0.0010842340998351574,0.0010001200716942549,0.0008382695959880948,0.0004649730690289289,0.0005000359378755093,0.0005742319044657052,0.009005180560052395,0.009485418908298016,0.011597619391977787,passive,1
2.501,rehab,large_fast,19.523816751779083,-666.6357318901356,312.07667864247554,-177.3871169864974,0.13114062279514774,-149.98897946152186,50.2011,-0.0773,-45.9125,-11.1224,0.741,-42.533,79.11650553788289,26.931426548721767,82.21307282400603,-21.06657240125868,-88.93390231662326,-40.91631571451823,4.244502605778156,2.176666259765625,4.33371893250116,-6.657774183485243,-0.06785074869791667,4.47829352484809,0.6961,0.0752,3.0122,0.03282,-0.03842,-0.01473,0.0010842340998351574,0.0010001200716942549,0.0008382695959880948,0.0004649730690289289,0.0005000359378755093,0.0005742319044657052,0.009005180560052395,0.009485418908298016,0.011597619391977787,passive,1
2.5206,rehab,large_fast,20.30676233440561,-666.634491889434,311.3315436843851,-177.3882457266847,0.13214458953685312,-149.99068418334102,49.3005,-0.0004,-45.8582,-10.0807,0.7698,-36.8245,79.18468739726755,26.967098122776143,82.28357976025875,-21.173417833116318,-88.93584357367621,-40.84764268663194,4.298924361125077,2.2310880151125465,4.457838606126238,-6.741892496744791,-0.13570149739583334,4.342592027452257,0.6378,0.0499,2.9354,0.03407,-0.03491,-0.01491,0.0010842340998351574,0.0010001200716942549,0.0008382695959880948,0.0004649730690289289,0.0005000359378755093,0.0005742319044657052,0.009005180560052395,0.009485418908298016,0.011597619391977787,passive,1
2.5406,rehab,large_fast,21.50171419458317,-666.6326593976673,310.19656942620713,-177.38927105063854,0.13300168527072373,-149.9908131021408,48.4895,0.0739,-45.7631,-8.5668,0.405,-34.3687,79.28877197869933,27.021886995523282,82.39065566865524,-21.337187025282116,-88.93877665201823,-40.74529012044271,4.353339318001624,2.3399179288656407,4.438578539555616,-6.993577745225695,-0.13570149739583334,4.274732801649305,0.7001,-0.0155,2.8049,0.03137,-0.04052,-0.01699,0.0010842340998351574,0.0010001200716942549,0.0008382695959880948,0.0004649730690289289,0.0005000359378755093,0.0005742319044657052,0.009005180560052395,0.009485418908298016,0.011597619391977787,passive,1
2.5607,rehab,large_fast,22.309884372001953,-666.6359595583295,309.4428978979595,-177.3882947296249,0.13211904168551392,-149.98985019826318,48.4869,0.0687,-46.492,-12.1144,-0.1041,-32.6128,79.35925851954092,27.059006643767404,82.46143454372293,-21.448559231228298,-88.94075181749132,-40.677032470703125,4.298924361125077,2.3943328857421875,4.467947931572942,-6.972003512912326,-0.13570149739583334,4.274732801649305,0.6724,0.0708,3.9385,0.02512,-0.04292,-0.02053,0.0010842340998351574,0.0010001200716942549,0.0008382695959880948,0.0004649730690289289,0.0005000359378755093,0.0005742319044657052,0.009005180560052395,0.009485418908298016,0.011597619391977787,passive,1
2.5811,rehab,large_fast,23.515267657382264,-666.6322574597264,308.2950787869057,-177.38693974109802,0.1309925231025885,-149.98870141523236,49.1441,0.0329,-47.9611,-14.0747,-0.9002,-37.0213,79.46426769294361,27.114896868715192,82.5702168681834,-21.618211534288193,-88.94361707899306,-40.57509528266059,4.298924361125077,2.3943328857421875,4.694833283377166,-7.183032565646701,-0.13570149739583334,4.342592027452257,0.7774,0.1054,3.3005,0.05053,-0.03737,-0.01491,0.0010842340998351574,0.0010001200716942549,0.0008382695959880948,0.0004649730690289289,0.0005000359378755093,0.0005742319044657052,0.009005180560052395,0.009485418908298016,0.011597619391977787,passive,1
2.6009,rehab,large_fast,24.313652941167668,-666.6252855533836,307.5101397587877,-177.38699009356912,0.1309841846754437,-149.98782504409462,49.7078,-0.0196,-49.5781,-7.3068,-1.5883,-52.5974,79.53377525405128,27.152981899752476,82.6444153738494,-21.732584635416668,-88.945558336046,-40.50776163736979,4.298924361125077,2.3399179288656407,4.749710536239171,-7.185007731119791,-0.13570149739583334,4.342592027452257,0.5216,-0.0328,3.2414,0.00538,-0.03214,-0.01985,0.0010842340998351574,0.0010001200716942549,0.0008382695959880948,0.0004649730690289289,0.0005000359378755093,0.0005742319044657052,0.009005180560052395,0.009485418908298016,0.011597619391977787,passive,1
2.6208,rehab,large_fast,25.101346666222593,-666.6236742276099,306.7182954728543,-177.38701647368833,0.13093916183826707,-149.98659806706945,48.6794,-0.0763,-49.925,-10.3753,-1.3295,-55.2485,79.60245340177329,27.192338244749767,82.71783205542233,-21.847449408637154,-88.94747416178386,-40.44161478678385,4.298924361125077,2.557584554842203,4.50197427579672,-7.061241997612847,-0.06785074869791667,4.274732801649305,0.4809,0.0341,3.3118,0.01353,-0.0382,-0.01657,0.0010842340998351574,0.0010001200716942549,0.0008382695959880948,0.0004649730690289289,0.0005000359378755093,0.0005742319044657052,0.009005180560052395,0.009485418908298016,0.011597619391977787,passive,1
2.641,rehab,large_fast,26.465355167652326,-666.6352740735803,305.30517230924113,-177.38766510644442,0.13147514304324967,-149.98356351954604,47.5632,-0.0939,-50.4217,-35.6231,-0.1339,-30.7215,79.72162378896581,27.26512946704827,82.84457593861192,-22.04972161187066,-88.95068698459201,-40.32777574327257,4.135672692025062,2.6664212670656715,4.530602634543239,-7.2356414794921875,-0.06785074869791667,3.799769083658854,0.5414,0.012,2.7952,0.01191,-0.0293,-0.01429,0.0010842340998351574,0.0010001200716942549,0.0008382695959880948,0.0004649730690289289,0.0005000359378755093,0.0005742319044657052,0.009005180560052395,0.009485418908298016,0.011597619391977787,passive,1
2.6611,rehab,large_fast,27.226776983839464,-666.6380850098737,304.48649524691814,-177.38901678576323,0.13262319694685548,-149.98214710184388,46.3714,-0.0863,-50.6215,-65.8412,0.9672,4.6016,79.78810603075688,27.30724599101756,82.91767309207728,-22.165162828233505,-88.95246717664931,-40.26401943630642,4.026835979801594,2.7208362239422184,4.634061756700572,-7.280934651692708,-0.13570149739583334,4.0033213297526045,0.6385,-0.0815,3.0593,0.01015,-0.03911,-0.02405,0.0010842340998351574,0.0010001200716942549,0.0008382695959880948,0.0004649730690289289,0.0005000359378755093,0.0005742319044657052,0.009005180560052395,0.009485418908298016,0.011597619391977787,passive,1
2.6815,rehab,large_fast,28.311642047637967,-666.6395762677578,303.26369469462816,-177.3907034958201,0.13412862358313937,-149.98356361680075,46.7017,-0.0508,-52.336,-83.0489,1.6053,28.7358,79.88282911848313,27.370043461865716,83.02724403910118,-22.33822292751736,-88.9550272623698,-40.16983879937066,3.8635911091719524,2.557584554842203,4.516529800868271,-7.2870635986328125,-0.13570149739583334,4.0033213297526045,0.3953,-0.1269,1.8488,0.01599,-0.03706,-0.00877,0.0010842340998351574,0.0010001200716942549,0.0008382695959880948,0.0004649730690289289,0.0005000359378755093,0.0005742319044657052,0.009005180560052395,0.009485418908298016,0.011597619391977787,passive,1
2.7011,rehab,large_fast,29.0096344054047,-666.6389242600437,302.4667074111253,-177.3905704139872,0.1339240842543683,-149.9845002180544,45.5203,0.0205,-51.9349,-80.3311,1.7089,32.5281,79.94378420385983,27.410868276463876,83.09948458529935,-22.453418307834202,-88.95677354600694,-40.1092529296875,3.754754396948484,2.503169597965656,4.535035237227336,-7.253655327690972,-0.13570149739583334,3.7319098578559027,0.3421,-0.0325,2.4958,0.01172,-0.03327,-0.0107,0.0010842340998351574,0.0010001200716942549,0.0008382695959880948,0.0004649730690289289,0.0005000359378755093,0.0005742319044657052,0.009005180560052395,0.009485418908298016,0.011597619391977787,passive,1
2.721,rehab,large_fast,30.030284961581607,-666.6378100947627,301.2803517317153,-177.389473336616,0.13295190361560907,-149.9855604836098,41.8693,0.0872,-49.0382,-71.597,1.1097,29.5625,80.03292574740873,27.47190494348507,83.20706358050356,-22.626258002387154,-88.95924038357205,-40.02100626627604,3.754754396948484,2.557584554842203,4.492470014213335,-7.317165798611111,-0.06785074869791667,3.799769083658854,0.4106,-0.0685,2.7751,0.01186,-0.02335,-0.0066,0.0010842340998351574,0.0010001200716942549,0.0008382695959880948,0.0004649730690289289,0.0005000359378755093,0.0005742319044657052,0.009005180560052395,0.009485418908298016,0.011597619391977787,passive,1
2.7406,rehab,large_fast,30.70546438826899,-666.6319036755701,300.4885886975452,-177.38919473807678,0.132697671769547,-149.98557143746194,39.5178,0.0851,-47.2379,-61.2712,0.2037,20.763,80.09182089626199,27.512362640683012,83.27913416494238,-22.74096171061198,-88.96083407931857,-39.96339586046007,3.64592448319539,2.448754641089109,4.615671894337871,-7.08341810438368,-0.13570149739583334,3.596208360460069,0.4714,-0.22,2.4495,0.02175,-0.05121,-0.01269,0.0010842340998351574,0.0010001200716942549,0.0008382695959880948,0.0004649730690289289,0.0005000359378755093,0.0005742319044657052,0.009005180560052395,0.009485418908298016,0.011597619391977787,passive,1
2.7611,rehab,large_fast,31.701990358718657,-666.6283128751431,299.3070560695255,-177.38788176107266,0.13167946840461883,-149.98474226921215,38.7583,0.0487,-47.1645,-52.3259,-0.5588,11.2792,80.17882772011332,27.573725634282177,83.38557781559406,-22.913055419921875,-88.96307203504774,-39.879158867730034,3.5370877709719215,2.61199951171875,4.430094048528388,-7.030682033962673,-0.06785074869791667,3.528349134657118,0.5613,-0.0623,2.7698,0.02867,-0.05044,-0.01836,0.0010842340998351574,0.0010001200716942549,0.0008382695959880948,0.0004649730690289289,0.0005000359378755093,0.0005742319044657052,0.009005180560052395,0.009485418908298016,0.011597619391977787,passive,1
2.781,rehab,large_fast,32.35071948544585,-666.6285482875818,298.5033207540909,-177.38828932005518,0.132029627465197,-149.98475782061604,39.489,0.0245,-49.0727,-34.5023,-0.9571,-9.2461,80.23552696303565,27.616188880240564,83.45628190748762,-23.02741156684028,-88.96457248263889,-39.82373555501302,3.482672814095374,2.7752511808187657,4.324527400554997,-7.143495347764757,-0.06785074869791667,3.4604983859592013,0.3449,-0.1194,2.1649,0.008,-0.03201,-0.0119,0.0010842340998351574,0.0010001200716942549,0.0008382695959880948,0.0004649730690289289,0.0005000359378755093,0.0005742319044657052,0.009005180560052395,0.009485418908298016,0.011597619391977787,passive,1
2.8007,rehab,large_fast,32.99188653965825,-666.6339346256983,297.6994357546912,-177.38822851534866,0.13195126752209138,-149.98443487438013,39.2001,-0.0131,-49.7112,-4.2807,-0.984,-40.9366,80.29165513444654,27.65947474111425,83.52596622882503,-23.142174614800346,-88.96607293023003,-39.769227769639755,3.5370877709719215,2.7752511808187657,4.330931559647664,-7.154151068793403,-0.13570149739583334,3.324796888563368,0.2609,0.0701,1.9493,0.01108,-0.03575,-0.00498,0.0010842340998351574,0.0010001200716942549,0.0008382695959880948,0.0004649730690289289,0.0005000359378755093,0.0005742319044657052,0.009005180560052395,0.009485418908298016,0.011597619391977787,passive,1
2.8208,rehab,large_fast,33.932918202736445,-666.6357345190851,296.47594394174905,-177.39014162832086,0.13354670114283285,-149.9842145207563,38.8908,-0.0402,-50.379,7.2462,-0.7377,-49.3587,80.37395061832844,27.725141166460396,83.63147848903543,-23.31335279676649,-88.96822611490886,-39.689085218641495,3.5370877709719215,2.884087893042234,4.3782081226311105,-7.056469387478298,-0.13570149739583334,3.324796888563368,0.244,-0.1407,2.202,-0.00109,-0.0367,-0.01302,0.0010842340998351574,0.0010001200716942549,0.0008382695959880948,0.0004649730690289289,0.0005000359378755093,0.0005742319044657052,0.009005180560052395,0.009485418908298016,0.011597619391977787,passive,1
2.8406,rehab,large_fast,34.55731254631441,-666.6338670522811,295.6676449633933,-177.39055203767796,0.13391954779243262,-149.98377182479229,38.7666,-0.0256,-51.0998,1.4337,-0.4233,-37.024,80.42851514155322,27.768352244159964,83.70191064211402,-23.428081936306423,-88.96961636013455,-39.6362559000651,3.2650061881188117,2.7208362239422184,4.487275982847308,-7.276975843641493,-0.06785074869791667,3.392647637261285,0.3393,-0.1233,2.2845,0.00755,-0.02873,-0.01377,0.0010842340998351574,0.0010001200716942549,0.0008382695959880948,0.0004649730690289289,0.0005000359378755093,0.0005742319044657052,0.009005180560052395,0.009485418908298016,0.011597619391977787,passive,1
2.8608,rehab,large_fast,35.61014798053563,-666.63190776211,294.28028571907964,-177.3896508960047,0.13329052482192552,-149.98502628870582,38.0396,0.0015,-50.7154,-9.1622,-0.108,-14.6025,80.52056643042233,27.842931464166924,83.82299819795212,-23.627666897243923,-88.97196451822917,-39.54519483778212,3.2105844327718907,2.7208362239422184,4.246875271938815,-7.106848822699653,-0.06785074869791667,3.1890869140625,0.3687,-0.1263,2.3661,0.00323,-0.03941,-0.01714,0.0010842340998351574,0.0010001200716942549,0.0008382695959880948,0.0004649730690289289,0.0005000359378755093,0.0005742319044657052,0.009005180560052395,0.009485418908298016,0.011597619391977787,passive,1
2.8816,rehab,large_fast,36.19767406539709,-666.6330772918641,293.4969044132299,-177.38830964199033,0.13215053836129745,-149.98644673404277,39.0235,0.0027,-52.3241,-16.2676,0.2462,5.5667,80.57199685880454,27.8855034856513,83.89111207263305,-23.741709391276043,-88.97337171766493,-39.493628607855904,3.1561694758953434,2.6664212670656715,4.271499331634824,-7.347301907009548,-0.06785074869791667,3.121236165364583,0.3578,-0.0627,2.0112,0.01069,-0.03405,-0.00728,0.0010842340998351574,0.0010001200716942549,0.0008382695959880948,0.0004649730690289289,0.0005000359378755093,0.0005742319044657052,0.009005180560052395,0.009485418908298016,0.011597619391977787,passive,1
2.9012,rehab,large_fast,37.080241801823504,-666.6333376292685,292.300468355653,-177.38804099393698,0.13186177106572983,-149.9884213417035,38.5667,-0.0255,-51.9763,-17.8171,0.3651,17.69,80.64924107919825,27.95097275535659,83.99366699823058,-23.91251458062066,-88.97549099392361,-39.41633436414931,3.2105844327718907,2.8296661376953125,4.410215321153697,-7.115164862738715,-0.0,3.2569376627604165,0.2582,-0.1117,2.1948,0.00242,-0.04216,-0.01129,0.0010842340998351574,0.0010001200716942549,0.0008382695959880948,0.0004649730690289289,0.0005000359378755093,0.0005742319044657052,0.009005180560052395,0.009485418908298016,0.011597619391977787,passive,1
2.9211,rehab,large_fast,37.67413179796796,-666.6314507860383,291.4845096395347,-177.38945050831433,0.13301065323619124,-149.98858741776695,37.7511,-0.0419,-51.0029,-21.053,0.2295,29.1529,80.70118139285853,27.995869853709003,84.0625015107712,-24.025997585720486,-88.97684733072917,-39.36550564236111,3.373836101871906,2.7752511808187657,4.24325168722927,-6.998079087999132,-0.13570149739583334,3.121236165364583,0.404,-0.0387,1.8237,0.01279,-0.0379,-0.00539,0.0010842340998351574,0.0010001200716942549,0.0008382695959880948,0.0004649730690289289,0.0005000359378755093,0.0005742319044657052,0.009005180560052395,0.009485418908298016,0.011597619391977787,passive,1
2.9408,rehab,large_fast,38.58113319507527,-666.6330879525971,290.2657872886406,-177.39102471507965,0.13427723665918784,-149.98706090655574,37.5053,-0.0148,-50.6495,-21.2977,0.3246,30.8814,80.78056713142017,28.064051713093672,84.16385310711247,-24.195853339301216,-88.9788818359375,-39.289559258355034,3.2105844327718907,2.8296661376953125,4.192861424814357,-6.8551381429036455,-0.06785074869791667,3.121236165364583,0.3184,-0.1917,2.4685,0.00088,-0.03638,-0.01134,0.0010842340998351574,0.0010001200716942549,0.0008382695959880948,0.0004649730690289289,0.0005000359378755093,0.0005742319044657052,0.009005180560052395,0.009485418908298016,0.011597619391977787,passive,1
2.9609,rehab,large_fast,39.171892708932,-666.6380013966511,289.47101711189595,-177.39031113221523,0.13379773099115747,-149.9870523485017,36.2711,0.0184,-48.7763,-22.7197,0.6358,29.9466,80.83233068485072,28.10906438544245,84.2299206422107,-24.309344821506077,-88.98014492458768,-39.23907809787326,3.319421144995359,2.7752511808187657,4.205581362884824,-7.121938069661458,-0.06785074869791667,3.121236165364583,0.3193,-0.1499,2.2507,0.00356,-0.04647,-0.01617,0.0010842340998351574,0.0010001200716942549,0.0008382695959880948,0.0004649730690289289,0.0005000359378755093,0.0005742319044657052,0.009005180560052395,0.009485418908298016,0.011597619391977787,passive,1
2.9808,rehab,large_fast,40.04969946229574,-666.6379576204314,288.29406393130074,-177.38845423630355,0.1322701610519475,-149.98681941446046,36.4349,0.0244,-48.8299,-17.4111,0.637,18.9677,80.90917379549234,28.17515231595181,84.3291715112063,-24.479387071397568,-88.98213704427083,-39.16437784830729,3.2105844327718907,2.7208362239422184,4.19409194795212,-7.01369391547309,-0.06785074869791667,3.0533854166666665,0.1178,-0.1065,2.1056,-0.00139,-0.0348,-0.00962,0.0010842340998351574,0.0010001200716942549,0.0008382695959880948,0.0004649730690289289,0.0005000359378755093,0.0005742319044657052,0.009005180560052395,0.009485418908298016,0.011597619391977787,passive,1
3.0006,rehab,large_fast,40.636614298954,-666.6348140577682,287.5073192856037,-177.38738160209056,0.13140839614718444,-149.98735872326844,36.1788,0.0145,-48.6069,-4.6115,0.1998,-1.5617,80.96051584375967,28.21926759021117,84.39559936523438,-24.59286159939236,-88.98347642686632,-39.11376953125,3.1017545190187965,2.7208362239422184,4.193500481029548,-7.055528428819445,-0.06785074869791667,3.121236165364583,0.1685,-0.1789,1.8153,-0.00095,-0.01749,-0.00748,0.0010842340998351574,0.0010001200716942549,0.0008382695959880948,0.0004649730690289289,0.0005000359378755093,0.0005742319044657052,0.009005180560052395,0.009485418908298016,0.011597619391977787,passive,1
3.021,rehab,large_fast,41.52569799117321,-666.628816078547,286.31688855802054,-177.38704724669446,0.13111918512994356,-149.9871042769242,36.2155,0.034,-49.0537,4.6657,-0.3648,-17.1238,81.03827674790185,28.286524857624922,84.49478224952622,-24.762064615885414,-88.98550245496962,-39.03816223144531,3.2650061881188117,2.992917806795328,4.1212667333017485,-6.948640611436632,-0.13570149739583334,3.121236165364583,0.2018,-0.141,2.0464,-0.00342,-0.025,-0.01001,0.0010842340998351574,0.0010001200716942549,0.0008382695959880948,0.0004649730690289289,0.0005000359378755093,0.0005742319044657052,0.009005180560052395,0.009485418908298016,0.011597619391977787,passive,1
3.0408,rehab,large_fast,42.127021840436036,-666.6298952407464,285.5073039437481,-177.3878730227354,0.13175501338553539,-149.98554566041884,36.3861,0.0475,-49.7564,13.7766,-0.7027,-31.1247,81.0909376994218,28.33336631850441,84.56001357276841,-24.874623616536457,-88.98685031467014,-38.98832533094618,3.373836101871906,2.8296661376953125,4.05071220775642,-7.037005954318576,-0.06785074869791667,3.1890869140625,0.2009,-0.24,2.09,-0.00744,-0.03582,-0.00825,0.0010842340998351574,0.0010001200716942549,0.0008382695959880948,0.0004649730690289289,0.0005000359378755093,0.0005742319044657052,0.009005180560052395,0.009485418908298016,0.011597619391977787,passive,1
3.061,rehab,large_fast,42.72372733749256,-666.6326967254491,284.69343796057245,-177.38868014632737,0.1324405479133121,-149.9844377051645,36.3996,0.0034,-50.0464,13.644,-0.8048,-29.4993,81.14321793660079,28.38086723101021,84.62496615872524,-24.98754713270399,-88.98814731174045,-38.93842061360677,3.2650061881188117,2.938502849918781,3.9588512760577816,-7.161085340711805,-0.06785074869791667,3.0533854166666665,0.1084,-0.1363,2.0202,-0.0062,-0.02471,-0.00716,0.0010842340998351574,0.0010001200716942549,0.0008382695959880948,0.0004649730690289289,0.0005000359378755093,0.0005742319044657052,0.009005180560052395,0.009485418908298016,0.011597619391977787,passive,1
3.0809,rehab,large_fast,43.73914901531429,-666.6346123275467,283.2803076771337,-177.38989609679692,0.13346842386635763,-149.98509972726362,37.0527,-0.0442,-50.9501,5.3466,-0.723,-12.0071,81.23217592144957,28.463380265944075,84.73789555011409,-25.184071858723957,-88.9904276529948,-38.851004706488716,3.2105844327718907,2.8296661376953125,3.9866366244778773,-7.041956583658854,-0.06785074869791667,3.121236165364583,0.214,-0.3438,1.0906,-0.00334,-0.03255,-0.00784,0.0010842340998351574,0.0010001200716942549,0.0008382695959880948,0.0004649730690289289,0.0005000359378755093,0.0005742319044657052,0.009005180560052395,0.009485418908298016,0.011597619391977787,passive,1
3.1006,rehab,large_fast,44.30704893660185,-666.6333225318998,282.48135266435446,-177.38972509086204,0.1332529533610436,-149.98678291759882,37.2278,-0.0464,-51.1415,0.115,-0.4251,4.5096,81.28192712764928,28.50989540024559,84.80246062325959,-25.296952989366318,-88.99181789822049,-38.80083719889323,3.1017545190187965,2.8296661376953125,4.004387430625386,-7.133746676974826,-0.06785074869791667,3.121236165364583,0.1133,-0.2429,1.6198,-0.00351,-0.0235,-0.00557,0.0010842340998351574,0.0010001200716942549,0.0008382695959880948,0.0004649730690289289,0.0005000359378755093,0.0005742319044657052,0.009005180560052395,0.009485418908298016,0.011597619391977787,passive,1
3.1206,rehab,large_fast,45.165405253600994,-666.6322638219139,281.29842402597814,-177.3884440543894,0.13219331632636913,-149.98825046293535,37.4379,-0.0308,-51.339,-5.9191,0.1842,20.2776,81.35712500846032,28.57933497664952,84.89768679779355,-25.465562608506943,-88.99382697211371,-38.72606065538194,3.2650061881188117,2.938502849918781,3.9774111001798422,-7.0645904541015625,-0.06785074869791667,3.0533854166666665,0.1961,-0.1672,1.8411,-0.00286,-0.03184,-0.01354,0.0010842340998351574,0.0010001200716942549,0.0008382695959880948,0.0004649730690289289,0.0005000359378755093,0.0005742319044657052,0.009005180560052395,0.009485418908298016,0.011597619391977787,passive,1
3.1411,rehab,large_fast,45.74690679418493,-666.6358192054857,280.51097998424746,-177.38736250288525,0.1313529990630087,-149.98904274561593,37.0749,-0.0311,-50.6638,-11.6904,0.9236,30.5066,81.40812033473856,28.626455174814357,84.95978402619315,-25.577689276801216,-88.99515787760417,-38.675528632269966,3.2650061881188117,2.938502849918781,3.7318979395498144,-7.177090115017361,-0.06785074869791667,3.2569376627604165,0.203,-0.0669,2.0921,0.0118,-0.02685,-0.00821,0.0010842340998351574,0.0010001200716942549,0.0008382695959880948,0.0004649730690289289,0.0005000359378755093,0.0005742319044657052,0.009005180560052395,0.009485418908298016,0.011597619391977787,passive,1
3.1611,rehab,large_fast,46.65213310846597,-666.6361702436446,279.31288727307214,-177.3868990425899,0.131011236013528,-149.98719629845027,36.0161,-0.0197,-48.8044,-13.1327,1.0955,30.4173,81.48741769318534,28.698315006671564,85.05351453724474,-25.74615478515625,-88.99714999728732,-38.59996371799045,3.428251058748453,3.047339562142249,3.9130703765566985,-7.01356675889757,-0.06785074869791667,3.2569376627604165,0.1121,-0.16,1.4374,-0.01158,-0.0302,-0.00598,0.0010842340998351574,0.0010001200716942549,0.0008382695959880948,0.0004649730690289289,0.0005000359378755093,0.0005742319044657052,0.009005180560052395,0.009485418908298016,0.011597619391977787,passive,1
3.181,rehab,large_fast,47.254332666234575,-666.6331572145081,278.49467754350707,-177.38852577341916,0.13230109321253042,-149.98599249125226,35.9002,0.0211,-48.1086,-6.8893,0.5834,19.4838,81.54013303246829,28.74742035818572,85.11661793925974,-25.85781521267361,-88.99848937988281,-38.549702962239586,3.2650061881188117,2.992917806795328,3.8869438549079516,-7.002495659722222,-0.13570149739583334,3.1890869140625,0.1254,-0.1595,1.9407,-0.01729,-0.02723,-0.01167,0.0010842340998351574,0.0010001200716942549,0.0008382695959880948,0.0004649730690289289,0.0005000359378755093,0.0005742319044657052,0.009005180560052395,0.009485418908298016,0.011597619391977787,passive,1
3.2006,rehab,large_fast,48.1480670839689,-666.633672076076,277.270921824733,-177.3904990737235,0.13392300090065093,-149.9858724063466,36.2989,0.0602,-48.3774,3.7589,0.1586,4.1348,81.61844461271079,28.821850011844447,85.2096957971554,-26.02508544921875,-89.00048149956596,-38.47338358561198,3.2105844327718907,3.1017545190187965,3.7371055678565903,-7.101169162326388,-0.13570149739583334,3.121236165364583,0.0808,-0.1513,1.6373,0.00093,-0.03983,-0.00837,0.0010842340998351574,0.0010001200716942549,0.0008382695959880948,0.0004649730690289289,0.0005000359378755093,0.0005742319044657052,0.009005180560052395,0.009485418908298016,0.011597619391977787,passive,1
3.2205,rehab,large_fast,48.73985707383031,-666.6380393435128,276.47335141661705,-177.389908315617,0.1334565897546916,-149.9860516569113,36.0726,0.0639,-48.1777,16.223,0.0848,-13.8462,81.67036453095993,28.871009751121598,85.27024977278,-26.137093438042534,-89.00183783637152,-38.422537909613716,3.2105844327718907,3.047339562142249,3.6716227012105507,-7.02667236328125,-0.06785074869791667,3.2569376627604165,0.1108,-0.2228,1.0355,-0.00243,-0.04296,-0.00607,0.0010842340998351574,0.0010001200716942549,0.0008382695959880948,0.0004649730690289289,0.0005000359378755093,0.0005742319044657052,0.009005180560052395,0.009485418908298016,0.011597619391977787,passive,1
3.2411,rehab,large_fast,49.335365209021546,-666.6346305223041,275.69120828157776,-177.38871622492456,0.13249740763230405,-149.98629652927653,36.7834,0.0215,-49.3252,36.1577,-0.1992,-41.9476,81.7225155972018,28.918551454449645,85.33106888874923,-26.24853346082899,-89.00321960449219,-38.3713870578342,3.428251058748453,2.992917806795328,3.8106786142481437,-6.787134806315104,-0.06785074869791667,3.1890869140625,0.0603,-0.2828,1.2495,-0.02268,-0.03243,-0.01265,0.0010842340998351574,0.0010001200716942549,0.0008382695959880948,0.0004649730690289289,0.0005000359378755093,0.0005742319044657052,0.009005180560052395,0.009485418908298016,0.011597619391977787,passive,1
3.2608,rehab,large_fast,50.24432062867405,-666.6273596209728,274.5117400240723,-177.38741638187875,0.1314720220334639,-149.9857252467847,37.6874,-0.0248,-50.4247,43.3517,-0.7689,-51.7605,81.80208489446356,28.990601643477337,85.42204601929919,-26.41554938422309,-89.00528801812065,-38.29425387912326,3.1561694758953434,3.047339562142249,3.88866386791267,-7.024909125434028,-0.06785074869791667,3.2569376627604165,-0.0431,-0.2068,1.6186,-0.01922,-0.02201,-0.00464,0.0010842340998351574,0.0010001200716942549,0.0008382695959880948,0.0004649730690289289,0.0005000359378755093,0.0005742319044657052,0.009005180560052395,0.009485418908298016,0.011597619391977787,passive,1
3.281,rehab,large_fast,50.85712217725383,-666.6271575794266,273.695950229458,-177.38863742368736,0.1324278175433443,-149.98466430128462,38.511,-0.0208,-51.0584,32.7824,-1.0764,-33.994,81.8557860119508,29.041481395759206,85.48230766069771,-26.526692708333332,-89.00666978624132,-38.242857191297745,3.2650061881188117,3.1561694758953434,3.826988144676284,-6.758202446831597,-0.0,3.2569376627604165,-0.0113,-0.2256,0.8795,-0.03308,-0.01619,-0.00189,0.0010842340998351574,0.0010001200716942549,0.0008382695959880948,0.0004649730690289289,0.0005000359378755093,0.0005742319044657052,0.009005180560052395,0.009485418908298016,0.011597619391977787,passive,1
3.3007,rehab,large_fast,51.90695861226919,-666.632381580092,272.26531791181867,-177.39102221413597,0.13425493681928366,-149.98528906343978,39.0228,0.0172,-51.3576,21.2355,-0.6079,-11.8207,81.94788489011255,29.131805873153233,85.58619508648863,-26.720631917317707,-89.00913662380643,-38.15230475531684,3.2105844327718907,3.2105844327718907,3.709163854617884,-6.978352864583333,-0.0,2.985526190863715,0.114,-0.2203,1.2985,-0.01211,-0.03568,-0.00442,0.0010842340998351574,0.0010001200716942549,0.0008382695959880948,0.0004649730690289289,0.0005000359378755093,0.0005742319044657052,0.009005180560052395,0.009485418908298016,0.011597619391977787,passive,1
3.3213,rehab,large_fast,52.502481959726786,-666.6383672233744,271.45884437215534,-177.3911394352467,0.13435055818992742,-149.98633649790537,40.0512,-0.0004,-52.4964,6.1361,0.3643,14.6785,82.0001719257619,29.183324681650294,85.64441038830445,-26.831783718532986,-89.01053534613715,-38.10021294487847,3.373836101871906,3.1561694758953434,3.7150989192547184,-7.03507317437066,-0.06785074869791667,3.1890869140625,0.058,-0.0275,1.8709,-0.00523,-0.04296,-0.00621,0.0010842340998351574,0.0010001200716942549,0.0008382695959880948,0.0004649730690289289,0.0005000359378755093,0.0005742319044657052,0.009005180560052395,0.009485418908298016,0.011597619391977787,passive,1
3.3409,rehab,large_fast,53.417314889185334,-666.63689694138,270.2789549165722,-177.38976675321175,0.13324898951083977,-149.98659986443684,40.6648,-0.047,-52.9586,-5.1569,0.7895,32.2617,82.08035988382774,29.258107855768486,85.73138321980392,-26.99766370985243,-89.01268005371094,-38.02161322699653,3.2650061881188117,3.2105844327718907,3.6235167248414295,-7.00197007921007,-0.06785074869791667,3.2569376627604165,0.0911,-0.1601,1.5014,-0.0139,-0.03317,-0.00728,0.0010842340998351574,0.0010001200716942549,0.0008382695959880948,0.0004649730690289289,0.0005000359378755093,0.0005742319044657052,0.009005180560052395,0.009485418908298016,0.011597619391977787,passive,1
3.3608,rehab,large_fast,54.04222200416955,-666.6339055787456,269.4990948521708,-177.38816064234103,0.1320078317871319,-149.9866963854804,38.7509,-0.0481,-49.9633,-9.956,0.3582,37.0627,82.13510796575262,29.307702697149598,85.78898665928604,-27.108501858181423,-89.01412963867188,-37.96800401475694,3.5915027278484684,2.992917806795328,3.64268161282681,-6.958448621961805,-0.06785074869791667,3.4604983859592013,-0.0427,-0.2286,1.3644,-0.03817,-0.02282,-0.00879,0.0010842340998351574,0.0010001200716942549,0.0008382695959880948,0.0004649730690289289,0.0005000359378755093,0.0005742319044657052,0.009005180560052395,0.009485418908298016,0.011597619391977787,passive,1
3.3813,rehab,large_fast,54.994122683127095,-666.6289113400891,268.30105609707675,-177.38833723851045,0.13212025630700225,-149.9859554407829,38.2783,0.0033,-48.5551,-11.8187,-0.3427,38.5612,82.21849800336479,29.384552606261604,85.87522525598507,-27.273805406358505,-89.01635064019096,-37.88720024956597,3.5915027278484684,3.2105844327718907,3.634673014725789,-6.831292046440972,-0.06785074869791667,3.324796888563368,0.042,-0.2685,1.0155,-0.0272,-0.0266,-0.00506,0.0010842340998351574,0.0010001200716942549,0.0008382695959880948,0.0004649730690289289,0.0005000359378755093,0.0005742319044657052,0.009005180560052395,0.009485418908298016,0.011597619391977787,passive,1
3.4008,rehab,large_fast,55.62415942543106,-666.63048490916,267.48449705119384,-177.3896202204765,0.13310112812321173,-149.98594402178657,38.4272,0.0614,-48.1514,-7.0957,-0.4586,33.698,82.27375597056776,29.43781862164488,85.93204007290377,-27.38388909233941,-89.01783413357205,-37.83318413628472,3.5370877709719215,3.373836101871906,3.4532082434928064,-6.974283854166666,-0.06785074869791667,3.4604983859592013,0.065,-0.154,1.5301,-0.03021,-0.03204,-0.00556,0.0010842340998351574,0.0010001200716942549,0.0008382695959880948,0.0004649730690289289,0.0005000359378755093,0.0005742319044657052,0.009005180560052395,0.009485418908298016,0.011597619391977787,passive,1
3.4208,rehab,large_fast,56.575382010541,-666.636274282436,266.27085622525306,-177.39045320590577,0.1337595745520316,-149.98668748825236,38.702,0.0393,-48.1318,10.2261,-0.157,13.5379,82.3572275898244,29.517911401125463,86.01555248298267,-27.54889594184028,-89.02008056640625,-37.75081210666232,3.482672814095374,3.373836101871906,3.4566006802096223,-6.851467556423611,-0.06785074869791667,3.528349134657118,-0.0474,-0.1654,1.474,-0.04428,-0.03775,-0.00408,0.0010842340998351574,0.0010001200716942549,0.0008382695959880948,0.0004649730690289289,0.0005000359378755093,0.0005742319044657052,0.009005180560052395,0.009485418908298016,0.011597619391977787,passive,1
3.4406,rehab,large_fast,57.224577522392565,-666.637192646858,265.4711582236322,-177.39040103219415,0.1336956708479041,-149.98617764977635,39.6187,-0.0395,-48.9957,40.7178,-0.1886,-23.4636,82.41415798073947,29.57080350063815,86.07073566701152,-27.658699883355034,-89.02161492241753,-37.69561767578125,3.428251058748453,3.373836101871906,3.5613991010307084,-6.840523613823785,-0.13570149739583334,3.528349134657118,0.0878,-0.1299,1.6694,-0.0221,-0.03208,-0.00885,0.0010842340998351574,0.0010001200716942549,0.0008382695959880948,0.0004649730690289289,0.0005000359378755093,0.0005742319044657052,0.009005180560052395,0.009485418908298016,0.011597619391977787,passive,1
3.4606,rehab,large_fast,57.87637454131219,-666.6354931502859,264.67820700704215,-177.38999696408604,0.1333489365409209,-149.9861390318699,39.7925,-0.0848,-48.8432,57.5482,-0.5833,-43.7834,82.47129232576577,29.623219707224628,86.12572169539952,-27.768300374348957,-89.02318318684895,-37.6397450764974,3.5370877709719215,3.373836101871906,3.549834902923886,-7.032224867078993,-0.06785074869791667,3.664059109157986,0.0623,-0.1416,1.2293,-0.02553,-0.02801,-0.01029,0.0010842340998351574,0.0010001200716942549,0.0008382695959880948,0.0004649730690289289,0.0005000359378755093,0.0005742319044657052,0.009005180560052395,0.009485418908298016,0.011597619391977787,passive,1
3.4811,rehab,large_fast,58.87848806463458,-666.6293216871208,263.47932065042914,-177.38985108533396,0.13326429402808018,-149.98577142115101,40.9322,-0.0679,-49.5606,57.9389,-0.7507,-40.651,82.55908097371017,29.70273461672339,86.20826872268526,-27.93307834201389,-89.02553134494357,-37.55416022406684,3.64592448319539,3.373836101871906,3.357628548499381,-6.921878390842013,-0.13570149739583334,3.596208360460069,0.011,-0.0512,1.4316,-0.02154,-0.02317,-0.01244,0.0010842340998351574,0.0010001200716942549,0.0008382695959880948,0.0004649730690289289,0.0005000359378755093,0.0005742319044657052,0.009005180560052395,0.009485418908298016,0.011597619391977787,passive,1
3.501,rehab,large_fast,59.542345038156846,-666.630987955139,262.68189698104226,-177.38953456229387,0.13304698230151601,-149.98615236324395,42.5657,-0.015,-50.6403,58.5733,-0.0884,-35.0773,82.61730987246673,29.756598897499615,86.26171149829827,-28.042475382486977,-89.02710808648003,-37.49677022298177,3.5915027278484684,3.482672814095374,3.3086795618038365,-7.061572604709201,-0.06785074869791667,3.7319098578559027,-0.0348,-0.1888,1.2527,-0.02577,-0.03057,-0.00726,0.0010842340998351574,0.0010001200716942549,0.0008382695959880948,0.0004649730690289289,0.0005000359378755093,0.0005742319044657052,0.009005180560052395,0.009485418908298016,0.011597619391977787,passive,1
3.5211,rehab,large_fast,60.69884666577587,-666.6412987443616,261.2863556737075,-177.3890504181215,0.132649916211576,-149.98883060077873,44.3887,0.0015,-51.9894,48.3507,1.0073,-15.7599,82.71885862444887,29.852328158841274,86.35289938142984,-28.233049180772568,-89.02999030219183,-37.39467196994357,3.64592448319539,3.319421144995359,3.258608827496519,-6.763949924045138,-0.06785074869791667,3.799769083658854,0.0466,-0.1408,1.1811,-0.02308,-0.02045,-0.0074,0.0010842340998351574,0.0010001200716942549,0.0008382695959880948,0.0004649730690289289,0.0005000359378755093,0.0005742319044657052,0.009005180560052395,0.009485418908298016,0.011597619391977787,passive,1
3.5406,rehab,large_fast,61.36720939124275,-666.6422591415727,260.4876681419077,-177.38897924585237,0.13255227317286958,-149.9907838356353,45.5227,-0.0233,-52.6901,30.0771,1.3887,9.5394,82.77749543142791,29.90694706982905,86.40533598342745,-28.34197998046875,-89.03169420030382,-37.33529832628038,3.7003394400719367,3.373836101871906,3.23426350508586,-6.674279106987847,-0.13570149739583334,3.596208360460069,-0.1332,-0.1008,0.8719,-0.03043,-0.03349,-0.0044,0.0010842340998351574,0.0010001200716942549,0.0008382695959880948,0.0004649730690289289,0.0005000359378755093,0.0005742319044657052,0.009005180560052395,0.009485418908298016,0.011597619391977787,passive,1
3.5609,rehab,large_fast,62.41024785951933,-666.6389884421787,259.2987819998387,-177.38842597127362,0.13212432609252342,-149.99104699403355,44.9324,-0.0373,-51.1348,13.9218,0.9851,27.9361,82.86892126102259,29.988644288317992,86.48301530592512,-28.504714965820312,-89.03423733181424,-37.245424058702255,3.918006066048499,3.482672814095374,3.2892359365331063,-6.622204250759548,-0.06785074869791667,3.8676198323567705,0.0452,-0.1959,1.4017,-0.03532,-0.02498,-0.01168,0.0010842340998351574,0.0010001200716942549,0.0008382695959880948,0.0004649730690289289,0.0005000359378755093,0.0005742319044657052,0.009005180560052395,0.009485418908298016,0.011597619391977787,passive,1
3.5814,rehab,large_fast,63.14001545961122,-666.6345643001328,258.5105947388741,-177.3876031101259,0.13158610860303724,-149.98973378965218,45.5058,0.0049,-50.8295,6.062,0.4065,37.3325,82.93284047948252,30.043242803894646,86.53404462455522,-28.61313713921441,-89.03591579861111,-37.18402438693576,3.918006066048499,3.5370877709719215,3.229905685575882,-6.607191297743055,-0.06785074869791667,3.799769083658854,0.063,-0.0846,1.17,-0.03638,-0.02812,-0.00852,0.0010842340998351574,0.0010001200716942549,0.0008382695959880948,0.0004649730690289289,0.0005000359378755093,0.0005742319044657052,0.009005180560052395,0.009485418908298016,0.011597619391977787,passive,1
