t,trajectory_type,trajectory_variant,x,y,z,rx,ry,rz,vx,vy,vz,ax,ay,az,j1,j2,j3,j4,j5,j6,dj1,dj2,dj3,dj4,dj5,dj6,fx,fy,fz,tx,ty,tz,Mx,My,Mz,Bx,By,Bz,Kx,Ky,Kz,mode,comfort
0.0007,rehab,safe_near_limit_fast,80.20313835053925,-666.6344243132434,262.4827457127883,-177.65143806748168,0.2916354565939642,-149.8536641977613,-0.1625,-0.0266,0.1598,4.6069,0.9508,1.2483,84.42681114272315,30.063005957272974,85.6922716197401,-27.523091634114582,-89.11320156521268,-35.81650627983941,-0.0,-0.0,-0.03453622950185643,-0.01408047146267361,-0.06785074869791667,-0.0,-2.2305,-0.3123,-2.3301,-0.03032,0.0172,0.05579,0.000896560843102634,0.0010002665221691132,0.0012017011176794767,0.00041550752939656377,0.0005005536368116736,0.0006072662072256207,0.011570200324058533,0.0092311417683959,0.00862911343574524,passive,0
0.0211,rehab,safe_near_limit_fast,80.20463699334664,-666.6342938936551,262.4821311933599,-177.65148906303918,0.29167181096368516,-149.85352666200362,-0.0765,-0.0202,0.0925,4.5092,0.7804,-1.0592,84.42694031366027,30.063053546565595,85.69227841821048,-27.523083157009548,-89.11320156521268,-35.81651475694444,-0.0,-0.0,0.002318278397663985,0.011986626519097222,-0.0,-0.06785074869791667,-2.311,-0.2715,-1.9574,-0.03438,0.02876,0.05874,0.000896560843102634,0.0010002665221691132,0.0012017011176794767,0.00041550752939656377,0.0005005536368116736,0.0006072662072256207,0.011570200324058533,0.0092311417683959,0.00862911343574524,passive,0
0.0408,rehab,safe_near_limit_fast,80.20567181999205,-666.6342687088362,262.48169964820687,-177.6515185589105,0.29170350387202854,-149.8534380515207,0.046,-0.0088,-0.0115,3.4904,0.4593,-4.2259,84.42702869377514,30.06309433738784,85.6922716197401,-27.523074679904514,-89.11319308810764,-35.81651475694444,0.05441495687654703,-0.05441495687654703,0.01630953042814047,0.0007798936631944444,-0.0,-0.06785074869791667,-2.2099,-0.3485,-1.3084,-0.03573,0.00425,0.04651,0.000896560843102634,0.0010002665221691132,0.0012017011176794767,0.00041550752939656377,0.0005005536368116736,0.0006072662072256207,0.011570200324058533,0.0092311417683959,0.00862911343574524,passive,0
0.0608,rehab,safe_near_limit_fast,80.20737162904109,-666.6341634612168,262.4807575266124,-177.6515836602748,0.29178165045921534,-149.8532945513981,0.0792,-0.0,-0.0604,0.9473,0.1765,-4.8324,84.427171461653,30.06316912056196,85.69227841821048,-27.523057725694443,-89.11316765679253,-35.81651475694444,0.05441495687654703,0.05441495687654703,0.005316403832766089,0.007476806640625,0.06785074869791667,-0.0,-2.3131,-0.3507,-1.5797,-0.04632,0.01744,0.05579,0.000896560843102634,0.0010002665221691132,0.0012017011176794767,0.00041550752939656377,0.0005005536368116736,0.0006072662072256207,0.011570200324058533,0.0092311417683959,0.00862911343574524,passive,0
0.0811,rehab,safe_near_limit_fast,80.2074728292084,-666.6342450967918,262.48093120564397,-177.65157504157244,0.2917438727704691,-149.85327337766503,0.0197,0.0056,-0.0512,-3.0487,-0.0455,-2.9021,84.42718505859375,30.06316912056196,85.69225802279935,-27.523066202799477,-89.11319308810764,-35.81652323404948,-0.05441495687654703,-0.0,0.023828638662206063,-0.00032212999131944444,-0.0,-0.0,-2.4597,-0.2249,-1.7632,-0.0609,0.03532,0.05649,0.000896560843102634,0.0010002665221691132,0.0012017011176794767,0.00041550752939656377,0.0005005536368116736,0.0006072662072256207,0.011570200324058533,0.0092311417683959,0.00862911343574524,passive,0
0.1011,rehab,safe_near_limit_fast,80.20162794516817,-666.6352563188228,262.48369572304364,-177.65150918446398,0.29171437177002557,-149.85364524389462,-0.1023,0.0104,-0.0433,-8.3966,-0.2327,1.3795,84.42681114272315,30.06308074044709,85.69206086715849,-27.52283732096354,-89.11318461100261,-35.81661648220486,-0.05441495687654703,-0.0,-0.010211302502320545,0.003238254123263889,-0.0,-0.0,-2.347,-0.4481,-1.9472,-0.04729,0.00389,0.04416,0.000896560843102634,0.0010002665221691132,0.0012017011176794767,0.00041550752939656377,0.0005005536368116736,0.0006072662072256207,0.011570200324058533,0.0092311417683959,0.00862911343574524,passive,0
0.1208,rehab,safe_near_limit_fast,80.19490616514194,-666.6363777395271,262.4879366948414,-177.65153170254501,0.29173483311785,-149.85396150011312,-0.2156,0.0081,-0.0895,-13.9176,-0.3113,6.9683,84.42618568344872,30.06286318939511,85.69174133905089,-27.522303263346352,-89.11317613389757,-35.81683688693576,-0.05441495687654703,-0.0,-0.02162593426090656,0.0872802734375,-0.0,-0.0,-2.2918,-0.4587,-1.3985,-0.04551,0.00746,0.04465,0.000896560843102634,0.0010002665221691132,0.0012017011176794767,0.00041550752939656377,0.0005005536368116736,0.0006072662072256207,0.011570200324058533,0.0092311417683959,0.00862911343574524,passive,0
0.1413,rehab,safe_near_limit_fast,80.18655023959968,-666.6348704357149,262.4893633040133,-177.65310168870337,0.2928433999836258,-149.85359072666944,-0.6326,-0.0083,0.1395,-23.5285,-0.3215,18.3476,84.42549903794091,30.062686429165378,85.69111587977645,-27.519946628146702,-89.11316765679253,-35.81771002875434,-0.0,-0.05441495687654703,-0.029029468498607672,0.17175462510850695,-0.06785074869791667,-0.06785074869791667,-2.1609,-0.4668,-1.8818,-0.03129,0.00439,0.04852,0.000896560843102634,0.0010002665221691132,0.0012017011176794767,0.00041550752939656377,0.0005005536368116736,0.0006072662072256207,0.011570200324058533,0.0092311417683959,0.00862911343574524,passive,0
0.161,rehab,safe_near_limit_fast,80.17536421487883,-666.6328411847129,262.49210945982037,-177.6551262757778,0.2942992920034922,-149.8527989961513,-1.2237,-0.0301,0.5949,-36.8847,-0.3271,35.4716,84.42465602761447,30.062387296468906,85.69036804803527,-27.516649034288193,-89.11312527126736,-35.819193522135414,-0.10882991375309406,-0.0,-0.05515599014735458,0.2611626519097222,-0.0,-0.13570149739583334,-1.949,-0.4918,-1.4904,-0.03798,0.00185,0.04461,0.000896560843102634,0.0010002665221691132,0.0012017011176794767,0.00041550752939656377,0.0005005536368116736,0.0006072662072256207,0.011570200324058533,0.0092311417683959,0.00862911343574524,passive,0
0.1811,rehab,safe_near_limit_fast,80.15903521449081,-666.6324106222552,262.49852310587494,-177.65688295591937,0.29549360531511454,-149.85166414021947,-2.0686,-0.0374,1.4506,-50.0183,-0.1364,54.0831,84.42291561919863,30.06182302342783,85.68890637690478,-27.511706882052952,-89.1131083170573,-35.822296142578125,-0.10882991375309406,-0.10882991375309406,-0.11805543805112934,0.3618367513020833,-0.0,-0.339262220594618,-2.2136,-0.4826,-1.0346,-0.0223,0.00601,0.0456,0.000896560843102634,0.0010002665221691132,0.0012017011176794767,0.00041550752939656377,0.0005005536368116736,0.0006072662072256207,0.011570200324058533,0.0092311417683959,0.00862911343574524,passive,0
0.2011,rehab,safe_near_limit_fast,80.09705312406669,-666.63630588183,262.53671816399725,-177.65987506844752,0.2975020930327993,-149.8499263562185,-2.975,-0.0181,2.4822,-62.3608,0.292,72.3738,84.41752443219175,30.05952514044129,85.68453496045406,-27.501237657335068,-89.11304897732205,-35.82932366265191,-0.2720815828531095,-0.16324487062964108,-0.21844165159924195,0.5113135443793403,-0.0,-0.339262220594618,-2.1112,-0.4578,-1.2025,-0.01985,0.00049,0.04673,0.000896560843102634,0.0010002665221691132,0.0012017011176794767,0.00041550752939656377,0.0005005536368116736,0.0006072662072256207,0.011570200324058533,0.0092311417683959,0.00862911343574524,passive,0
0.2209,rehab,safe_near_limit_fast,80.03169624168356,-666.6377103651255,262.59190099715636,-177.66115007411668,0.29830958888477244,-149.84922379971553,-4.3653,-0.0028,4.1423,-74.2849,0.7604,88.9624,84.41182051554765,30.05569080315014,85.68048307211092,-27.491667005750866,-89.11298116048177,-35.835630628797745,-0.435333251953125,-0.2720815828531095,-0.29393866510674505,0.67840576171875,-0.0,-0.339262220594618,-2.2566,-0.6526,-1.6292,-0.04322,0.01038,0.04892,0.000896560843102634,0.0010002665221691132,0.0012017011176794767,0.00041550752939656377,0.0005005536368116736,0.0006072662072256207,0.011570200324058533,0.0092311417683959,0.00862911343574524,passive,0
0.2409,rehab,safe_near_limit_fast,79.89807933007705,-666.6388964754551,262.7211799413527,-177.6619823141837,0.2987214067436486,-149.84870947316966,-6.487,-0.0063,6.6568,-85.5108,1.0621,102.0383,84.40014754191483,30.0464924727336,85.67234530307279,-27.47307671440972,-89.11283704969618,-35.84761725531684,-0.544163165706219,-0.435333251953125,-0.4060862324025371,0.9026506212022569,-0.0,-0.5428229437934028,-2.1875,-0.6529,-1.5316,-0.03966,0.00276,0.0476,0.000896560843102634,0.0010002665221691132,0.0012017011176794767,0.00041550752939656377,0.0005005536368116736,0.0006072662072256207,0.011570200324058533,0.0092311417683959,0.00862911343574524,passive,0
0.2611,rehab,safe_near_limit_fast,79.79126096734399,-666.6378529104263,262.83888703297043,-177.66204834515824,0.2986383291365145,-149.84776130414332,-8.1811,0.014,8.728,-96.3815,1.03,111.2195,84.39079284667969,30.038001183236,85.66544485564279,-27.457394070095486,-89.11269293891058,-35.857747395833336,-0.6529998779296875,-0.544163165706219,-0.444429605314047,1.086366441514757,-0.0,-0.678524441189236,-1.9901,-0.6833,-1.4386,-0.02904,0.01299,0.0428,0.000896560843102634,0.0010002665221691132,0.0012017011176794767,0.00041550752939656377,0.0005005536368116736,0.0006072662072256207,0.011570200324058533,0.0092311417683959,0.00862911343574524,passive,0
0.2811,rehab,safe_near_limit_fast,79.58952343952255,-666.6338044883952,263.0606903503864,-177.66176162973056,0.2982467793436314,-149.846422214679,-9.889,0.0558,10.7428,-107.6123,0.6488,117.1151,84.37310322676555,30.021705249748607,85.65311243038366,-27.428699069552952,-89.11237928602431,-35.876456366644966,-0.9250814607827971,-0.7618297916827815,-0.5720572896523051,1.3435024685329862,-0.0,-0.8820851643880208,-2.1744,-0.5879,-1.8523,-0.01788,0.01315,0.05063,0.000896560843102634,0.0010002665221691132,0.0012017011176794767,0.00041550752939656377,0.0005005536368116736,0.0006072662072256207,0.011570200324058533,0.0092311417683959,0.00862911343574524,passive,0
0.301,rehab,safe_near_limit_fast,79.41774451345626,-666.6312203006746,263.2508524277953,-177.66070014102186,0.2973975797812964,-149.84611886465453,-12.0369,0.0748,13.0477,-112.6921,0.1464,113.9427,84.3580446148863,30.007781982421875,85.64282634470722,-27.405420939127602,-89.11207411024306,-35.89155409071181,-1.0883331298828125,-0.979496417659344,-0.6881411712948639,1.560575697157118,-0.0,-0.9499359130859375,-2.1837,-0.7219,-1.6163,-0.04057,0.01035,0.04595,0.000896560843102634,0.0010002665221691132,0.0012017011176794767,0.00041550752939656377,0.0005005536368116736,0.0006072662072256207,0.011570200324058533,0.0092311417683959,0.00862911343574524,passive,0
0.3211,rehab,safe_near_limit_fast,79.03809623720188,-666.6334960264398,263.65901018472806,-177.6575630737321,0.29497316435590826,-149.8470004116888,-14.6173,0.0732,15.5551,-111.0367,-0.2682,103.186,84.32484088557781,29.97865053686765,85.61989510413444,-27.35642327202691,-89.11142137315538,-35.92331780327691,-1.360414712735922,-1.1427480867593596,-0.9407927258179919,1.9094424777560763,-0.0,-1.2892066107855902,-2.0011,-0.7075,-0.731,-0.0334,-0.00038,0.03705,0.000896560843102634,0.0010002665221691132,0.0012017011176794767,0.00041550752939656377,0.0005005536368116736,0.0006072662072256207,0.011570200324058533,0.0092311417683959,0.00862911343574524,passive,0
0.3411,rehab,safe_near_limit_fast,78.78401831472117,-666.6341873482007,263.9262039725766,-177.65619649645416,0.29397648933913134,-149.84730836985446,-16.9701,0.0565,17.6409,-115.5157,-0.6532,99.9855,84.30259629051284,29.95951964123414,85.60464613508469,-27.32312520345052,-89.11089579264323,-35.94487508138021,-1.4692514249593904,-1.251584798982828,-0.9584619503210087,2.171028984917535,-0.0,-1.4249081081814237,-2.1101,-0.7611,-1.3274,-0.02371,-0.00734,0.04082,0.000896560843102634,0.0010002665221691132,0.0012017011176794767,0.00041550752939656377,0.0005005536368116736,0.0006072662072256207,0.011570200324058533,0.0092311417683959,0.00862911343574524,passive,0
0.361,rehab,safe_near_limit_fast,78.49650954911553,-666.6299214406988,264.21877070344857,-177.65552222464274,0.2935143001414739,-149.8474613077706,-19.4906,0.0231,19.6787,-129.679,-0.9377,107.335,84.27737396542389,29.93794809473623,85.58859494653079,-27.28562249077691,-89.11026000976562,-35.96951802571615,-1.6325030940594059,-1.4692514249593904,-1.0531238518138923,2.5079345703125,0.06785074869791667,-1.6284688313802083,-2.1831,-0.724,-1.9836,-0.01853,0.00457,0.05409,0.000896560843102634,0.0010002665221691132,0.0012017011176794767,0.00041550752939656377,0.0005005536368116736,0.0006072662072256207,0.011570200324058533,0.0092311417683959,0.00862911343574524,passive,0
0.3809,rehab,safe_near_limit_fast,78.00876136104347,-666.6299571046308,264.7077688139167,-177.65503230763184,0.2933110862407687,-149.84765428666492,-21.9867,-0.0074,21.5807,-139.0912,-0.8518,111.3197,84.23463198218015,29.902833995252553,85.55989180461015,-27.22113715277778,-89.10909864637587,-36.01133558485243,-1.9589996337890625,-1.5780813387124846,-1.2863181841255416,2.850858900282118,0.06785074869791667,-1.8998803032769096,-2.0488,-0.7349,-2.0634,-0.01042,0.01121,0.0487,0.000896560843102634,0.0010002665221691132,0.0012017011176794767,0.00041550752939656377,0.0005005536368116736,0.0006072662072256207,0.011570200324058533,0.0092311417683959,0.00862911343574524,passive,0
0.4008,rehab,safe_near_limit_fast,77.53801546628792,-666.6289691218576,265.1719312697416,-177.65447112180536,0.2930619781690015,-149.84812455045093,-23.9349,-0.0191,22.9463,-138.842,-0.4876,107.9499,84.20185655650526,29.876245177618348,85.53837464587524,-27.172792222764755,-89.10817464192708,-36.04305691189236,-2.067836346012531,-1.7413330078125,-1.4074669261970143,3.1791432698567705,0.06785074869791667,-2.171291775173611,-2.0181,-0.704,-1.822,-0.03077,0.00081,0.0483,0.000896560843102634,0.0010002665221691132,0.0012017011176794767,0.00041550752939656377,0.0005005536368116736,0.0006072662072256207,0.011570200324058533,0.0092311417683959,0.00862911343574524,passive,0
0.421,rehab,safe_near_limit_fast,77.00529868707709,-666.6297962991581,265.6709652220822,-177.6545240419636,0.29328316962228457,-149.8489070599937,-26.8184,-0.0106,25.3113,-141.9125,0.0032,107.9855,84.14670056635791,29.833394418848624,85.50358687296952,-27.093404134114582,-89.106691148546,-36.09656439887153,-2.448754641089109,-1.9589996337890625,-1.5451019589263613,3.459337022569444,0.06785074869791667,-2.374852498372396,-1.9886,-0.7357,-1.3235,-0.01912,0.00879,0.04148,0.000896560843102634,0.0010002665221691132,0.0012017011176794767,0.00041550752939656377,0.0005005536368116736,0.0006072662072256207,0.011570200324058533,0.0092311417683959,0.00862911343574524,passive,0
0.4409,rehab,safe_near_limit_fast,76.54001048313866,-666.6314437519022,266.0994543451457,-177.6545109217909,0.29337687851164784,-149.84897974911547,-30.7174,-0.0029,28.5539,-142.5165,0.5598,105.4477,84.10595053493387,29.802610944993425,85.47826257082495,-27.03611585828993,-89.10559760199652,-36.13659328884548,-2.6664212670656715,-1.9589996337890625,-1.5734991696801517,3.725001017252604,0.06785074869791667,-2.510553995768229,-2.105,-0.6034,-1.1328,-0.03115,0.00685,0.03705,0.000896560843102634,0.0010002665221691132,0.0012017011176794767,0.00041550752939656377,0.0005005536368116736,0.0006072662072256207,0.011570200324058533,0.0092311417683959,0.00862911343574524,passive,0
0.4608,rehab,safe_near_limit_fast,75.78229967770145,-666.6333829894959,266.79237408174725,-177.65372202221957,0.29287483873745107,-149.8487622098888,-34.0999,0.0094,31.0439,-134.8934,0.9024,94.7405,84.0395974640799,29.75275776173809,85.43780487362702,-26.944876776801216,-89.10387674967448,-36.20212978786892,-2.8296661376953125,-2.122251302889078,-1.7588050766746597,3.924280802408854,0.06785074869791667,-2.9176754421657987,-2.1344,-0.6525,-1.5599,-0.03529,0.01126,0.04141,0.000896560843102634,0.0010002665221691132,0.0012017011176794767,0.00041550752939656377,0.0005005536368116736,0.0006072662072256207,0.011570200324058533,0.0092311417683959,0.00862911343574524,passive,0
0.4808,rehab,safe_near_limit_fast,75.245008631015,-666.6337343009209,267.27784887694037,-177.65351585352286,0.2927553337781811,-149.8483743196799,-35.5231,0.0264,31.7491,-121.6181,0.8453,78.4107,83.99253845214844,29.717793228602645,85.40936687205097,-26.880382961697048,-89.10266452365451,-36.24884711371528,-2.992917806795328,-2.2310880151125465,-1.7610213780167079,4.111362033420138,0.06785074869791667,-2.985526190863715,-2.0244,-0.5729,-0.8248,-0.01146,-0.00157,0.04329,0.000896560843102634,0.0010002665221691132,0.0012017011176794767,0.00041550752939656377,0.0005005536368116736,0.0006072662072256207,0.011570200324058533,0.0092311417683959,0.00862911343574524,passive,0
0.5012,rehab,safe_near_limit_fast,74.38195289928613,-666.6302949885041,268.06341641262225,-177.65155761563804,0.29138087428250387,-149.8476795992075,-37.895,0.0405,33.1765,-98.9764,0.52,53.1139,83.91691226770382,29.660849240746828,85.36471451863204,-26.779039171006943,-89.10069783528645,-36.32401360405816,-3.1561694758953434,-2.448754641089109,-1.9029054547300432,4.277258978949653,0.06785074869791667,-3.2569376627604165,-2.0819,-0.7202,-1.2129,-0.0218,-0.00396,0.04068,0.000896560843102634,0.0010002665221691132,0.0012017011176794767,0.00041550752939656377,0.0005005536368116736,0.0006072662072256207,0.011570200324058533,0.0092311417683959,0.00862911343574524,passive,0
0.521,rehab,safe_near_limit_fast,73.61258818641669,-666.6252171192218,268.7367009198881,-177.65098609480546,0.2910105702437675,-149.84725674078845,-40.1795,0.0656,34.4647,-73.3344,0.1673,27.8906,83.84947824006034,29.611743889232674,85.32642553348353,-26.690419514973957,-89.09894307454427,-36.39086405436198,-3.428251058748453,-2.448754641089109,-1.9859011810604887,4.575263129340278,-0.0,-3.2569376627604165,-2.1057,-0.772,-1.4974,-0.02661,0.00113,0.0434,0.000896560843102634,0.0010002665221691132,0.0012017011176794767,0.00041550752939656377,0.0005005536368116736,0.0006072662072256207,0.011570200324058533,0.0092311417683959,0.00862911343574524,passive,0
0.5409,rehab,safe_near_limit_fast,72.63428378996109,-666.6269178637299,269.56002187682486,-177.6507342927766,0.2909188411541718,-149.84750187743168,-41.0901,0.0712,34.4603,-57.4916,-0.1543,15.6071,83.76381071487276,29.552536010742188,85.2780000290068,-26.580641004774304,-89.09670511881511,-36.47504170735677,-3.64592448319539,-2.448754641089109,-2.033823598729502,4.630932278103298,0.13570149739583334,-3.596208360460069,-2.1186,-0.7337,-0.9169,-0.03307,0.00086,0.04364,0.000896560843102634,0.0010002665221691132,0.0012017011176794767,0.00041550752939656377,0.0005005536368116736,0.0006072662072256207,0.011570200324058533,0.0092311417683959,0.00862911343574524,passive,0
0.561,rehab,safe_near_limit_fast,71.94436452661951,-666.6276936966882,270.12033741241106,-177.65094392765926,0.2910797458083483,-149.84835092023772,-42.4642,0.0475,34.8979,-58.9767,-0.5241,18.4981,83.70340630559637,29.51211910436649,85.24508183545406,-26.50536431206597,-89.09518771701389,-36.53374565972222,-3.754754396948484,-2.448754641089109,-2.0221642220374383,4.662695990668403,0.13570149739583334,-3.664059109157986,-2.3071,-0.7318,-1.4406,-0.02072,0.00746,0.05326,0.000896560843102634,0.0010002665221691132,0.0012017011176794767,0.00041550752939656377,0.0005005536368116736,0.0006072662072256207,0.011570200324058533,0.0092311417683959,0.00862911343574524,passive,0
0.5809,rehab,safe_near_limit_fast,71.2426444965196,-666.6269724272406,270.67609172668523,-177.6522369450373,0.2920377237921072,-149.84799661279345,-43.0884,0.0224,34.7462,-64.5775,-0.8766,22.1991,83.64194813341197,29.471919749042776,85.21210245566793,-26.4288330078125,-89.09361097547743,-36.594696044921875,-3.754754396948484,-2.61199951171875,-2.1428302727123296,4.8693084716796875,0.06785074869791667,-3.799769083658854,-2.1288,-0.7806,-1.218,-0.02479,0.00808,0.04066,0.000896560843102634,0.0010002665221691132,0.0012017011176794767,0.00041550752939656377,0.0005005536368116736,0.0006072662072256207,0.011570200324058533,0.0092311417683959,0.00862911343574524,passive,0
0.6014,rehab,safe_near_limit_fast,70.16266644986386,-666.6256461165359,271.54131155715464,-177.65283176291902,0.29256000558069506,-149.84784014884565,-43.8862,0.0026,34.88,-70.236,-1.0915,23.3373,83.54735421662284,29.40963896194307,85.16092357068959,-26.311908298068577,-89.0911356608073,-36.688122219509545,-3.9724210229250465,-2.7208362239422184,-2.142639915541847,4.938854641384548,0.06785074869791667,-4.0033213297526045,-2.0505,-0.8402,-1.281,-0.01262,0.00558,0.04085,0.000896560843102634,0.0010002665221691132,0.0012017011176794767,0.00041550752939656377,0.0005005536368116736,0.0006072662072256207,0.011570200324058533,0.0092311417683959,0.00862911343574524,passive,0
0.6213,rehab,safe_near_limit_fast,69.41763653400378,-666.6239598500631,272.13797362801284,-177.6522293964782,0.29211243430320516,-149.84792246758866,-45.4583,-0.0063,35.7567,-78.7604,-0.9328,26.7907,83.48210249796952,29.36669982305848,85.126101805432,-26.23305426703559,-89.08947414822049,-36.75239562988281,-3.9724210229250465,-2.7208362239422184,-2.179229283096767,4.870062934027778,0.06785074869791667,-4.071180555555555,-2.3852,-0.8971,-0.8996,-0.0272,-0.00163,0.04331,0.000896560843102634,0.0010002665221691132,0.0012017011176794767,0.00041550752939656377,0.0005005536368116736,0.0006072662072256207,0.011570200324058533,0.0092311417683959,0.00862911343574524,passive,0
0.6412,rehab,safe_near_limit_fast,68.27377976375382,-666.6264309795561,273.0398114490283,-177.65067889158527,0.2910002451915301,-149.84878952475336,-47.6634,-0.0225,36.8293,-82.0132,-0.5106,26.4525,83.38197462629563,29.302488270372447,85.0726318359375,-26.11446804470486,-89.08690558539496,-36.85030619303385,-4.244502605778156,-2.61199951171875,-2.2336374415029394,4.980282253689236,0.06785074869791667,-4.342592027452257,-2.1997,-0.9426,-0.8443,-0.02591,0.00346,0.04082,0.000896560843102634,0.0010002665221691132,0.0012017011176794767,0.00041550752939656377,0.0005005536368116736,0.0006072662072256207,0.011570200324058533,0.0092311417683959,0.00862911343574524,passive,0
0.661,rehab,safe_near_limit_fast,67.4994385879355,-666.6256918734779,273.63564327498756,-177.65031734796452,0.29075912736211873,-149.8487169693265,-49.8848,-0.046,37.6229,-72.2712,-0.2578,17.1727,83.31416668278156,29.25986865959545,85.0373137823426,-26.035037570529514,-89.08514234754774,-36.91728379991319,-4.190087648901609,-2.6664212670656715,-2.3128464198348544,5.058636135525173,0.13570149739583334,-4.206882052951388,-2.2048,-0.8844,-1.2963,-0.00155,-0.00207,0.04431,0.000896560843102634,0.0010002665221691132,0.0012017011176794767,0.00041550752939656377,0.0005005536368116736,0.0006072662072256207,0.011570200324058533,0.0092311417683959,0.00862911343574524,passive,0
0.6813,rehab,safe_near_limit_fast,66.33576931364699,-666.6259607457154,274.50833823212935,-177.65125168213734,0.29140629039292704,-149.84804667834803,-51.3862,-0.0518,37.6113,-51.0864,-0.1274,-1.2142,83.21229160422146,29.197805423547727,84.98433330271503,-25.915942721896702,-89.08255683051215,-37.01848347981771,-4.135672692025062,-2.3943328857421875,-2.272640266040764,4.84848870171441,0.06785074869791667,-4.071180555555555,-2.3664,-0.8839,-1.2316,-0.01271,-0.00148,0.05063,0.000896560843102634,0.0010002665221691132,0.0012017011176794767,0.00041550752939656377,0.0005005536368116736,0.0006072662072256207,0.011570200324058533,0.0092311417683959,0.00862911343574524,passive,0
0.7012,rehab,safe_near_limit_fast,65.54305147506453,-666.6294207388681,275.08620043744963,-177.65141863455597,0.29158175735986325,-149.84858657951114,-51.7224,-0.0361,37.0815,-27.4569,0.0347,-22.1277,83.14292681099164,29.157041795182938,84.94889967512376,-25.83754645453559,-89.08075120713976,-37.08641899956597,-4.4077542748781715,-2.503169597965656,-2.132476202332147,4.956851535373263,0.06785074869791667,-4.342592027452257,-2.4117,-0.8313,-0.7987,-0.00324,0.01242,0.05069,0.000896560843102634,0.0010002665221691132,0.0012017011176794767,0.00041550752939656377,0.0005005536368116736,0.0006072662072256207,0.011570200324058533,0.0092311417683959,0.00862911343574524,passive,0
0.7212,rehab,safe_near_limit_fast,64.3314224860567,-666.631415009307,275.92337501903916,-177.65334639412032,0.2930466480381579,-149.84988892355244,-51.8867,-0.0181,36.4838,1.9807,0.1082,-44.6974,83.03689106856243,29.09743280694036,84.89767999932317,-25.721308390299477,-89.07804701063368,-37.189839680989586,-4.516590987101639,-2.557584554842203,-2.1690179805944463,4.749442206488715,0.13570149739583334,-4.342592027452257,-2.4297,-0.8837,-0.6319,-0.01731,-0.00606,0.04774,0.000896560843102634,0.0010002665221691132,0.0012017011176794767,0.00041550752939656377,0.0005005536368116736,0.0006072662072256207,0.011570200324058533,0.0092311417683959,0.00862911343574524,passive,0
0.7408,rehab,safe_near_limit_fast,63.307328948193756,-666.6305662177257,276.6158823966442,-177.65447777743708,0.29386016303048773,-149.85171430280252,-51.6145,-0.0317,35.6013,33.0446,-0.047,-65.8211,82.94726003514658,29.04783796555925,84.85600537592822,-25.626135932074654,-89.07581753200955,-37.27656894259982,-4.353339318001624,-2.448754641089109,-2.156155274646117,4.765133327907986,0.06785074869791667,-4.274732801649305,-2.4637,-0.9408,-0.5278,-0.02726,-0.00481,0.04543,0.000896560843102634,0.0010002665221691132,0.0012017011176794767,0.00041550752939656377,0.0005005536368116736,0.0006072662072256207,0.011570200324058533,0.0092311417683959,0.00862911343574524,passive,0
0.7608,rehab,safe_near_limit_fast,62.09193150774509,-666.6291653703146,277.4532916702983,-177.6534490321804,0.29314979041000583,-149.85295505053892,-50.1305,-0.0437,33.7179,47.9385,-0.3222,-75.7446,82.84087077225789,28.98820178343518,84.80615899114325,-25.51489088270399,-89.07304551866319,-37.38044738769531,-4.516590987101639,-2.503169597965656,-2.0305399375386757,4.551917182074653,0.06785074869791667,-4.342592027452257,-2.4844,-0.9754,-1.2258,-0.01887,0.00415,0.05611,0.000896560843102634,0.0010002665221691132,0.0012017011176794767,0.00041550752939656377,0.0005005536368116736,0.0006072662072256207,0.011570200324058533,0.0092311417683959,0.00862911343574524,passive,0
0.7812,rehab,safe_near_limit_fast,61.28460883746474,-666.628634070765,278.00858591569846,-177.65142314662435,0.2916407772592034,-149.85347245808708,-49.8891,-0.0331,32.5241,38.8745,-0.4261,-72.8578,82.77021426965695,28.948763856793395,84.77355352722772,-25.443361070421005,-89.07119750976562,-37.44976467556423,-4.353339318001624,-2.448754641089109,-1.9868325715017792,4.509039984809028,0.13570149739583334,-4.614003499348958,-2.4551,-1.1578,-1.2172,-0.0176,-0.004,0.04431,0.000896560843102634,0.0010002665221691132,0.0012017011176794767,0.00041550752939656377,0.0005005536368116736,0.0006072662072256207,0.011570200324058533,0.0092311417683959,0.00862911343574524,passive,0
0.8008,rehab,safe_near_limit_fast,60.479267455566585,-666.6297194259499,278.5457055001495,-177.6495134754212,0.29020263640294097,-149.8536985890442,-49.4284,-0.0394,31.2928,15.2403,-0.0883,-59.6314,82.69975492269685,28.91074001198948,84.74177747669786,-25.37393358018663,-89.06934950086806,-37.51920064290365,-4.353339318001624,-2.2310880151125465,-1.9363335335608756,4.265001085069445,0.13570149739583334,-4.410442776150173,-2.4813,-1.1086,-1.0418,-0.02226,-0.00395,0.04565,0.000896560843102634,0.0010002665221691132,0.0012017011176794767,0.00041550752939656377,0.0005005536368116736,0.0006072662072256207,0.011570200324058533,0.0092311417683959,0.00862911343574524,passive,0
0.8208,rehab,safe_near_limit_fast,59.265902411712595,-666.6342574398138,279.29606201809,-177.64898575982144,0.2896941152015854,-149.8540833522466,-47.6052,-0.0651,29.1525,-11.3829,0.6468,-39.4084,82.59365799403426,28.857637159895187,84.69634329918587,-25.27308146158854,-89.06666225857205,-37.62376573350694,-4.4077542748781715,-2.067836346012531,-1.8027911799969059,4.074961344401042,0.13570149739583334,-4.410442776150173,-2.6037,-0.9313,-0.7373,-0.01686,-0.00324,0.04976,0.000896560843102634,0.0010002665221691132,0.0012017011176794767,0.00041550752939656377,0.0005005536368116736,0.0006072662072256207,0.011570200324058533,0.0092311417683959,0.00862911343574524,passive,0
0.8408,rehab,safe_near_limit_fast,58.46908009193374,-666.6360685327708,279.75827543314216,-177.65064782776332,0.2909319203723889,-149.85345383305,-47.6667,-0.0678,28.2539,-30.2275,1.191,-19.4399,82.52396687422649,28.82474616022393,84.66768774655786,-25.207434760199654,-89.06484815809462,-37.69334581163194,-4.190087648901609,-2.122251302889078,-1.6911195056273205,4.041832817925347,0.06785074869791667,-4.410442776150173,-2.4991,-1.0764,-0.8836,-0.0123,-0.00214,0.04815,0.000896560843102634,0.0010002665221691132,0.0012017011176794767,0.00041550752939656377,0.0005005536368116736,0.0006072662072256207,0.011570200324058533,0.0092311417683959,0.00862911343574524,passive,0
0.8611,rehab,safe_near_limit_fast,57.28302822994081,-666.6343991363393,280.429099452415,-177.6532531995895,0.29304297597583956,-149.8527943033561,-49.8455,-0.0268,28.8049,-33.2357,1.294,-7.76,82.42017462702081,28.776497415976948,84.62679494725596,-25.111923217773438,-89.06202528211806,-37.796715630425346,-4.298924361125077,-2.0134145906656093,-1.6882981404219524,3.929011027018229,0.13570149739583334,-4.546152750651042,-2.6242,-1.1532,-0.5107,-0.01346,-0.00194,0.04451,0.000896560843102634,0.0010002665221691132,0.0012017011176794767,0.00041550752939656377,0.0005005536368116736,0.0006072662072256207,0.011570200324058533,0.0092311417683959,0.00862911343574524,passive,0
0.8811,rehab,safe_near_limit_fast,56.499638998193284,-666.6351968271621,280.88654966874316,-177.65328038086815,0.29306601193586707,-149.8512888932348,-51.9218,0.0302,29.6128,-26.7335,1.1734,-3.9124,82.35165284411742,28.744089107702273,84.59894161413212,-25.04959954155816,-89.06018575032552,-37.86603291829427,-4.353339318001624,-2.0134145906656093,-1.7249690896213645,3.8279215494791665,0.13570149739583334,-4.546152750651042,-2.6078,-1.1439,-0.9686,-0.02205,-0.01779,0.04808,0.000896560843102634,0.0010002665221691132,0.0012017011176794767,0.00041550752939656377,0.0005005536368116736,0.0006072662072256207,0.011570200324058533,0.0092311417683959,0.00862911343574524,passive,0
0.9011,rehab,safe_near_limit_fast,55.2985716219983,-666.6353954974505,281.5758308587385,-177.65215450518727,0.29215100786455805,-149.85125383970308,-52.6825,0.0813,29.8015,-19.2647,0.763,-2.0813,82.24661647683322,28.695072136302986,84.55783126377823,-24.957877265082466,-89.05745612250433,-37.970055474175346,-4.353339318001624,-2.122251302889078,-1.730224307220761,3.8144938151041665,0.13570149739583334,-4.546152750651042,-2.7688,-1.1842,-0.8638,-0.02147,0.00097,0.05427,0.000896560843102634,0.0010002665221691132,0.0012017011176794767,0.00041550752939656377,0.0005005536368116736,0.0006072662072256207,0.011570200324058533,0.0092311417683959,0.00862911343574524,passive,0
0.9208,rehab,safe_near_limit_fast,54.499329615416464,-666.6343502716998,282.0361973958324,-177.65109148167832,0.29126218449165847,-149.8507025732096,-51.8044,0.0872,29.2986,4.5034,-0.0941,-11.6271,82.17671460444384,28.662391889213335,84.53043342816947,-24.89713880750868,-89.05565049913194,-38.03981357150607,-4.516590987101639,-2.0134145906656093,-1.617505668413521,3.719041612413194,0.13570149739583334,-4.410442776150173,-2.728,-1.0487,-1.0727,-0.02215,0.00818,0.05488,0.000896560843102634,0.0010002665221691132,0.0012017011176794767,0.00041550752939656377,0.0005005536368116736,0.0006072662072256207,0.011570200324058533,0.0092311417683959,0.00862911343574524,passive,0
0.9408,rehab,safe_near_limit_fast,53.096156793383415,-666.6298403890701,282.8256958635102,-177.65030970913676,0.29075859463184933,-149.85209249824365,-50.6078,0.0474,28.5187,38.1044,-1.1376,-28.8388,82.05395462489363,28.606236523920945,84.48310927589341,-24.791056315104164,-89.05237833658855,-38.15996805826823,-4.353339318001624,-1.9589996337890625,-1.7175247645614171,3.8153839111328125,0.06785074869791667,-4.274732801649305,-2.6008,-1.2697,-1.3596,-0.02116,0.00433,0.04703,0.000896560843102634,0.0010002665221691132,0.0012017011176794767,0.00041550752939656377,0.0005005536368116736,0.0006072662072256207,0.011570200324058533,0.0092311417683959,0.00862911343574524,passive,0
0.9608,rehab,safe_near_limit_fast,52.30412699159354,-666.6277162971135,283.2670366690229,-177.65033603198512,0.2907962885444566,-149.85151459524394,-49.4603,0.0089,27.5622,51.907,-1.7613,-36.0797,81.98467141330832,28.575119925017404,84.45599017757,-24.730741712782116,-89.05053032769096,-38.22914123535156,-4.298924361125077,-1.9589996337890625,-1.7197070735515934,3.7953609890407987,0.13570149739583334,-4.206882052951388,-2.75,-1.2425,-1.2947,-0.02039,0.00293,0.05147,0.000896560843102634,0.0010002665221691132,0.0012017011176794767,0.00041550752939656377,0.0005005536368116736,0.0006072662072256207,0.011570200324058533,0.0092311417683959,0.00862911343574524,passive,0
0.9811,rehab,safe_near_limit_fast,51.12393183131795,-666.6283345924398,283.9218236082764,-177.65119895493896,0.2915029269100477,-149.85019157755153,-49.0209,-0.0332,27.0549,43.1916,-1.6636,-30.781,81.88148422996596,28.52981491844253,84.4139824291267,-24.63926527235243,-89.04777526855469,-38.33261277940538,-4.190087648901609,-1.8501697200359684,-1.7754001428585242,3.8104926215277777,0.20355224609375,-4.274732801649305,-2.6861,-1.2991,-1.3929,-0.01006,-0.0103,0.05134,0.000896560843102634,0.0010002665221691132,0.0012017011176794767,0.00041550752939656377,0.0005005536368116736,0.0006072662072256207,0.011570200324058533,0.0092311417683959,0.00862911343574524,passive,0
1.0008,rehab,safe_near_limit_fast,50.33797182673004,-666.6303228679684,284.35882424895317,-177.65167141367075,0.2918240733889602,-149.84878300192875,-48.4191,-0.0759,26.5835,17.3211,-0.8195,-14.8245,81.81279928377359,28.499990028910116,84.38534727190981,-24.578187730577255,-89.04598659939236,-38.402014838324654,-4.353339318001624,-1.795747964689047,-1.8120370997060644,3.805575900607639,0.13570149739583334,-4.342592027452257,-2.6891,-1.2102,-1.2276,-0.01814,0.00237,0.05443,0.000896560843102634,0.0010002665221691132,0.0012017011176794767,0.00041550752939656377,0.0005005536368116736,0.0006072662072256207,0.011570200324058533,0.0092311417683959,0.00862911343574524,passive,0
1.021,rehab,safe_near_limit_fast,49.54192207994221,-666.6344659832421,284.7913228300507,-177.6524486459819,0.2924399488371959,-149.84833295128647,-47.4059,-0.0927,26.0244,-12.5329,0.4239,6.0495,81.74326452878442,28.47079059865215,84.35633819882233,-24.51694064670139,-89.04416402180989,-38.47130669487847,-4.4077542748781715,-1.9045846769125154,-1.7524485068746132,3.811509874131944,0.06785074869791667,-4.410442776150173,-2.9532,-1.3508,-1.5694,-0.02455,-0.00374,0.05812,0.000896560843102634,0.0010002665221691132,0.0012017011176794767,0.00041550752939656377,0.0005005536368116736,0.0006072662072256207,0.011570200324058533,0.0092311417683959,0.00862911343574524,passive,0
1.041,rehab,safe_near_limit_fast,48.33116271779643,-666.6366268468706,285.44553483522054,-177.6532165320521,0.2931134106474011,-149.84910020094264,-48.0565,-0.0692,26.4601,-30.6379,1.3835,22.3279,81.6374667328183,28.426308206992573,84.31316111347464,-24.425184461805554,-89.0413835313585,-38.57529534233941,-4.353339318001624,-1.8501697200359684,-1.8405022951635983,3.7990824381510415,0.13570149739583334,-4.410442776150173,-2.8546,-1.3372,-1.1066,-0.01574,0.00788,0.05145,0.000896560843102634,0.0010002665221691132,0.0012017011176794767,0.00041550752939656377,0.0005005536368116736,0.0006072662072256207,0.011570200324058533,0.0092311417683959,0.00862911343574524,passive,0
1.0611,rehab,safe_near_limit_fast,47.52453427785101,-666.6375074836566,285.8953645771667,-177.6527436401984,0.29276159172456373,-149.84968998196084,-49.2359,-0.0174,27.2063,-40.8581,1.8841,33.0745,81.56698699044709,28.395959835241335,84.28358776734606,-24.36380174424913,-89.039552476671,-38.64448547363281,-4.298924361125077,-1.795747964689047,-1.9324448085067296,3.8903299967447915,0.13570149739583334,-4.342592027452257,-2.7976,-1.3891,-1.4734,-0.00642,-0.00026,0.05205,0.000896560843102634,0.0010002665221691132,0.0012017011176794767,0.00041550752939656377,0.0005005536368116736,0.0006072662072256207,0.011570200324058533,0.0092311417683959,0.00862911343574524,passive,0
1.0809,rehab,safe_near_limit_fast,46.31083328873131,-666.6373297373781,286.5724750415613,-177.65254132233002,0.2925876836940457,-149.85078283139038,-50.4122,0.0444,28.0478,-40.8639,1.6727,35.202,81.46093765107712,28.35049846384785,84.23850711029355,-24.270443386501736,-89.03684828016493,-38.74838087293837,-4.516590987101639,-1.9045846769125154,-1.8928845093982054,3.958180745442708,0.06785074869791667,-4.342592027452257,-2.9529,-1.4059,-0.989,-0.02304,0.00591,0.05509,0.000896560843102634,0.0010002665221691132,0.0012017011176794767,0.00041550752939656377,0.0005005536368116736,0.0006072662072256207,0.011570200324058533,0.0092311417683959,0.00862911343574524,passive,0
1.1009,rehab,safe_near_limit_fast,45.50030089762397,-666.6345432634595,287.02745774208506,-177.65251518451754,0.29259067077166934,-149.85141716354613,-52.1309,0.0903,29.3432,-33.8888,0.5618,31.2133,81.39008399283532,28.31989854869276,84.20825391712755,-24.207543267144096,-89.03501722547743,-38.81788465711806,-4.571005943978187,-1.9589996337890625,-1.876058295221612,4.0743764241536455,0.13570149739583334,-4.342592027452257,-3.0932,-1.3873,-1.1473,-0.02698,0.01393,0.0515,0.000896560843102634,0.0010002665221691132,0.0012017011176794767,0.00041550752939656377,0.0005005536368116736,0.0006072662072256207,0.011570200324058533,0.0092311417683959,0.00862911343574524,passive,0
1.1208,rehab,safe_near_limit_fast,44.28492298844829,-666.6313788019263,287.7167748134099,-177.6521281979148,0.2922996893163699,-149.85310375552814,-51.9671,0.0916,29.6489,-17.6285,-0.8923,20.6153,81.28387149017637,28.274070059899056,84.16175917823716,-24.112625122070312,-89.03231302897136,-38.92133076985677,-4.462176030225093,-1.8501697200359684,-1.9650162800703899,3.9474911159939237,0.13570149739583334,-4.410442776150173,-2.9944,-1.4764,-1.3082,-0.02217,-0.0005,0.05589,0.000896560843102634,0.0010002665221691132,0.0012017011176794767,0.00041550752939656377,0.0005005536368116736,0.0006072662072256207,0.011570200324058533,0.0092311417683959,0.00862911343574524,passive,0
1.1413,rehab,safe_near_limit_fast,43.47232120557535,-666.630416860895,288.1719051846612,-177.65223949100775,0.2923458142575991,-149.85410941788786,-51.7827,0.0579,29.7773,8.3549,-2.0609,4.1537,81.21288866099745,28.244149991781406,84.13035704357789,-24.049123128255207,-89.03054979112413,-38.99058871799045,-4.516590987101639,-1.7413330078125,-1.9729161026454207,3.934444851345486,0.13570149739583334,-4.274732801649305,-3.1262,-1.4675,-1.7822,-0.02138,0.00552,0.06355,0.000896560843102634,0.0010002665221691132,0.0012017011176794767,0.00041550752939656377,0.0005005536368116736,0.0006072662072256207,0.011570200324058533,0.0092311417683959,0.00862911343574524,passive,0
1.1608,rehab,safe_near_limit_fast,42.2707362669432,-666.6294380189938,288.8648843044338,-177.65126026781658,0.2915428556972937,-149.85424965977992,-51.4267,-0.007,29.6618,26.1636,-2.3709,-7.1264,81.10793387535774,28.199123722491876,84.08224426873839,-23.954154120551216,-89.02787102593315,-39.094323052300346,-4.190087648901609,-1.9045846769125154,-2.0084041179996905,3.951119316948785,0.06785074869791667,-4.410442776150173,-3.1275,-1.5293,-1.5602,-0.02447,0.0106,0.05845,0.000896560843102634,0.0010002665221691132,0.0012017011176794767,0.00041550752939656377,0.0005005536368116736,0.0006072662072256207,0.011570200324058533,0.0092311417683959,0.00862911343574524,passive,0
1.1811,rehab,safe_near_limit_fast,41.2898290216339,-666.6286611744407,289.44339378148084,-177.65090635120072,0.2913061329258534,-149.85226015911581,-50.3066,-0.1032,29.0729,36.9976,-1.7607,-13.0144,81.02224595475904,28.162099252833,84.04095715815478,-23.873672485351562,-89.02559068467882,-39.18108622233073,-4.244502605778156,-1.9045846769125154,-2.0824190649655785,4.121390448676215,0.13570149739583334,-4.410442776150173,-3.1631,-1.5206,-0.8059,-0.03005,-0.00414,0.05796,0.000896560843102634,0.0010002665221691132,0.0012017011176794767,0.00041550752939656377,0.0005005536368116736,0.0006072662072256207,0.011570200324058533,0.0092311417683959,0.00862911343574524,passive,0
1.201,rehab,safe_near_limit_fast,40.0951098238085,-666.6328054457033,290.1426205190691,-177.6510374528828,0.2914889037903588,-149.85266700644056,-50.3487,-0.1576,29.2045,39.0543,-0.4764,-10.9773,80.91797781462716,28.118378289855354,83.98918000778349,-23.77488030327691,-89.02289496527777,-39.28382873535156,-4.462176030225093,-1.9045846769125154,-2.198836071656482,4.225811428493923,0.06785074869791667,-4.410442776150173,-2.9831,-1.436,-1.0687,-0.01109,-0.00344,0.05906,0.000896560843102634,0.0010002665221691132,0.0012017011176794767,0.00041550752939656377,0.0005005536368116736,0.0006072662072256207,0.011570200324058533,0.0092311417683959,0.00862911343574524,passive,0
1.2208,rehab,safe_near_limit_fast,39.281134158013664,-666.6357875382819,290.61970269150595,-177.65084260483857,0.2912998508162266,-149.85379802448398,-49.1383,-0.1325,28.72,31.4036,1.0569,-0.9092,80.84696779156675,28.08876415290455,83.95367839548847,-23.707962036132812,-89.02114868164062,-39.35295104980469,-4.625420900854734,-1.8501697200359684,-2.2799350247524752,4.208221435546875,0.06785074869791667,-4.274732801649305,-3.063,-1.4962,-1.3026,-0.01683,0.00743,0.05586,0.000896560843102634,0.0010002665221691132,0.0012017011176794767,0.00041550752939656377,0.0005005536368116736,0.0006072662072256207,0.011570200324058533,0.0092311417683959,0.00862911343574524,passive,0
1.2412,rehab,safe_near_limit_fast,38.465530898491174,-666.6403106043643,291.0828586949708,-177.65174560601474,0.29199985231343867,-149.85526006159108,-48.3632,-0.0606,28.6962,15.4429,2.418,16.1549,80.77584899298036,28.06038733756188,83.91810200001933,-23.640797932942707,-89.01941935221355,-39.42185295952691,-4.462176030225093,-1.795747964689047,-2.2622318078975865,4.21585930718316,0.13570149739583334,-4.274732801649305,-3.0131,-1.4731,-1.0842,-0.00073,-0.00387,0.05764,0.000896560843102634,0.0010002665221691132,0.0012017011176794767,0.00041550752939656377,0.0005005536368116736,0.0006072662072256207,0.011570200324058533,0.0092311417683959,0.00862911343574524,passive,0
1.2611,rehab,safe_near_limit_fast,37.259716167940375,-666.6445257938994,291.7917444599803,-177.6525942636058,0.2926813866538612,-149.85527643831463,-48.5176,0.0195,29.4167,-6.3668,3.1162,35.0542,80.6706698578183,28.017196655273438,83.86353747679455,-23.538826836480034,-89.01678297254774,-39.52586703830295,-4.244502605778156,-1.795747964689047,-2.2319446223797184,4.1757456461588545,0.13570149739583334,-4.274732801649305,-3.061,-1.5774,-1.5588,-0.00893,0.00218,0.05754,0.000896560843102634,0.0010002665221691132,0.0012017011176794767,0.00041550752939656377,0.0005005536368116736,0.0006072662072256207,0.011570200324058533,0.0092311417683959,0.00862911343574524,passive,0
1.2808,rehab,safe_near_limit_fast,36.46312500227319,-666.6435341623859,292.2767677725274,-177.6529581209131,0.2930178533421704,-149.85522852840012,-48.2363,0.0914,29.982,-21.8705,2.5703,44.768,80.60113510282913,27.987555324441136,83.8264790147838,-23.469560411241318,-89.01501125759549,-39.594667222764755,-4.298924361125077,-1.9045846769125154,-2.3435279166344367,4.36997307671441,0.13570149739583334,-4.47829352484809,-3.206,-1.7429,-1.7059,-0.01292,0.00536,0.06251,0.000896560843102634,0.0010002665221691132,0.0012017011176794767,0.00041550752939656377,0.0005005536368116736,0.0006072662072256207,0.011570200324058533,0.0092311417683959,0.00862911343574524,passive,0
1.3008,rehab,safe_near_limit_fast,35.28270875580542,-666.6349924434052,293.02232941058185,-177.6532714063976,0.2932420088527142,-149.85346046036491,-48.7956,0.1364,31.052,-32.2138,0.9961,46.9858,80.49800910572014,27.941713238706683,83.7701400907913,-23.363867865668404,-89.01241726345486,-39.69836764865451,-4.298924361125077,-1.9045846769125154,-2.4257758112237005,4.472147623697917,0.13570149739583334,-4.410442776150173,-3.2403,-1.788,-1.3225,-0.02838,0.00546,0.05663,0.000896560843102634,0.0010002665221691132,0.0012017011176794767,0.00041550752939656377,0.0005005536368116736,0.0006072662072256207,0.011570200324058533,0.0092311417683959,0.00862911343574524,passive,0
1.3209,rehab,safe_near_limit_fast,34.49641165467965,-666.6294717857259,293.5391313395872,-177.652512721021,0.2925647843855051,-149.85245962523254,-50.276,0.143,32.5481,-35.5171,-0.569,43.91,80.42933095799815,27.910290708636293,83.7310284907275,-23.29227023654514,-89.01072184244792,-39.767235649956596,-4.298924361125077,-2.0134145906656093,-2.577184544931544,4.50714111328125,0.13570149739583334,-4.206882052951388,-3.255,-1.6964,-1.2511,-0.01645,0.00721,0.06135,0.000896560843102634,0.0010002665221691132,0.0012017011176794767,0.00041550752939656377,0.0005005536368116736,0.0006072662072256207,0.011570200324058533,0.0092311417683959,0.00862911343574524,passive,0
1.3412,rehab,safe_near_limit_fast,33.31643797453063,-666.626490686964,294.3287477163605,-177.65051719193556,0.2908598814206967,-149.85017396121685,-51.6356,0.1148,33.8815,-24.1794,-1.4943,34.4169,80.32635452723738,27.86336086764194,83.6699646298248,-23.18375481499566,-89.00814480251736,-39.87126668294271,-4.190087648901609,-1.9045846769125154,-2.686191218914372,4.589784410264757,0.06785074869791667,-4.274732801649305,-3.1094,-1.6194,-0.8482,-0.00855,-0.00659,0.05992,0.000896560843102634,0.0010002665221691132,0.0012017011176794767,0.00041550752939656377,0.0005005536368116736,0.0006072662072256207,0.011570200324058533,0.0092311417683959,0.00862911343574524,passive,0
1.3609,rehab,safe_near_limit_fast,32.52212830617027,-666.6282020234653,294.8550857447174,-177.64966717964938,0.2901754892939955,-149.84953305094666,-51.7084,0.0453,34.0076,-7.631,-1.5891,26.5392,80.25709850953356,27.832828937190595,83.6278481058555,-23.11010572645399,-89.0063985188802,-39.94032965766059,-4.353339318001624,-1.8501697200359684,-2.6246854574373453,4.593098958333333,0.13570149739583334,-4.274732801649305,-3.1732,-1.6854,-1.7926,-0.00749,-0.00709,0.06472,0.000896560843102634,0.0010002665221691132,0.0012017011176794767,0.00041550752939656377,0.0005005536368116736,0.0006072662072256207,0.011570200324058533,0.0092311417683959,0.00862911343574524,passive,0
1.3809,rehab,safe_near_limit_fast,31.326192171407772,-666.6296393638887,295.63894212750324,-177.6500793791532,0.2905244879569039,-149.84921104925968,-51.2823,-0.0305,33.9254,10.8251,-1.0958,22.2254,80.15283036940168,27.78777547401957,83.5637113363436,-22.997241550021702,-89.00382147894965,-40.043648613823784,-4.190087648901609,-1.9045846769125154,-2.6658026062616025,4.6867624918619795,0.13570149739583334,-4.47829352484809,-3.2369,-1.6255,-1.0148,-0.00989,0.00289,0.0643,0.000896560843102634,0.0010002665221691132,0.0012017011176794767,0.00041550752939656377,0.0005005536368116736,0.0006072662072256207,0.011570200324058533,0.0092311417683959,0.00862911343574524,passive,0
1.4007,rehab,safe_near_limit_fast,30.32029112163199,-666.6301115898808,296.2939829139538,-177.65171281733228,0.2918493057075093,-149.84949958193027,-50.755,-0.046,34.1498,33.8432,-0.4102,15.7931,80.06514369851291,27.75054705024946,83.50888167277421,-22.90045844184028,-89.00171915690105,-40.12996249728732,-4.516590987101639,-1.795747964689047,-2.8870384291847153,4.805899726019965,0.13570149739583334,-4.47829352484809,-3.1779,-1.6945,-1.0777,-0.0186,0.00107,0.05578,0.000896560843102634,0.0010002665221691132,0.0012017011176794767,0.00041550752939656377,0.0005005536368116736,0.0006072662072256207,0.011570200324058533,0.0092311417683959,0.00862911343574524,passive,0
1.4208,rehab,safe_near_limit_fast,29.107924813782578,-666.6314758972455,297.10209571839727,-177.6538274805119,0.2936126427935961,-149.8503996696575,-49.9381,-0.0116,34.6614,41.446,0.1425,20.3934,79.95948867042466,27.705337222259825,83.44010834646697,-22.780575222439236,-88.99919297960069,-40.233374701605904,-4.462176030225093,-1.9589996337890625,-2.9077669653562035,5.104887220594618,0.06785074869791667,-4.206882052951388,-3.1872,-1.7466,-0.963,-0.00618,0.00336,0.05865,0.000896560843102634,0.0010002665221691132,0.0012017011176794767,0.00041550752939656377,0.0005005536368116736,0.0006072662072256207,0.011570200324058533,0.0092311417683959,0.00862911343574524,passive,0
1.4408,rehab,safe_near_limit_fast,28.298914003586113,-666.6312940148407,297.6727357224638,-177.65397832725318,0.293769320136334,-149.8507205847705,-48.82,0.0356,35.2469,20.4436,0.2031,43.2062,79.88897493570158,27.67358836561146,83.39194798233486,-22.698338826497395,-88.99748060438368,-40.30264112684462,-4.4077542748781715,-2.067836346012531,-3.0812095415474166,5.20888434516059,0.06785074869791667,-4.0033213297526045,-3.4336,-1.8062,-1.5893,-0.01715,0.00256,0.06313,0.000896560843102634,0.0010002665221691132,0.0012017011176794767,0.00041550752939656377,0.0005005536368116736,0.0006072662072256207,0.011570200324058533,0.0092311417683959,0.00862911343574524,passive,0
1.4613,rehab,safe_near_limit_fast,27.497703873662783,-666.6305545403605,298.2596944915166,-177.65395245161935,0.2937884264202336,-149.85155845595565,-48.5159,0.0622,36.4778,-1.8003,-0.2523,62.225,79.81914104801594,27.641220848159033,83.34208800060914,-22.614042494032116,-88.99580213758681,-40.370686848958336,-4.353339318001624,-2.122251302889078,-3.2006858599067916,5.220811631944445,0.20355224609375,-4.274732801649305,-3.3474,-1.7287,-1.3042,-0.01614,-0.00247,0.06562,0.000896560843102634,0.0010002665221691132,0.0012017011176794767,0.00041550752939656377,0.0005005536368116736,0.0006072662072256207,0.011570200324058533,0.0092311417683959,0.00862911343574524,passive,0
1.481,rehab,safe_near_limit_fast,26.304257604565,-666.6273240053705,299.19375653646415,-177.65211089933692,0.29216837503542786,-149.85162309110868,-48.3473,0.0392,37.443,-11.9051,-0.8626,66.9609,79.71511085434716,27.590014769299195,83.26323934120707,-22.48330858018663,-88.99337768554688,-40.473175048828125,-4.353339318001624,-2.122251302889078,-3.3638763427734375,5.39933098687066,0.13570149739583334,-4.274732801649305,-3.334,-1.8046,-0.9235,-0.0354,-0.00448,0.06165,0.000896560843102634,0.0010002665221691132,0.0012017011176794767,0.00041550752939656377,0.0005005536368116736,0.0006072662072256207,0.011570200324058533,0.0092311417683959,0.00862911343574524,passive,0
1.5008,rehab,safe_near_limit_fast,25.513302199181307,-666.6258986971557,299.8412450436318,-177.6502118324507,0.29060194469742423,-149.85141977058458,-48.1665,-0.0072,38.2327,-14.1318,-1.2249,61.1567,79.64617436475093,27.555009445341508,83.20813773882271,-22.393578423394096,-88.99170769585503,-40.541297064887154,-4.244502605778156,-2.122251302889078,-3.3508912643583693,5.7324981689453125,0.13570149739583334,-4.410442776150173,-3.4524,-1.6205,-1.2662,-0.02437,-0.00033,0.05981,0.000896560843102634,0.0010002665221691132,0.0012017011176794767,0.00041550752939656377,0.0005005536368116736,0.0006072662072256207,0.011570200324058533,0.0092311417683959,0.00862911343574524,passive,0
1.521,rehab,safe_near_limit_fast,24.321445041736165,-666.6259295898433,300.8060442286718,-177.64964372447596,0.2901392582197566,-149.85126871708675,-50.8211,-0.0705,41.2916,-6.33,-1.1293,51.2694,79.54235492366375,27.503891746596533,83.12337441019493,-22.255291408962673,-88.98924933539496,-40.64370897081163,-4.353339318001624,-2.122251302889078,-3.6153517619217976,5.862536960177951,0.06785074869791667,-4.206882052951388,-3.4884,-1.7644,-1.7793,-0.02481,-0.00271,0.06852,0.000896560843102634,0.0010002665221691132,0.0012017011176794767,0.00041550752939656377,0.0005005536368116736,0.0006072662072256207,0.011570200324058533,0.0092311417683959,0.00862911343574524,passive,0
1.5408,rehab,safe_near_limit_fast,23.522452440674765,-666.6273896486525,301.43639770594046,-177.65117539470296,0.29144748686621985,-149.85227551398617,-51.2903,-0.1176,42.3553,10.3853,-0.4865,41.3725,79.47279977326346,27.47120470103651,83.06600891717589,-22.161153157552082,-88.98765563964844,-40.71120368109809,-4.462176030225093,-1.9589996337890625,-3.633653244169632,5.85237291124132,0.13570149739583334,-4.071180555555555,-3.3859,-1.7837,-1.7691,-0.00755,-0.01006,0.06963,0.000896560843102634,0.0010002665221691132,0.0012017011176794767,0.00041550752939656377,0.0005005536368116736,0.0006072662072256207,0.011570200324058533,0.0092311417683959,0.00862911343574524,passive,0
1.5609,rehab,safe_near_limit_fast,22.32957770276724,-666.6322754063652,302.39893530494913,-177.65335710833037,0.29329316709874764,-149.85471418590348,-49.2374,-0.0945,41.6838,34.744,0.689,29.2175,79.3690279214689,27.422194528107596,82.97715290938274,-22.017364501953125,-88.98534138997395,-40.81092834472656,-4.190087648901609,-1.9589996337890625,-3.7743475885674505,6.04264153374566,0.13570149739583334,-4.206882052951388,-3.5032,-1.8233,-1.5551,-0.0137,0.00216,0.06429,0.000896560843102634,0.0010002665221691132,0.0012017011176794767,0.00041550752939656377,0.0005005536368116736,0.0006072662072256207,0.011570200324058533,0.0092311417683959,0.00862911343574524,passive,0
1.5809,rehab,safe_near_limit_fast,21.555611543683135,-666.6369501652981,303.0559749822288,-177.65427636308104,0.2941343988781541,-149.8554651948095,-48.1682,-0.0328,41.9108,65.0036,1.7821,10.162,79.28523677410466,27.38086662670173,82.91608904848005,-21.89589606391059,-88.98340861002605,-40.89260525173611,-4.026835979801594,-2.122251302889078,-3.8211006693320697,6.102244059244791,0.13570149739583334,-3.8676198323567705,-3.4567,-1.6925,-1.2688,-0.00937,-0.00272,0.06458,0.000896560843102634,0.0010002665221691132,0.0012017011176794767,0.00041550752939656377,0.0005005536368116736,0.0006072662072256207,0.011570200324058533,0.0092311417683959,0.00862911343574524,passive,0
1.6009,rehab,safe_near_limit_fast,20.24691614225803,-666.6378776880762,304.2357322342581,-177.65378080828336,0.2937045036994242,-149.8552995358746,-46.2266,0.0107,41.7417,97.197,2.0954,-16.7656,79.18782829058053,27.329844106542,82.80778941541615,-21.749589708116318,-88.98119608561198,-40.98853217230903,-3.809169353825031,-2.2310880151125465,-4.008915211894725,6.04521009657118,-0.0,-4.071180555555555,-3.4248,-1.7489,-1.4732,-0.01531,-0.00994,0.06447,0.000896560843102634,0.0010002665221691132,0.0012017011176794767,0.00041550752939656377,0.0005005536368116736,0.0006072662072256207,0.011570200324058533,0.0092311417683959,0.00862911343574524,passive,0
1.6212,rehab,safe_near_limit_fast,19.522908679652655,-666.6374241934489,304.9231000679368,-177.65277113302193,0.2927647341207726,-149.85484679940456,-44.6521,0.0436,42.233,104.179,1.3706,-24.8408,79.12482006715075,27.295430249506882,82.7448559751605,-21.651696099175346,-88.97981431749132,-41.05088975694444,-3.8635911091719524,-2.176666259765625,-3.916585185740254,6.073642306857638,0.13570149739583334,-3.799769083658854,-3.3688,-1.5815,-1.8921,-0.00139,-0.00265,0.07097,0.000896560843102634,0.0010002665221691132,0.0012017011176794767,0.00041550752939656377,0.0005005536368116736,0.0006072662072256207,0.011570200324058533,0.0092311417683959,0.00862911343574524,passive,0
1.6409,rehab,safe_near_limit_fast,18.810594358575024,-666.6299816730117,305.6112925529562,-177.651830546065,0.2919010168169608,-149.85534847061047,-42.7429,0.0841,42.0556,87.4561,-0.1268,-14.8154,79.06272283875116,27.260363739315824,82.68283352993502,-21.55401441786024,-88.9784664577908,-41.11138237847222,-3.9724210229250465,-2.122251302889078,-3.8991063184077195,6.174257066514757,0.06785074869791667,-3.596208360460069,-3.5012,-1.5125,-1.087,-0.01737,0.00703,0.06449,0.000896560843102634,0.0010002665221691132,0.0012017011176794767,0.00041550752939656377,0.0005005536368116736,0.0006072662072256207,0.011570200324058533,0.0092311417683959,0.00862911343574524,passive,0
1.6611,rehab,safe_near_limit_fast,17.790872964040254,-666.6238355076388,306.6218572715614,-177.65142525224047,0.2915167080585728,-149.85480587441532,-40.4373,0.0977,40.9926,80.5848,-1.5054,-16.0181,78.97390082330988,27.21019102795289,82.58927977911317,-21.408131917317707,-88.97649976942274,-41.19910346137153,-3.64592448319539,-2.0134145906656093,-4.027753773302135,6.019312540690104,0.06785074869791667,-3.528349134657118,-3.5161,-1.6506,-0.8754,-0.02035,-0.01404,0.06509,0.000896560843102634,0.0010002665221691132,0.0012017011176794767,0.00041550752939656377,0.0005005536368116736,0.0006072662072256207,0.011570200324058533,0.0092311417683959,0.00862911343574524,passive,0
1.6811,rehab,safe_near_limit_fast,17.145414251807534,-666.6280862239266,307.28631445658357,-177.65077150584023,0.2909990741220475,-149.85416732262254,-38.2208,0.0386,39.5695,79.7985,-1.9364,-23.1532,78.91781344272123,27.17857814071202,82.5258228566387,-21.312171088324654,-88.97521124945746,-41.25474717881944,-3.482672814095374,-1.9589996337890625,-3.996793539217203,6.0591888427734375,-0.0,-3.596208360460069,-3.4534,-1.5599,-1.0317,-0.01239,0.00316,0.0691,0.000896560843102634,0.0010002665221691132,0.0012017011176794767,0.00041550752939656377,0.0005005536368116736,0.0006072662072256207,0.011570200324058533,0.0092311417683959,0.00862911343574524,passive,0
1.7013,rehab,safe_near_limit_fast,16.221478679765994,-666.6315396059767,308.2766920668849,-177.6494358202119,0.2898621568782435,-149.85266925178522,-37.2815,-0.059,39.4683,80.8244,-1.8099,-30.9376,78.83749631371829,27.131532725721303,82.43139890160892,-21.169967651367188,-88.97339714898003,-41.33495754665798,-3.2650061881188117,-1.9045846769125154,-3.8093597109955137,5.947206285264757,0.06785074869791667,-3.4604983859592013,-3.4031,-1.601,-1.533,-0.01828,0.00352,0.06757,0.000896560843102634,0.0010002665221691132,0.0012017011176794767,0.00041550752939656377,0.0005005536368116736,0.0006072662072256207,0.011570200324058533,0.0092311417683959,0.00862911343574524,passive,0
1.7211,rehab,safe_near_limit_fast,15.632569486340842,-666.6305512956056,308.90745213494455,-177.6500062772329,0.2903728708030938,-149.8519661108542,-37.1542,-0.1371,40.3988,90.2606,-1.484,-41.0396,78.78625624250657,27.101646649955523,82.37051859940632,-21.076855129665798,-88.97226121690538,-41.38585408528646,-3.2105844327718907,-1.9045846769125154,-3.5902314138884592,5.809241400824653,0.13570149739583334,-3.0533854166666665,-3.4588,-1.506,-1.6328,-0.0237,-0.00292,0.06883,0.000896560843102634,0.0010002665221691132,0.0012017011176794767,0.00041550752939656377,0.0005005536368116736,0.0006072662072256207,0.011570200324058533,0.0092311417683959,0.00862911343574524,passive,0
1.7411,rehab,safe_near_limit_fast,14.781838246560781,-666.6308415185132,309.81767739303876,-177.6515831586852,0.291725923912171,-149.8537882917556,-34.5086,-0.1482,39.1522,102.2859,-0.7043,-48.5336,78.71229568330368,27.059203799408262,82.28132946656481,-20.94095018174913,-88.97074381510417,-41.45646837022569,-2.884087893042234,-1.686918050935953,-3.802962350373221,5.537423027886285,0.06785074869791667,-2.8498246934678817,-3.4927,-1.5441,-1.1646,-0.0226,-0.00108,0.07407,0.000896560843102634,0.0010002665221691132,0.0012017011176794767,0.00041550752939656377,0.0005005536368116736,0.0006072662072256207,0.011570200324058533,0.0092311417683959,0.00862911343574524,passive,0
1.7612,rehab,safe_near_limit_fast,14.257497648537765,-666.6357664436229,310.4129443515885,-177.65200532767022,0.2921561126018294,-149.8549028817359,-31.8715,-0.0844,37.4575,120.1955,0.5461,-60.1517,78.66678672261757,27.032261461314587,82.2220536033706,-20.852779812282986,-88.96976894802518,-41.49987114800347,-2.6664212670656715,-1.686918050935953,-3.6963419394918007,5.401831732855903,-0.0,-2.714114718967014,-3.2726,-1.4797,-0.853,-0.00239,-0.00238,0.0659,0.000896560843102634,0.0010002665221691132,0.0012017011176794767,0.00041550752939656377,0.0005005536368116736,0.0006072662072256207,0.011570200324058533,0.0092311417683959,0.00862911343574524,passive,0
1.7812,rehab,safe_near_limit_fast,13.541581361170163,-666.641711453244,311.2703904109354,-177.65274071964149,0.29285472004270086,-149.854784144839,-29.3664,-0.038,36.1255,147.904,1.686,-82.995,78.60463510645498,26.993714134291846,82.13627730265702,-20.72554694281684,-88.96843804253471,-41.56071133083767,-2.448754641089109,-1.686918050935953,-3.539276878432472,5.146297878689236,0.06785074869791667,-2.374852498372396,-3.2388,-1.4546,-0.975,0.00262,-0.00861,0.06377,0.000896560843102634,0.0010002665221691132,0.0012017011176794767,0.00041550752939656377,0.0005005536368116736,0.0006072662072256207,0.011570200324058533,0.0092311417683959,0.00862911343574524,passive,0
1.8007,rehab,safe_near_limit_fast,13.012896393736685,-666.6409847328003,311.96914950794985,-177.65208888956417,0.2922813040017401,-149.85435442263196,-25.9822,-0.032,33.9951,168.4246,2.0146,-104.2751,78.55865025284267,26.961713734239634,82.06798666774637,-20.624711778428818,-88.96748860677083,-41.605987548828125,-2.176666259765625,-1.5236663818359375,-3.127269178333849,4.820141262478298,0.06785074869791667,-2.103441026475694,-3.1779,-1.3963,-0.8672,0.00666,-0.00724,0.06214,0.000896560843102634,0.0010002665221691132,0.0012017011176794767,0.00041550752939656377,0.0005005536368116736,0.0006072662072256207,0.011570200324058533,0.0092311417683959,0.00862911343574524,passive,0
1.8212,rehab,safe_near_limit_fast,12.446308757076707,-666.6383597395594,312.74618181539574,-177.65246142335894,0.2926028621980967,-149.85511932375252,-22.3299,-0.0128,31.8454,177.0302,1.4788,-112.1345,78.50934094721728,26.9263752852336,81.99122513874923,-20.510643853081596,-88.9665306939019,-41.6532474093967,-1.8501697200359684,-1.4148296696124691,-3.148942701887376,4.661814371744792,-0.0,-1.696319580078125,-3.3253,-1.4683,-0.8008,-0.00755,-0.0158,0.06409,0.000896560843102634,0.0010002665221691132,0.0012017011176794767,0.00041550752939656377,0.0005005536368116736,0.0006072662072256207,0.011570200324058533,0.0092311417683959,0.00862911343574524,passive,0
1.8409,rehab,safe_near_limit_fast,12.120535554489758,-666.6353276296242,313.2381359376153,-177.6524322971377,0.2925557265047538,-149.85507732157666,-19.1895,0.029,30.0836,180.0794,0.5831,-109.6562,78.48095733340423,26.903974325350017,81.94284722356512,-20.439054701063366,-88.96599663628471,-41.68086581759982,-1.6325030940594059,-1.360414712735922,-2.990925854975634,4.491746690538195,-0.0,-1.6284688313802083,-3.1632,-1.5903,-1.3382,-0.01855,-0.00547,0.06059,0.000896560843102634,0.0010002665221691132,0.0012017011176794767,0.00041550752939656377,0.0005005536368116736,0.0006072662072256207,0.011570200324058533,0.0092311417683959,0.00862911343574524,passive,0
1.861,rehab,safe_near_limit_fast,11.830561795929038,-666.6359863987159,313.70020646597806,-177.65260427171685,0.2927104603127878,-149.8556755328581,-15.2913,0.0545,27.4736,186.8606,0.0125,-112.8045,78.45574860525603,26.883551720345373,81.89637967855623,-20.37118699815538,-88.96553887261284,-41.7047119140625,-1.4692514249593904,-1.305999755859375,-2.7307891845703125,4.078631930881076,-0.0,-1.2892066107855902,-3.2166,-1.5258,-0.677,-0.00509,-0.00389,0.0662,0.000896560843102634,0.0010002665221691132,0.0012017011176794767,0.00041550752939656377,0.0005005536368116736,0.0006072662072256207,0.011570200324058533,0.0092311417683959,0.00862911343574524,passive,0
1.8808,rehab,safe_near_limit_fast,11.494604401871541,-666.6376991580831,314.36438267172736,-177.65072399242936,0.2910634713473917,-149.85543842347892,-11.3842,0.0477,24.8183,195.3883,-0.0482,-121.7639,78.42653557805731,26.85421632067992,81.83064526850634,-20.277726915147568,-88.96501329210069,-41.733101738823784,-1.1427480867593596,-1.1427480867593596,-2.6328368234162283,3.7575191921657987,-0.0,-1.0177951388888888,-3.3113,-1.4925,-1.2935,-0.01896,-0.00939,0.06526,0.000896560843102634,0.0010002665221691132,0.0012017011176794767,0.00041550752939656377,0.0005005536368116736,0.0006072662072256207,0.011570200324058533,0.0092311417683959,0.00862911343574524,passive,0
1.9007,rehab,safe_near_limit_fast,11.322699881365764,-666.6373738795027,314.7669424412041,-177.6496786092609,0.2901367009195377,-149.85589596449162,-7.5454,0.0202,22.3124,196.1942,-0.2189,-130.6687,78.41155854782255,26.836411126769416,81.7908538214051,-20.22109137641059,-88.9647928873698,-41.746978759765625,-0.8162515470297029,-1.0339181730062654,-2.318244405312113,3.3811187744140625,-0.0,-0.7463751898871528,-3.2987,-1.4851,-1.1778,-0.01415,-0.00734,0.07097,0.000896560843102634,0.0010002665221691132,0.0012017011176794767,0.00041550752939656377,0.0005005536368116736,0.0006072662072256207,0.011570200324058533,0.0092311417683959,0.00862911343574524,passive,0
1.9209,rehab,safe_near_limit_fast,11.164151690171018,-666.6364598183554,315.2960201922422,-177.64897842264685,0.28955420587527597,-149.85627934510433,-3.8893,-0.011,20.5026,197.2694,-0.6195,-143.2524,78.39769646672919,26.813289529026143,81.73787334177753,-20.14550103081597,-88.96463182237413,-41.75960116916232,-0.3809114966062036,-0.9250814607827971,-2.042178918819616,2.957450018988715,-0.0,-0.339262220594618,-3.3265,-1.4668,-0.7697,-0.0309,0.00958,0.06338,0.000896560843102634,0.0010002665221691132,0.0012017011176794767,0.00041550752939656377,0.0005005536368116736,0.0006072662072256207,0.011570200324058533,0.0092311417683959,0.00862911343574524,passive,0
1.9408,rehab,safe_near_limit_fast,11.145533652047591,-666.6347874146063,315.5952055055311,-177.6491733109976,0.2897825859078797,-149.8544869987411,-0.2274,-0.0131,17.9337,192.6481,-0.7876,-149.5568,78.39597645372447,26.80035883837407,81.70745698532255,-20.101759168836804,-88.96463182237413,-41.76261901855469,0.2176666259765625,-0.8162515470297029,-1.86838962063931,2.567876180013021,0.06785074869791667,-0.06785074869791667,-3.149,-1.3021,-0.576,0.00231,-0.00665,0.06406,0.000896560843102634,0.0010002665221691132,0.0012017011176794767,0.00041550752939656377,0.0005005536368116736,0.0006072662072256207,0.011570200324058533,0.0092311417683959,0.00862911343574524,passive,0
1.9612,rehab,safe_near_limit_fast,11.209393297796359,-666.6348855001277,315.9649945537676,-177.64992962712824,0.29062306016908357,-149.84945150275067,4.6929,0.0107,13.7513,188.12,-0.4706,-155.9906,78.40138803614248,26.784980698387223,81.66871250265896,-20.046539306640625,-88.96469116210938,-41.76161872016059,0.3809114966062036,-0.544163165706219,-1.453370198164836,2.0302581787109375,-0.06785074869791667,0.13570149739583334,-3.1811,-1.3351,-1.0919,-0.00103,-0.00696,0.06577,0.000896560843102634,0.0010002665221691132,0.0012017011176794767,0.00041550752939656377,0.0005005536368116736,0.0006072662072256207,0.011570200324058533,0.0092311417683959,0.00862911343574524,passive,0
1.9808,rehab,safe_near_limit_fast,11.305552002920098,-666.6338442259821,316.1589344285864,-177.65057467384423,0.2914193407080845,-149.8473443866453,8.1744,0.0066,10.3883,185.7972,0.1659,-165.0845,78.40962098376586,26.776965301815824,81.64823550989132,-20.01723395453559,-88.96478441026476,-41.75515916612413,0.6529998779296875,-0.435333251953125,-1.1782021097617574,1.6595289442274306,-0.0,0.678524441189236,-3.1898,-1.1071,-0.4485,0.00648,0.00037,0.06401,0.000896560843102634,0.0010002665221691132,0.0012017011176794767,0.00041550752939656377,0.0005005536368116736,0.0006072662072256207,0.011570200324058533,0.0092311417683959,0.00862911343574524,passive,0
2.0009,rehab,safe_near_limit_fast,11.560076637958694,-666.6388530866856,316.40389582075477,-177.65066817571545,0.29215290498862,-149.85131437024322,11.3817,-0.0196,6.951,174.368,0.8102,-168.8652,78.43164802777885,26.767828157632657,81.6212795748569,-19.981401231553818,-88.96512349446614,-41.72874450683594,0.979496417659344,-0.2176666259765625,-0.6695473548209313,0.9400685628255208,-0.0,1.2213473849826388,-3.0398,-1.4513,-1.3139,-0.00094,-0.00156,0.06589,0.000896560843102634,0.0010002665221691132,0.0012017011176794767,0.00041550752939656377,0.0005005536368116736,0.0006072662072256207,0.011570200324058533,0.0092311417683959,0.00862911343574524,passive,0
2.0212,rehab,safe_near_limit_fast,11.769155650029381,-666.6378801679066,316.47782158814664,-177.65119023382525,0.29289846092573485,-149.8536315125602,14.7191,-0.0241,3.9469,162.1676,1.0763,-168.1769,78.4497047650932,26.76511556795328,81.61295824711866,-19.970118204752605,-88.9655049641927,-41.70823838975694,1.251584798982828,-0.0,-0.42457127335047956,0.4578399658203125,-0.06785074869791667,1.357057359483507,-3.0078,-1.3079,-1.0778,-0.00346,-0.01205,0.06613,0.000896560843102634,0.0010002665221691132,0.0012017011176794767,0.00041550752939656377,0.0005005536368116736,0.0006072662072256207,0.011570200324058533,0.0092311417683959,0.00862911343574524,passive,0
2.0411,rehab,safe_near_limit_fast,12.175755145583254,-666.6353793065828,316.47247458833795,-177.6542164967875,0.2959265013209682,-149.85625607781876,18.0,0.0123,0.8168,157.1759,1.0078,-168.5108,78.48485285692875,26.76644806814666,81.61068075954324,-19.966074625651043,-88.96629333496094,-41.670422024197045,1.7413330078125,0.05441495687654703,0.019769951848700496,-0.0745052761501736,-0.06785074869791667,1.832029554578993,-3.1559,-1.386,-1.0858,-0.01269,-0.01096,0.06744,0.000896560843102634,0.0010002665221691132,0.0012017011176794767,0.00041550752939656377,0.0005005536368116736,0.0006072662072256207,0.011570200324058533,0.0092311417683959,0.00862911343574524,passive,0
2.0611,rehab,safe_near_limit_fast,12.519647991073947,-666.6335358566124,316.45696076690166,-177.65346680583764,0.29536527352180864,-149.85657277329537,21.3932,0.0709,-2.7116,163.5553,1.0233,-180.1377,78.5146165602278,26.76747463717319,81.61233958631459,-19.970626831054688,-88.96702236599393,-41.64038764105903,1.9589996337890625,0.10882991375309406,0.14743842700920481,-0.5681864420572916,-0.06785074869791667,1.9677310519748263,-2.9759,-1.4048,-1.1005,0.01331,-0.01638,0.06268,0.000896560843102634,0.0010002665221691132,0.0012017011176794767,0.00041550752939656377,0.0005005536368116736,0.0006072662072256207,0.011570200324058533,0.0092311417683959,0.00862911343574524,passive,0
2.0809,rehab,safe_near_limit_fast,12.889255097522552,-666.6373541321927,316.4138864821178,-177.64980572272515,0.2920333777513498,-149.85728869142812,24.3884,0.1116,-6.4284,168.6046,0.9862,-194.5238,78.5467529296875,26.769935683448715,81.61783954884746,-19.984554714626736,-88.9679463704427,-41.60768296983507,2.0134145906656093,0.16324487062964108,0.544163165706219,-1.1194525824652777,-0.06785074869791667,2.103441026475694,-2.9122,-1.308,-0.8237,-0.00471,-0.0219,0.05982,0.000896560843102634,0.0010002665221691132,0.0012017011176794767,0.00041550752939656377,0.0005005536368116736,0.0006072662072256207,0.011570200324058533,0.0092311417683959,0.00862911343574524,passive,0
2.1011,rehab,safe_near_limit_fast,13.53261813280546,-666.634093592507,316.2553089852393,-177.6443012233507,0.2867323694190045,-149.85694989104135,26.9166,0.11,-9.9439,161.5279,0.3515,-202.9522,78.60256837146117,26.776666169119352,81.63733076341082,-20.02012464735243,-88.96968417697482,-41.55259874131944,2.448754641089109,0.435333251953125,1.0845327849435333,-1.8035803900824652,-0.06785074869791667,2.4427032470703125,-3.1474,-1.176,-0.5381,-0.02469,7e-05,0.05825,0.000896560843102634,0.0010002665221691132,0.0012017011176794767,0.00041550752939656377,0.0005005536368116736,0.0006072662072256207,0.011570200324058533,0.0092311417683959,0.00862911343574524,passive,0
2.1213,rehab,safe_near_limit_fast,14.012508759557466,-666.6301131056051,316.0612077235354,-177.64304738034363,0.28534687417993515,-149.85658557809006,30.6142,0.0758,-14.1489,151.6889,-0.9092,-208.0775,78.64418180862276,26.78528662955407,81.65768538371171,-20.052227444118923,-88.97093031141493,-41.51171366373698,2.61199951171875,0.6529998779296875,1.50776475963026,-2.162348429361979,-0.0,2.6462639702690973,-3.0632,-1.1762,-1.3783,-0.0187,0.00198,0.06379,0.000896560843102634,0.0010002665221691132,0.0012017011176794767,0.00041550752939656377,0.0005005536368116736,0.0006072662072256207,0.011570200324058533,0.0092311417683959,0.00862911343574524,passive,0
2.1408,rehab,safe_near_limit_fast,14.790490697051766,-666.624512975881,315.64285600130364,-177.64436824058274,0.2862508898839375,-149.85578759569438,34.8572,0.0569,-19.3147,136.3166,-2.0789,-198.9883,78.71165662708849,26.804533099183942,81.69832663960976,-20.11257595486111,-88.9727783203125,-41.4457278781467,2.992917806795328,0.979496417659344,1.8477426661123144,-2.73421393500434,-0.06785074869791667,2.8498246934678817,-2.9914,-1.3545,-1.1055,-0.01105,-0.00983,0.06765,0.000896560843102634,0.0010002665221691132,0.0012017011176794767,0.00041550752939656377,0.0005005536368116736,0.0006072662072256207,0.011570200324058533,0.0092311417683959,0.00862911343574524,passive,0
2.1611,rehab,safe_near_limit_fast,15.34657636857496,-666.6255562989427,315.298758603749,-177.64589885390538,0.2875427421693921,-149.85524592473695,37.1484,0.0429,-23.1345,115.2725,-2.523,-178.7177,78.75997335603921,26.821094173015933,81.73029984578048,-20.160573323567707,-88.97399054633246,-41.39850192599826,3.2650061881188117,1.1427480867593596,2.0932286328608445,-3.2279120551215277,-0.06785074869791667,2.985526190863715,-3.0183,-1.3086,-0.7835,-0.02487,-0.00447,0.05824,0.000896560843102634,0.0010002665221691132,0.0012017011176794767,0.00041550752939656377,0.0005005536368116736,0.0006072662072256207,0.011570200324058533,0.0092311417683959,0.00862911343574524,passive,0
2.1809,rehab,safe_near_limit_fast,16.226998964370235,-666.6275457067585,314.710720712458,-177.64803268981348,0.2892470325918148,-149.8558585718422,38.7966,-0.015,-26.5291,97.2049,-2.0596,-158.7151,78.83651733398438,26.84934181742149,81.78523828487585,-20.243394639756943,-88.97599114312065,-41.32229275173611,3.2105844327718907,1.1971630436359066,2.3072444802463643,-3.727747599283854,-0.13570149739583334,3.324796888563368,-2.902,-1.1391,-0.2763,-0.01441,-0.01713,0.05856,0.000896560843102634,0.0010002665221691132,0.0012017011176794767,0.00041550752939656377,0.0005005536368116736,0.0006072662072256207,0.011570200324058533,0.0092311417683959,0.00862911343574524,passive,0
2.2009,rehab,safe_near_limit_fast,16.851676782828868,-666.6292833540894,314.27395046040107,-177.64905544688096,0.29010680147015805,-149.85607768603924,39.9006,-0.0974,-28.9798,75.2065,-1.1767,-133.1506,78.89083711227568,26.870335493937578,81.8262534566445,-20.305735270182293,-88.97733052571614,-41.268463134765625,3.319421144995359,1.360414712735922,2.6766597634494893,-4.08326890733507,-0.06785074869791667,3.528349134657118,-2.9414,-1.3241,-0.5919,-0.03336,-0.0143,0.05727,0.000896560843102634,0.0010002665221691132,0.0012017011176794767,0.00041550752939656377,0.0005005536368116736,0.0006072662072256207,0.011570200324058533,0.0092311417683959,0.00862911343574524,passive,0
2.221,rehab,safe_near_limit_fast,18.008135083285662,-666.6310094120968,313.4301854960964,-177.6501665061544,0.2909961188450902,-149.8548171795365,41.3777,-0.1461,-31.2669,54.4371,-0.3567,-106.5695,78.99140008605353,26.910738803372524,81.90610828966197,-20.427602132161457,-88.97975497775607,-41.170544094509545,3.754754396948484,1.5780813387124846,3.075940727007271,-4.61335923936632,-0.06785074869791667,3.4604983859592013,-2.9167,-1.3004,-1.3075,-0.0133,-0.00826,0.06153,0.000896560843102634,0.0010002665221691132,0.0012017011176794767,0.00041550752939656377,0.0005005536368116736,0.0006072662072256207,0.011570200324058533,0.0092311417683959,0.00862911343574524,passive,0
2.2408,rehab,safe_near_limit_fast,18.683430928950557,-666.631285251365,312.9087114576437,-177.65037339558168,0.2911820110769867,-149.8557603715528,42.4783,-0.1248,-33.1206,51.339,0.5724,-91.8275,79.05013207161781,26.93562120494276,81.95581870503945,-20.503735012478298,-88.98116217719183,-41.11172993977865,3.7003394400719367,1.6325030940594059,3.1645655868077043,-4.896604749891493,-0.06785074869791667,3.7319098578559027,-2.9102,-1.3123,-0.9363,-0.00713,-0.00222,0.05855,0.000896560843102634,0.0010002665221691132,0.0012017011176794767,0.00041550752939656377,0.0005005536368116736,0.0006072662072256207,0.011570200324058533,0.0092311417683959,0.00862911343574524,passive,0
2.2611,rehab,safe_near_limit_fast,19.37182883345942,-666.6349059870176,312.35627356842053,-177.65060516677656,0.2913550578130822,-149.85740035221858,43.5006,-0.0512,-34.8326,61.9087,1.7161,-92.0421,79.11008098337909,26.962509155273438,82.00765704164411,-20.584047105577255,-88.98263719346788,-41.0510508219401,3.7003394400719367,1.686918050935953,3.1783052954343285,-5.06729973687066,-0.06785074869791667,4.139031304253472,-2.9813,-1.3798,-0.4808,-0.026,-0.01294,0.05226,0.000896560843102634,0.0010002665221691132,0.0012017011176794767,0.00041550752939656377,0.0005005536368116736,0.0006072662072256207,0.011570200324058533,0.0092311417683959,0.00862911343574524,passive,0
2.2811,rehab,safe_near_limit_fast,20.43452349837785,-666.6384845715257,311.4818234492175,-177.6503382678799,0.291036922481205,-149.8596185019268,45.1427,0.0033,-37.0465,73.2276,2.2767,-101.4218,79.20262176211517,27.004952005820698,82.0902176658706,-20.71233961317274,-88.98492601182726,-40.957743326822914,3.8635911091719524,1.8501697200359684,3.6050792731861074,-5.537957085503472,-0.13570149739583334,4.139031304253472,-2.9072,-1.4835,-0.4187,-0.02647,-0.00732,0.05425,0.000896560843102634,0.0010002665221691132,0.0012017011176794767,0.00041550752939656377,0.0005005536368116736,0.0006072662072256207,0.011570200324058533,0.0092311417683959,0.00862911343574524,passive,0
2.3009,rehab,safe_near_limit_fast,21.17349140838383,-666.639538145117,310.86845334587764,-177.64982351050443,0.2905265108663308,-149.86058284705442,45.9235,0.0225,-38.5993,77.5373,1.5903,-109.1789,79.26696248573832,27.034722507590114,82.1483037967493,-20.80290052625868,-88.98650275336371,-40.89346143934462,4.190087648901609,1.8501697200359684,3.7183145957418007,-5.933905707465278,-0.06785074869791667,4.206882052951388,-2.7342,-1.335,-0.8619,-0.01282,-0.00436,0.05855,0.000896560843102634,0.0010002665221691132,0.0012017011176794767,0.00041550752939656377,0.0005005536368116736,0.0006072662072256207,0.011570200324058533,0.0092311417683959,0.00862911343574524,passive,0
2.321,rehab,safe_near_limit_fast,22.33592113622654,-666.6363201617073,309.89581681393383,-177.64954016262865,0.2902149598163845,-149.85864781476926,47.2802,0.0505,-40.4738,71.05,0.0948,-108.7499,79.36809653102762,27.081815511873454,82.24034828714805,-20.945460001627605,-88.98885938856337,-40.7958730061849,4.4077542748781715,1.9589996337890625,3.8500417577158106,-6.038013034396701,-0.06785074869791667,3.9354705810546875,-2.8621,-1.2725,-1.2198,-0.00495,0.00026,0.05883,0.000896560843102634,0.0010002665221691132,0.0012017011176794767,0.00041550752939656377,0.0005005536368116736,0.0006072662072256207,0.011570200324058533,0.0092311417683959,0.00862911343574524,passive,0
2.3409,rehab,safe_near_limit_fast,23.124461872837262,-666.6305047253118,309.22286321433734,-177.6494331265166,0.29010953408047846,-149.85766622944396,49.7183,0.0779,-43.3349,57.8187,-1.1869,-101.5856,79.43665910475325,27.114203424737006,82.30432189337098,-21.044014824761284,-88.99043613009982,-40.729404025607636,4.190087648901609,2.122251302889078,4.029385406191986,-6.166466606987847,-0.06785074869791667,4.071180555555555,-2.9711,-1.3585,-1.5315,-0.01415,-0.00206,0.06433,0.000896560843102634,0.0010002665221691132,0.0012017011176794767,0.00041550752939656377,0.0005005536368116736,0.0006072662072256207,0.011570200324058533,0.0092311417683959,0.00862911343574524,passive,0
2.361,rehab,safe_near_limit_fast,24.313401435077374,-666.6287255209893,308.1763424966502,-177.648830025061,0.28954741957254393,-149.85645020222884,51.1378,0.0446,-45.8983,41.3356,-1.6149,-88.5824,79.54018621161433,27.165790217937808,82.40213148664719,-21.197323269314236,-88.99283515082465,-40.62882317437066,4.353339318001624,2.2310880151125465,4.053397603554301,-6.560846964518229,-0.0,4.071180555555555,-2.9152,-1.246,-1.2844,-0.01064,0.00649,0.06173,0.000896560843102634,0.0010002665221691132,0.0012017011176794767,0.00041550752939656377,0.0005005536368116736,0.0006072662072256207,0.011570200324058533,0.0092311417683959,0.00862911343574524,passive,0
2.3812,rehab,safe_near_limit_fast,25.10748963225736,-666.6322145686579,307.44846571041694,-177.64874339979693,0.2894624163147056,-149.85658105505271,51.7654,-0.0515,-47.6551,24.0548,-1.2676,-71.5094,79.6094286323774,27.202549547252087,82.46864092231976,-21.302803887261284,-88.99444580078125,-40.560641818576386,4.4077542748781715,2.3399179288656407,4.210653021784112,-6.738366021050347,-0.13570149739583334,4.206882052951388,-2.909,-1.1765,-0.9253,-0.01632,0.00405,0.05749,0.000896560843102634,0.0010002665221691132,0.0012017011176794767,0.00041550752939656377,0.0005005536368116736,0.0006072662072256207,0.011570200324058533,0.0092311417683959,0.00862911343574524,passive,0
2.4008,rehab,safe_near_limit_fast,26.326763686533866,-666.634305485064,306.3135952354348,-177.65022535163502,0.29076745780858565,-149.8542460868248,51.2407,-0.1216,-48.3166,2.304,-0.6827,-47.9249,79.71569552279935,27.260186979086093,82.57109387086169,-21.464046902126736,-88.9968024359809,-40.45853508843316,4.4077542748781715,2.448754641089109,4.447158209168085,-6.843863593207465,-0.13570149739583334,4.206882052951388,-2.9274,-1.3294,-1.4419,-0.01708,0.00286,0.05605,0.000896560843102634,0.0010002665221691132,0.0012017011176794767,0.00041550752939656377,0.0005005536368116736,0.0006072662072256207,0.011570200324058533,0.0092311417683959,0.00862911343574524,passive,0
2.4211,rehab,safe_near_limit_fast,27.143899263777314,-666.6318095452128,305.5369029413769,-177.65151747548663,0.29184445439692586,-149.8525186691527,50.3859,-0.1101,-48.5069,-24.8263,0.1709,-18.1429,79.78687550761911,27.299468540909267,82.64139005453279,-21.57402886284722,-88.99840460883246,-40.390328301323784,4.4077542748781715,2.503169597965656,4.465378109771426,-6.981692843967013,-0.13570149739583334,4.274732801649305,-2.8711,-1.2531,-1.2521,-0.0105,-0.00521,0.05909,0.000896560843102634,0.0010002665221691132,0.0012017011176794767,0.00041550752939656377,0.0005005536368116736,0.0006072662072256207,0.011570200324058533,0.0092311417683959,0.00862911343574524,passive,0
2.441,rehab,safe_near_limit_fast,28.542231053284368,-666.6397731196782,304.16574364570243,-177.65208044369987,0.2923204354114862,-149.85177604993683,50.2768,-0.054,-49.0497,-45.0196,1.3285,6.0322,79.90892164778,27.370648525729038,82.76347018704556,-21.770189073350693,-89.00116814507378,-40.271241929796005,4.190087648901609,2.448754641089109,4.355018540184097,-6.953582763671875,-0.06785074869791667,4.342592027452257,-2.7608,-1.3114,-1.1098,-0.00346,-0.00618,0.05627,0.000896560843102634,0.0010002665221691132,0.0012017011176794767,0.00041550752939656377,0.0005005536368116736,0.0006072662072256207,0.011570200324058533,0.0092311417683959,0.00862911343574524,passive,0
2.461,rehab,safe_near_limit_fast,29.32860963160892,-666.6440587314404,303.38640913176414,-177.65145574807335,0.29173715628331737,-149.85270539701003,49.9037,0.0153,-49.0989,-48.6068,2.1879,11.2468,79.97758619856126,27.411282983156713,82.8330933221496,-21.88338385687934,-89.00279574924045,-40.20292494032118,4.353339318001624,2.61199951171875,4.437110069954749,-7.21176995171441,-0.13570149739583334,4.342592027452257,-2.9655,-1.5236,-1.1815,-0.03709,-0.00408,0.05232,0.000896560843102634,0.0010002665221691132,0.0012017011176794767,0.00041550752939656377,0.0005005536368116736,0.0006072662072256207,0.011570200324058533,0.0092311417683959,0.00862911343574524,passive,0
2.4808,rehab,safe_near_limit_fast,30.117769373010606,-666.6436137307843,302.600327719081,-177.65095451439885,0.2912851078497944,-149.85337366186914,48.6322,0.056,-48.4652,-37.502,1.9893,-5.3686,80.04642750957224,27.451958231406635,82.90378381710241,-21.99750264485677,-89.00439792209201,-40.13470119900173,4.298924361125077,2.448754641089109,4.505210347694926,-7.178963555230035,-0.13570149739583334,4.274732801649305,-2.9665,-1.4745,-1.869,-0.01889,0.00301,0.06259,0.000896560843102634,0.0010002665221691132,0.0012017011176794767,0.00041550752939656377,0.0005005536368116736,0.0006072662072256207,0.011570200324058533,0.0092311417683959,0.00862911343574524,passive,0
2.5012,rehab,safe_near_limit_fast,31.30037272252499,-666.632994616281,301.41593777654424,-177.65034925108185,0.2908224478776616,-149.8516565774479,47.4772,0.076,-48.3543,-28.9227,0.9127,-25.716,80.14943793268488,27.512532602442374,83.01138320771774,-22.16946072048611,-89.00664435492621,-40.035341050889755,4.135672692025062,2.448754641089109,4.378126540986618,-7.212821112738715,-0.06785074869791667,4.139031304253472,-2.9208,-1.5052,-1.9044,-0.01862,0.00085,0.05722,0.000896560843102634,0.0010002665221691132,0.0012017011176794767,0.00041550752939656377,0.0005005536368116736,0.0006072662072256207,0.011570200324058533,0.0092311417683959,0.00862911343574524,passive,0
2.5211,rehab,safe_near_limit_fast,32.08445362154699,-666.6297364627943,300.628270896903,-177.64947528910972,0.2901106943707514,-149.85050052164092,46.2489,0.102,-48.2829,-34.9814,-0.1764,-32.318,80.21781014924002,27.55360216197401,83.08197172561495,-22.284249199761284,-89.00814480251736,-39.96941460503472,4.135672692025062,2.557584554842203,4.320937808197324,-7.15362548828125,-0.13570149739583334,4.0033213297526045,-2.9506,-1.392,-1.7034,-0.02564,0.00739,0.05164,0.000896560843102634,0.0010002665221691132,0.0012017011176794767,0.00041550752939656377,0.0005005536368116736,0.0006072662072256207,0.011570200324058533,0.0092311417683959,0.00862911343574524,passive,0
2.5412,rehab,safe_near_limit_fast,33.23947657279499,-666.6315069125577,299.4348541051814,-177.64890602037474,0.2896150052371856,-149.8478422616744,45.6706,0.0851,-49.1637,-44.7052,-0.9989,-33.1497,80.31865186030322,27.617195053855973,83.1864574167988,-22.456003824869793,-89.01036580403645,-39.87316555447048,4.026835979801594,2.7208362239422184,4.427578614489867,-7.271287706163195,-0.06785074869791667,3.9354705810546875,-3.0529,-1.3395,-1.4063,-0.0216,0.00926,0.06089,0.000896560843102634,0.0010002665221691132,0.0012017011176794767,0.00041550752939656377,0.0005005536368116736,0.0006072662072256207,0.011570200324058533,0.0092311417683959,0.00862911343574524,passive,0
2.5612,rehab,safe_near_limit_fast,33.976672753157416,-666.6316706990224,298.6224420744042,-177.6500998574409,0.2905759876911083,-149.84791915500637,46.513,0.0261,-51.7805,-50.5288,-1.5163,-32.7843,80.38302657627823,27.660678070370512,83.25658363871055,-22.569995456271702,-89.01183234320746,-39.81000264485677,3.8635911091719524,2.938502849918781,4.37525758648863,-7.013397216796875,-0.13570149739583334,3.7319098578559027,-3.0553,-1.5329,-1.6365,-0.04171,0.00517,0.05342,0.000896560843102634,0.0010002665221691132,0.0012017011176794767,0.00041550752939656377,0.0005005536368116736,0.0006072662072256207,0.011570200324058533,0.0092311417683959,0.00862911343574524,passive,0
2.5811,rehab,safe_near_limit_fast,35.032675007965395,-666.6326154955093,297.38886663971806,-177.65260223521264,0.2927168452018096,-149.84920145410845,45.6223,-0.0192,-52.9627,-61.8982,-1.5742,-19.0862,80.47526822231784,27.727058335105973,83.36219787597656,-22.741470336914062,-89.01384989420573,-39.71841600206163,3.809169353825031,2.7208362239422184,4.41968559038521,-6.970172458224826,-0.06785074869791667,3.799769083658854,-2.8876,-1.3467,-1.3356,-0.01323,-0.0089,0.05384,0.000896560843102634,0.0010002665221691132,0.0012017011176794767,0.00041550752939656377,0.0005005536368116736,0.0006072662072256207,0.011570200324058533,0.0092311417683959,0.00862911343574524,passive,0
2.6007,rehab,safe_near_limit_fast,35.70641601425194,-666.632078610354,296.5820025412867,-177.6534264657305,0.2934178289574107,-149.85034857832883,43.2663,-0.0335,-52.0024,-74.07,-1.1245,2.1463,80.53412258034885,27.770439374564898,83.4317666233176,-22.855114407009548,-89.01514689127605,-39.65969509548611,3.7003394400719367,2.7208362239422184,4.390968851523824,-7.120624118381076,-0.06785074869791667,3.7319098578559027,-3.1488,-1.4529,-1.3036,-0.04862,0.00527,0.05158,0.000896560843102634,0.0010002665221691132,0.0012017011176794767,0.00041550752939656377,0.0005005536368116736,0.0006072662072256207,0.011570200324058533,0.0092311417683959,0.00862911343574524,passive,0
2.6209,rehab,safe_near_limit_fast,36.67986242559464,-666.634649001338,295.3985380832598,-177.65227904347788,0.2924318642643452,-149.8522748422497,40.7821,-0.0367,-50.7418,-82.5888,-0.3019,24.1325,80.6192394294361,27.83452855478419,83.5342535642114,-23.025775485568577,-89.01706271701389,-39.57456800672743,3.5370877709719215,2.61199951171875,4.300766746596534,-6.970096164279513,-0.13570149739583334,3.324796888563368,-3.0099,-1.5797,-2.0289,-0.038,0.00414,0.04993,0.000896560843102634,0.0010002665221691132,0.0012017011176794767,0.00041550752939656377,0.0005005536368116736,0.0006072662072256207,0.011570200324058533,0.0092311417683959,0.00862911343574524,passive,0
2.641,rehab,safe_near_limit_fast,37.464236715870975,-666.6334430359287,294.42162786901457,-177.65048946949,0.29091623164888736,-149.85348742926575,39.473,-0.057,-50.6098,-88.0553,0.4583,44.1893,80.68779520469137,27.887189506304146,83.61968994140625,-23.168275621202255,-89.01858859592014,-39.50639512803819,3.373836101871906,2.6664212670656715,4.303377359220297,-7.069227430555555,-0.13570149739583334,3.2569376627604165,-2.9845,-1.4262,-1.972,-0.02235,0.01322,0.05488,0.000896560843102634,0.0010002665221691132,0.0012017011176794767,0.00041550752939656377,0.0005005536368116736,0.0006072662072256207,0.011570200324058533,0.0092311417683959,0.00862911343574524,passive,0
2.6608,rehab,safe_near_limit_fast,38.40104839789507,-666.6315024701724,293.2202836100859,-177.65053847144512,0.2909723607157302,-149.85327293430544,37.9129,-0.0471,-49.6703,-75.0549,0.7755,43.7803,80.76966238493966,27.95259758977607,83.72271396145962,-23.339038425021702,-89.02030944824219,-39.426659478081596,3.5915027278484684,2.7752511808187657,4.292730954614016,-7.083638509114583,-0.06785074869791667,3.324796888563368,-3.0897,-1.4718,-2.2457,-0.034,0.01419,0.05951,0.000896560843102634,0.0010002665221691132,0.0012017011176794767,0.00041550752939656377,0.0005005536368116736,0.0006072662072256207,0.011570200324058533,0.0092311417683959,0.00862911343574524,passive,0
2.6811,rehab,safe_near_limit_fast,39.00655116259416,-666.6325098285721,292.4055570377866,-177.65154895886388,0.2917908720316596,-149.85324423288017,36.4445,0.0035,-48.5877,-42.4178,0.8014,15.5274,80.8226224691561,27.997521882009977,83.7912629382445,-23.452767266167534,-89.02142842610677,-39.375008477105034,3.2650061881188117,2.7752511808187657,4.096377533261139,-7.205047607421875,-0.06785074869791667,3.121236165364583,-3.032,-1.49,-1.7142,-0.02968,0.0062,0.05422,0.000896560843102634,0.0010002665221691132,0.0012017011176794767,0.00041550752939656377,0.0005005536368116736,0.0006072662072256207,0.011570200324058533,0.0092311417683959,0.00862911343574524,passive,0
2.7009,rehab,safe_near_limit_fast,39.59876329927109,-666.6389393697713,291.5916718036171,-177.6522344571483,0.2923656887733795,-149.85310806099142,36.1492,0.0369,-48.7429,-12.4191,0.7281,-14.7998,80.874501596583,28.043214401396195,83.8586153842435,-23.566436767578125,-89.02249654134114,-39.324544270833336,3.373836101871906,2.8296661376953125,4.179944331103032,-7.145936754014757,-0.06785074869791667,3.1890869140625,-3.1019,-1.4909,-1.5864,-0.02779,0.00388,0.05951,0.000896560843102634,0.0010002665221691132,0.0012017011176794767,0.00041550752939656377,0.0005005536368116736,0.0006072662072256207,0.011570200324058533,0.0092311417683959,0.00862911343574524,passive,0
2.7207,rehab,safe_near_limit_fast,40.46833174503442,-666.6384993065194,290.38914801395185,-177.65259062001277,0.29268330370498274,-149.85403079653315,35.756,0.0331,-48.7103,3.1413,0.4292,-27.8106,80.9505560846612,28.109785023302134,83.96003496528851,-23.736207750108505,-89.02407328287761,-39.249471028645836,3.1561694758953434,2.6664212670656715,4.15183945457534,-7.321879069010416,-0.06785074869791667,3.0533854166666665,-3.0865,-1.5464,-1.4711,-0.01922,0.01658,0.05851,0.000896560843102634,0.0010002665221691132,0.0012017011176794767,0.00041550752939656377,0.0005005536368116736,0.0006072662072256207,0.011570200324058533,0.0092311417683959,0.00862911343574524,passive,0
2.7408,rehab,safe_near_limit_fast,41.0428117140517,-666.6350043521967,289.6021610067957,-177.65163338677806,0.29186131993957165,-149.8538286391662,35.8926,0.0159,-49.334,11.1421,-0.1621,-33.1923,81.00076958684637,28.153111674998065,84.02741460516901,-23.849639892578125,-89.02513292100694,-39.20072767469618,3.2105844327718907,2.557584554842203,4.199217994614402,-6.806683010525173,-0.0,3.121236165364583,-3.211,-1.6043,-1.8419,-0.04639,0.00102,0.06019,0.000896560843102634,0.0010002665221691132,0.0012017011176794767,0.00041550752939656377,0.0005005536368116736,0.0006072662072256207,0.011570200324058533,0.0092311417683959,0.00862911343574524,passive,0
2.761,rehab,safe_near_limit_fast,41.92357087637044,-666.6280658262965,288.4246902768427,-177.65016854460927,0.2906068068662882,-149.85190559061826,36.8001,0.0132,-51.0325,15.1295,-0.6558,-34.506,81.07772827148438,28.218342998240253,84.12767844625039,-24.01925828721788,-89.02672661675346,-39.127587212456596,3.373836101871906,2.7208362239422184,3.9912391889213334,-7.161356608072916,-0.13570149739583334,3.121236165364583,-3.08,-1.6224,-1.7723,-0.03455,0.00808,0.05777,0.000896560843102634,0.0010002665221691132,0.0012017011176794767,0.00041550752939656377,0.0005005536368116736,0.0006072662072256207,0.011570200324058533,0.0092311417683959,0.00862911343574524,passive,0
2.7811,rehab,safe_near_limit_fast,42.51652436549029,-666.628678680749,287.63391280441573,-177.6495637120568,0.2901387332896078,-149.85067307315228,37.9727,0.0154,-52.899,9.6293,-0.5732,-23.1208,81.12960739891128,28.263206104240794,84.19318850677793,-24.131876627604164,-89.0277608235677,-39.07819959852431,3.1561694758953434,2.938502849918781,4.01236883484491,-6.872804429796007,-0.13570149739583334,3.121236165364583,-3.0257,-1.6106,-1.722,-0.04917,0.01741,0.04867,0.000896560843102634,0.0010002665221691132,0.0012017011176794767,0.00041550752939656377,0.0005005536368116736,0.0006072662072256207,0.011570200324058533,0.0092311417683959,0.00862911343574524,passive,0
2.8009,rehab,safe_near_limit_fast,43.52064287777994,-666.6334881753178,286.2294101534437,-177.64961554771205,0.2901796198422853,-149.85082111215615,37.4597,-0.01,-52.2862,0.1302,-0.2127,-4.6946,81.20531516500039,28.332353346418625,84.29131082969137,-24.30129157172309,-89.02932061089409,-39.004508124457466,3.1561694758953434,2.8296661376953125,4.039861849038908,-7.044974433051215,-0.06785074869791667,3.0533854166666665,-3.0185,-1.6685,-1.6506,-0.02883,0.00917,0.05764,0.000896560843102634,0.0010002665221691132,0.0012017011176794767,0.00041550752939656377,0.0005005536368116736,0.0006072662072256207,0.011570200324058533,0.0092311417683959,0.00862911343574524,passive,0
2.8212,rehab,safe_near_limit_fast,44.07739819105149,-666.6353534803336,285.412523809187,-177.6508789941218,0.2911854607381366,-149.85247175192802,36.7059,-0.0378,-51.2426,-7.6637,-0.0369,13.7727,81.2543253379293,28.379011248598005,84.35706563515238,-24.413892957899304,-89.0303717719184,-38.95551893446181,2.884087893042234,2.992917806795328,4.033933582872447,-6.9353993733723955,-0.06785074869791667,3.0533854166666665,-3.0593,-1.7312,-2.1875,-0.03417,0.00913,0.05857,0.000896560843102634,0.0010002665221691132,0.0012017011176794767,0.00041550752939656377,0.0005005536368116736,0.0006072662072256207,0.011570200324058533,0.0092311417683959,0.00862911343574524,passive,0
2.8409,rehab,safe_near_limit_fast,44.91806915103793,-666.6361827920992,284.2000942496688,-177.6518516103063,0.2919731601747372,-149.85461693797728,36.6059,-0.0285,-51.0438,-10.4165,0.0804,25.4712,81.33991807994276,28.460742459438816,84.47147029461247,-24.611011081271702,-89.03219434950087,-38.869315253363716,3.047339562142249,2.7752511808187657,4.1160523065245975,-7.000622219509548,-0.06785074869791667,3.121236165364583,-3.0759,-1.6256,-1.8406,-0.03472,0.00993,0.05939,0.000896560843102634,0.0010002665221691132,0.0012017011176794767,0.00041550752939656377,0.0005005536368116736,0.0006072662072256207,0.011570200324058533,0.0092311417683959,0.00862911343574524,passive,0
2.8611,rehab,safe_near_limit_fast,45.49317252101087,-666.6359451947103,283.4045199164169,-177.651633241997,0.2918273695865091,-149.854946604721,36.3202,0.0122,-50.4673,-7.4226,0.3666,27.446,81.39025395459468,28.506951662573485,84.53570224270962,-24.72318861219618,-89.03322007921007,-38.81990220811632,3.1017545190187965,2.992917806795328,4.113237739789604,-6.912875705295138,-0.0,3.0533854166666665,-3.0588,-1.7872,-1.8723,-0.03297,0.01033,0.0545,0.000896560843102634,0.0010002665221691132,0.0012017011176794767,0.00041550752939656377,0.0005005536368116736,0.0006072662072256207,0.011570200324058533,0.0092311417683959,0.00862911343574524,passive,0
2.8808,rehab,safe_near_limit_fast,46.37669204065028,-666.6339949636725,282.22540210469316,-177.650082444098,0.29061172483940684,-149.85353788450905,36.1434,0.0286,-49.81,1.4221,0.5634,17.36,81.46755936122176,28.575786175114093,84.6310032004177,-24.89150153266059,-89.03477138943143,-38.745880126953125,3.2105844327718907,2.884087893042234,3.9769352072536357,-6.785320705837673,-0.0,3.1890869140625,-3.0792,-1.7619,-2.4029,-0.04523,0.0144,0.05325,0.000896560843102634,0.0010002665221691132,0.0012017011176794767,0.00041550752939656377,0.0005005536368116736,0.0006072662072256207,0.011570200324058533,0.0092311417683959,0.00862911343574524,passive,0
2.9009,rehab,safe_near_limit_fast,46.96751111867665,-666.6320635230936,281.4362966857022,-177.6493484892964,0.2900230388789156,-149.85303814928662,36.2895,0.0032,-49.4568,10.2458,0.3106,3.9187,81.51925492994856,28.6221177507155,84.69427656419207,-25.003534952799477,-89.0358395046658,-38.69593302408854,3.1561694758953434,2.938502849918781,3.970293101697865,-6.861292521158854,-0.06785074869791667,3.2569376627604165,-3.1076,-1.7493,-2.0276,-0.04074,0.00643,0.05482,0.000896560843102634,0.0010002665221691132,0.0012017011176794767,0.00041550752939656377,0.0005005536368116736,0.0006072662072256207,0.011570200324058533,0.0092311417683959,0.00862911343574524,passive,0
2.9209,rehab,safe_near_limit_fast,47.70426795168127,-666.6300041125311,280.4328147145384,-177.64980209697188,0.29037251766685507,-149.85274452097505,37.1251,0.0028,-50.0628,11.9172,-0.2757,-0.7922,81.58373162297919,28.68150238943572,84.77339716240911,-25.143330891927082,-89.03718736436632,-38.633312649197045,3.1561694758953434,2.992917806795328,3.9708641732093133,-6.8949635823567705,-0.06785074869791667,3.121236165364583,-3.035,-1.7125,-2.2966,-0.04089,-0.00164,0.05602,0.000896560843102634,0.0010002665221691132,0.0012017011176794767,0.00041550752939656377,0.0005005536368116736,0.0006072662072256207,0.011570200324058533,0.0092311417683959,0.00862911343574524,passive,0
2.9409,rehab,safe_near_limit_fast,48.589750391940775,-666.6317263929301,279.2135710177886,-177.65106391259414,0.2913803510658134,-149.85224941704257,37.5759,0.0308,-50.3668,12.5713,-0.5384,-3.7464,81.66128177453976,28.754721915367806,84.86754917862392,-25.311321682400173,-89.03878953721788,-38.55813768174913,3.319421144995359,3.1017545190187965,3.948082498984762,-6.920216878255208,-0.06785074869791667,3.324796888563368,-3.2365,-1.6742,-2.0959,-0.03863,0.02026,0.05929,0.000896560843102634,0.0010002665221691132,0.0012017011176794767,0.00041550752939656377,0.0005005536368116736,0.0006072662072256207,0.011570200324058533,0.0092311417683959,0.00862911343574524,passive,0
2.9607,rehab,safe_near_limit_fast,49.18102921976943,-666.6350766013392,278.39830280474087,-177.65223544706478,0.2923099523273071,-149.85255971580872,37.3648,0.0247,-50.0449,14.7174,-0.1116,-8.242,81.71309971573329,28.80430995827854,84.92939486361966,-25.422770182291664,-89.03988308376736,-38.50725809733073,3.373836101871906,3.1017545190187965,3.8905606411471223,-6.8977101643880205,-0.06785074869791667,3.2569376627604165,-3.025,-1.7178,-2.435,-0.02465,0.01109,0.05405,0.000896560843102634,0.0010002665221691132,0.0012017011176794767,0.00041550752939656377,0.0005005536368116736,0.0006072662072256207,0.011570200324058533,0.0092311417683959,0.00862911343574524,passive,0
2.9811,rehab,safe_near_limit_fast,50.08175322308764,-666.6383181803761,277.2001193410851,-177.65180545559747,0.2919773967178253,-149.85165051406645,37.4345,-0.0205,-50.1509,14.338,0.3989,-8.7115,81.79200956136873,28.877441104095762,85.02097025956257,-25.59027777777778,-89.04151068793402,-38.431125217013886,3.428251058748453,2.938502849918781,3.776706657787361,-6.8870290120442705,-0.13570149739583334,3.1890869140625,-3.1643,-1.6333,-1.8729,-0.0381,0.01793,0.05676,0.000896560843102634,0.0010002665221691132,0.0012017011176794767,0.00041550752939656377,0.0005005536368116736,0.0006072662072256207,0.011570200324058533,0.0092311417683959,0.00862911343574524,passive,0
3.001,rehab,safe_near_limit_fast,50.69132293545605,-666.63238505734,276.41784740114537,-177.65053781919693,0.29100634091598254,-149.8510697799675,37.7293,-0.042,-50.4034,9.9927,0.2312,-2.5815,81.84530956910388,28.92454770531985,85.08232645469137,-25.701861911349827,-89.04259575737846,-38.37964375813802,3.2105844327718907,2.938502849918781,3.841312521755105,-7.000545925564236,-0.06785074869791667,3.1890869140625,-3.0529,-1.6238,-1.8911,-0.0296,0.00514,0.05483,0.000896560843102634,0.0010002665221691132,0.0012017011176794767,0.00041550752939656377,0.0005005536368116736,0.0006072662072256207,0.011570200324058533,0.0092311417683959,0.00862911343574524,passive,0
3.021,rehab,safe_near_limit_fast,51.59559566947624,-666.6277894332895,275.2409675294227,-177.64885891919334,0.289640072543696,-149.85135233542192,37.9743,-0.0082,-50.2498,8.7623,-0.2477,2.5806,81.92445736120243,28.996325955532566,85.17314722042272,-25.868920220269096,-89.04430813259549,-38.30206976996528,3.2105844327718907,3.1017545190187965,3.885087872495746,-6.9786834716796875,-0.06785074869791667,3.1890869140625,-3.1489,-1.6127,-2.3455,-0.03453,0.00377,0.05759,0.000896560843102634,0.0010002665221691132,0.0012017011176794767,0.00041550752939656377,0.0005005536368116736,0.0006072662072256207,0.011570200324058533,0.0092311417683959,0.00862911343574524,passive,0
3.041,rehab,safe_near_limit_fast,52.198159109314986,-666.6294677739761,274.4280704140082,-177.65014465645766,0.2906564357240094,-149.85181514568404,38.5218,0.0555,-50.4766,14.0689,-0.1633,3.085,81.97725428212988,29.046940567469832,85.23308253524327,-25.97936842176649,-89.04543558756511,-38.25004577636719,3.373836101871906,3.2650061881188117,3.714860972791615,-6.8343861897786455,-0.06785074869791667,3.392647637261285,-3.1891,-1.5963,-2.6015,-0.04036,0.00581,0.06025,0.000896560843102634,0.0010002665221691132,0.0012017011176794767,0.00041550752939656377,0.0005005536368116736,0.0006072662072256207,0.011570200324058533,0.0092311417683959,0.00862911343574524,passive,0
3.061,rehab,safe_near_limit_fast,53.10961862826409,-666.6371625465363,273.1985992125059,-177.65186555877654,0.292019914834819,-149.8525208914451,38.9536,0.0617,-50.6041,19.8623,0.3828,4.033,82.05718389832147,29.124585897615642,85.32212890020692,-26.14618937174479,-89.04713948567708,-38.171276516384545,3.319421144995359,3.1561694758953434,3.6070780234761757,-6.783192952473958,-0.13570149739583334,3.1890869140625,-3.0674,-1.7435,-2.2734,-0.04505,0.00679,0.05366,0.000896560843102634,0.0010002665221691132,0.0012017011176794767,0.00041550752939656377,0.0005005536368116736,0.0006072662072256207,0.011570200324058533,0.0092311417683959,0.00862911343574524,passive,0
3.0808,rehab,safe_near_limit_fast,53.72698768481784,-666.6371112890165,272.3809918108454,-177.6533364870466,0.29316319876236974,-149.85267322517547,38.8888,-0.0055,-50.1657,22.6536,0.3816,4.9647,82.1112589316793,29.176043519879332,85.38154753127901,-26.256764729817707,-89.04830084906683,-38.1182861328125,3.482672814095374,3.047339562142249,3.6129247079981437,-6.851916842990451,-0.13570149739583334,3.392647637261285,-3.142,-1.7176,-2.2259,-0.04967,0.00859,0.05756,0.000896560843102634,0.0010002665221691132,0.0012017011176794767,0.00041550752939656377,0.0005005536368116736,0.0006072662072256207,0.011570200324058533,0.0092311417683959,0.00862911343574524,passive,0
3.1011,rehab,safe_near_limit_fast,54.677217729678915,-666.6317211902056,271.1910344016847,-177.65283026816405,0.2927785597924439,-149.8515752520772,39.0001,-0.0488,-49.665,18.9308,-0.4673,8.8956,82.19441782129873,29.250915074112392,85.46939736545676,-26.42248365614149,-89.050047132704,-38.03806728786892,3.482672814095374,3.047339562142249,3.670650519947014,-6.87711927625868,-0.06785074869791667,3.324796888563368,-3.2278,-1.6742,-2.1806,-0.03469,0.01934,0.05969,0.000896560843102634,0.0010002665221691132,0.0012017011176794767,0.00041550752939656377,0.0005005536368116736,0.0006072662072256207,0.011570200324058533,0.0092311417683959,0.00862911343574524,passive,0
3.1212,rehab,safe_near_limit_fast,55.47562943554482,-666.6267281114497,270.2108257305471,-177.65137648214986,0.2916243399961144,-149.85158633469743,39.8781,-0.0195,-49.8046,17.9493,-1.2829,7.9559,82.264299298277,29.312971511689742,85.54171949329942,-26.56072828504774,-89.05157301161024,-37.96970791286892,3.482672814095374,3.1017545190187965,3.653151257203357,-6.810404459635416,-0.0,3.392647637261285,-3.202,-1.665,-2.457,-0.038,0.0227,0.0643,0.000896560843102634,0.0010002665221691132,0.0012017011176794767,0.00041550752939656377,0.0005005536368116736,0.0006072662072256207,0.011570200324058533,0.0092311417683959,0.00862911343574524,passive,0
3.1412,rehab,safe_near_limit_fast,56.1149894151564,-666.6278248826713,269.42492579503363,-177.65036936256655,0.2908880053025629,-149.85241359619536,40.6338,0.0339,-49.8082,25.2926,-1.1532,-1.5967,82.3203186941619,29.363654108330756,85.59814679740678,-26.670718722873264,-89.05277676052518,-37.91408114963107,3.482672814095374,3.1561694758953434,3.5272571828105663,-6.823391384548611,-0.0,3.392647637261285,-3.1568,-1.5325,-2.3247,-0.0359,0.00264,0.05872,0.000896560843102634,0.0010002665221691132,0.0012017011176794767,0.00041550752939656377,0.0005005536368116736,0.0006072662072256207,0.011570200324058533,0.0092311417683959,0.00862911343574524,passive,0
3.1611,rehab,safe_near_limit_fast,57.08469727299,-666.6363893660962,268.21659013550266,-177.65058477017894,0.290960299920025,-149.85277991354394,41.21,0.0153,-49.9826,28.3351,-0.204,-4.6836,82.40538115548615,29.442992257599784,85.68184956465618,-26.83599683973524,-89.05471801757812,-37.830496893988716,3.7003394400719367,3.428251058748453,3.442323892423422,-6.738993326822916,-0.06785074869791667,3.528349134657118,-3.2456,-1.3621,-2.8667,-0.027,0.01651,0.0659,0.000896560843102634,0.0010002665221691132,0.0012017011176794767,0.00041550752939656377,0.0005005536368116736,0.0006072662072256207,0.011570200324058533,0.0092311417683959,0.00862911343574524,passive,0
3.1809,rehab,safe_near_limit_fast,57.74671241500661,-666.6373017605764,267.40730141534635,-177.65130154209322,0.2914984541845606,-149.85283088119024,41.1629,-0.0725,-49.6783,27.5773,0.4631,-2.9165,82.46338570472038,29.496054318871828,85.73781457277808,-26.945792304144966,-89.0560065375434,-37.77366638183594,3.5915027278484684,3.319421144995359,3.433601454933091,-6.816813151041666,-0.06785074869791667,3.596208360460069,-3.1393,-1.4732,-2.433,-0.03332,0.01072,0.06042,0.000896560843102634,0.0010002665221691132,0.0012017011176794767,0.00041550752939656377,0.0005005536368116736,0.0006072662072256207,0.011570200324058533,0.0092311417683959,0.00862911343574524,passive,0
3.2011,rehab,safe_near_limit_fast,58.771326321844434,-666.6345531780672,266.1946364730658,-177.65227339805318,0.29229997155845716,-149.85113592841864,41.1674,-0.1147,-49.3616,27.3083,0.3559,0.2619,82.55309152131034,29.575881958007812,85.8212657966236,-27.110332912868923,-89.05790540907118,-37.68748813205295,3.809169353825031,3.2650061881188117,3.3751006173615408,-7.0202382405598955,-0.0,3.596208360460069,-3.1908,-1.5935,-2.1238,-0.04611,0.00979,0.06163,0.000896560843102634,0.0010002665221691132,0.0012017011176794767,0.00041550752939656377,0.0005005536368116736,0.0006072662072256207,0.011570200324058533,0.0092311417683959,0.00862911343574524,passive,0
3.2212,rehab,safe_near_limit_fast,59.45251421172655,-666.6318827216148,265.3946545541771,-177.65239391584396,0.2924035173432129,-149.85141401065712,43.1432,-0.0649,-50.9769,31.1439,0.1204,3.4497,82.61273450190478,29.628753662109375,85.87628581736347,-27.21978081597222,-89.05922783745659,-37.6287841796875,3.7003394400719367,3.319421144995359,3.3831636032255568,-6.773181491427951,-0.06785074869791667,3.664059109157986,-3.1176,-1.6045,-2.4085,-0.02948,0.0058,0.06262,0.000896560843102634,0.0010002665221691132,0.0012017011176794767,0.00041550752939656377,0.0005005536368116736,0.0006072662072256207,0.011570200324058533,0.0092311417683959,0.00862911343574524,passive,0
3.2409,rehab,safe_near_limit_fast,60.46535270752755,-666.6325803998867,264.1989317800358,-177.65237953270642,0.29239380997462466,-149.85425039922868,43.4996,0.0236,-50.2534,39.5583,0.4599,3.3684,82.70148853264233,29.70875806147509,85.95709243623337,-27.383227878146702,-89.061279296875,-37.53901163736979,3.64592448319539,3.2650061881188117,3.315199294892868,-6.890970865885416,-0.06785074869791667,3.799769083658854,-3.2119,-1.603,-2.6113,-0.04845,0.00778,0.06338,0.000896560843102634,0.0010002665221691132,0.0012017011176794767,0.00041550752939656377,0.0005005536368116736,0.0006072662072256207,0.011570200324058533,0.0092311417683959,0.00862911343574524,passive,0
3.2615,rehab,safe_near_limit_fast,61.15003805912813,-666.6402053107481,263.40137658502624,-177.6518183078185,0.291984521463923,-149.85637917512003,43.4538,0.0627,-49.0485,50.994,1.1336,0.8989,82.76156661534073,29.763363375522122,86.00924350247524,-27.492455376519096,-89.06266954210069,-37.478018866644966,3.7003394400719367,3.482672814095374,3.310773490679146,-6.82907952202691,-0.06785074869791667,3.799769083658854,-3.0287,-1.5645,-2.0267,-0.04236,0.0052,0.05609,0.000896560843102634,0.0010002665221691132,0.0012017011176794767,0.00041550752939656377,0.0005005536368116736,0.0006072662072256207,0.011570200324058533,0.0092311417683959,0.00862911343574524,passive,0
3.2812,rehab,safe_near_limit_fast,62.21392102300649,-666.6417392252863,262.198453017039,-177.6520045870706,0.2920861127639499,-149.85743821320915,45.1167,0.0265,-49.6847,56.9602,1.0542,0.5709,82.85479403958462,29.845454905292776,86.08794939399945,-27.65573289659288,-89.06483968098958,-37.385550604926216,3.9724210229250465,3.373836101871906,3.268575385065362,-6.935602823893229,-0.13570149739583334,4.0033213297526045,-3.1451,-1.6037,-2.3433,-0.05625,0.00361,0.05996,0.000896560843102634,0.0010002665221691132,0.0012017011176794767,0.00041550752939656377,0.0005005536368116736,0.0006072662072256207,0.011570200324058533,0.0092311417683959,0.00862911343574524,passive,0
3.3012,rehab,safe_near_limit_fast,62.958047084786166,-666.63541974597,261.39714584471903,-177.65250994931222,0.29252396083543863,-149.85656659230858,46.0585,-0.0144,-49.4249,51.7482,0.095,6.4881,82.91989619188969,29.90001942851756,86.14044038376005,-27.763951619466145,-89.06626383463542,-37.32252332899306,4.135672692025062,3.5370877709719215,3.2796432948348544,-7.010845608181423,-0.13570149739583334,3.9354705810546875,-3.03,-1.619,-2.4381,-0.03188,0.01766,0.05988,0.000896560843102634,0.0010002665221691132,0.0012017011176794767,0.00041550752939656377,0.0005005536368116736,0.0006072662072256207,0.011570200324058533,0.0092311417683959,0.00862911343574524,passive,0
3.3212,rehab,safe_near_limit_fast,64.09710999563468,-666.6297043966945,260.21099814902664,-177.65136191134746,0.2916872311431401,-149.85495817406775,47.5225,-0.0047,-49.7136,50.327,-0.8275,4.495,83.01960255840036,29.981961391939976,86.21718151734606,-27.926847669813366,-89.06849331325955,-37.22623189290365,4.190087648901609,3.64592448319539,3.136419919457766,-6.795264350043403,-0.13570149739583334,4.0033213297526045,-3.02,-1.4333,-1.7335,-0.02614,0.02507,0.05694,0.000896560843102634,0.0010002665221691132,0.0012017011176794767,0.00041550752939656377,0.0005005536368116736,0.0006072662072256207,0.011570200324058533,0.0092311417683959,0.00862911343574524,passive,0
3.3411,rehab,safe_near_limit_fast,64.86516413566586,-666.6291447557766,259.4250610057986,-177.65039649498448,0.29099085027619925,-149.8550215873287,48.5904,0.0358,-49.726,45.8209,-0.9504,2.8187,83.08687342275488,30.037124180557704,86.26674236637531,-28.034676445855034,-89.07003614637587,-37.160093519422745,4.244502605778156,3.5370877709719215,3.0371214611695545,-6.650653415256076,-0.0,4.071180555555555,-3.1454,-1.5285,-2.2064,-0.04383,0.01397,0.06131,0.000896560843102634,0.0010002665221691132,0.0012017011176794767,0.00041550752939656377,0.0005005536368116736,0.0006072662072256207,0.011570200324058533,0.0092311417683959,0.00862911343574524,passive,0
3.3611,rehab,safe_near_limit_fast,65.83969614412634,-666.6339259064048,258.44212297680303,-177.64957863745082,0.2902898409822011,-149.85413595608395,49.5311,0.0321,-49.6676,30.7399,-0.3,16.7518,83.17229620300897,30.107379573406558,86.32650771943649,-28.16817389594184,-89.07208760579427,-37.07704332139757,4.298924361125077,3.64592448319539,2.9351240101427134,-6.6222890218098955,-0.13570149739583334,4.274732801649305,-2.9006,-1.4743,-2.3061,-0.016,0.00958,0.06304,0.000896560843102634,0.0010002665221691132,0.0012017011176794767,0.00041550752939656377,0.0005005536368116736,0.0006072662072256207,0.011570200324058533,0.0092311417683959,0.00862911343574524,passive,0
3.3808,rehab,safe_near_limit_fast,67.02593951985885,-666.640261927256,257.24983803001453,-177.650104971823,0.2906811625070781,-149.8532571327886,49.6132,-0.0185,-48.8635,22.6257,0.3263,28.3187,83.27626521044438,30.1934550068166,86.39690588016322,-28.326916164822048,-89.07452901204427,-36.97572496202257,4.298924361125077,3.64592448319539,2.9216290464495667,-6.539849175347222,-0.13570149739583334,4.274732801649305,-3.0313,-1.4475,-2.2248,-0.03129,0.02395,0.06168,0.000896560843102634,0.0010002665221691132,0.0012017011176794767,0.00041550752939656377,0.0005005536368116736,0.0006072662072256207,0.011570200324058533,0.0092311417683959,0.00862911343574524,passive,0
3.4011,rehab,safe_near_limit_fast,67.82601112146418,-666.6376284026696,256.4581896609218,-177.6516597406417,0.29184652601904004,-149.852399951532,49.9643,-0.0475,-48.2674,20.6492,0.4699,36.8597,83.34630985071163,30.250398994672416,86.44347540222772,-28.43044704861111,-89.076173570421,-36.90769619411892,4.462176030225093,3.482672814095374,2.7860743456547805,-6.464589436848958,-0.06785074869791667,4.342592027452257,-3.0332,-1.4935,-2.5432,-0.0408,0.01198,0.05673,0.000896560843102634,0.0010002665221691132,0.0012017011176794767,0.00041550752939656377,0.0005005536368116736,0.0006072662072256207,0.011570200324058533,0.0092311417683959,0.00862911343574524,passive,0
3.4208,rehab,safe_near_limit_fast,69.01702097967276,-666.6330754959283,255.31583677180046,-177.652276296702,0.2923772676314742,-149.8535251461669,50.1696,-0.0308,-47.5934,18.0965,0.4023,47.0871,83.45057799084351,30.333245154654627,86.51039274612276,-28.582382202148438,-89.07864888509114,-36.803995768229164,4.353339318001624,3.482672814095374,2.7366766599145267,-6.20849609375,-0.13570149739583334,4.342592027452257,-3.0227,-1.4446,-2.0585,-0.04047,0.00701,0.056,0.000896560843102634,0.0010002665221691132,0.0012017011176794767,0.00041550752939656377,0.0005005536368116736,0.0006072662072256207,0.011570200324058533,0.0092311417683959,0.00862911343574524,passive,0
3.4409,rehab,safe_near_limit_fast,69.80710077269173,-666.63170555353,254.58861005805744,-177.65090906883393,0.291297867059363,-149.85445801217293,49.9444,0.0274,-46.0937,13.3534,0.5693,56.7013,83.51977962078435,30.38669472873801,86.55270642573291,-28.681869506835938,-89.0803951687283,-36.73496670193142,4.462176030225093,3.373836101871906,2.588667161393874,-6.09590318467882,-0.06785074869791667,4.274732801649305,-2.946,-1.4773,-1.8035,-0.03172,0.00461,0.05125,0.000896560843102634,0.0010002665221691132,0.0012017011176794767,0.00041550752939656377,0.0005005536368116736,0.0006072662072256207,0.011570200324058533,0.0092311417683959,0.00862911343574524,passive,0
3.4611,rehab,safe_near_limit_fast,71.00758867315201,-666.6337500675129,253.5094076971901,-177.6500540894266,0.2906302356281838,-149.8543514618881,51.0538,0.0722,-45.0423,7.7329,0.7916,66.5993,83.62494515900565,30.46746055678566,86.61256015890896,-28.826539781358505,-89.08298916286893,-36.63152058919271,4.571005943978187,3.373836101871906,2.4466403168026765,-5.963914659288195,-0.13570149739583334,4.274732801649305,-3.0959,-1.3059,-2.0872,-0.03947,0.01409,0.06227,0.000896560843102634,0.0010002665221691132,0.0012017011176794767,0.00041550752939656377,0.0005005536368116736,0.0006072662072256207,0.011570200324058533,0.0092311417683959,0.00862911343574524,passive,0
3.4811,rehab,safe_near_limit_fast,71.81789697681643,-666.6351198407256,252.79816062886638,-177.65054991712066,0.29106614311324913,-149.8536364156727,51.6627,0.068,-43.9898,0.2571,0.5952,77.7792,83.69590759277344,30.52135882991375,86.65040044501276,-28.919601440429688,-89.0846676296658,-36.56231350368923,4.353339318001624,3.319421144995359,2.4051900429300743,-5.5858103434244795,-0.06785074869791667,4.342592027452257,-2.9471,-1.3886,-2.3879,-0.03712,0.01988,0.05491,0.000896560843102634,0.0010002665221691132,0.0012017011176794767,0.00041550752939656377,0.0005005536368116736,0.0006072662072256207,0.011570200324058533,0.0092311417683959,0.00862911343574524,passive,0
3.5009,rehab,safe_near_limit_fast,73.03261611666414,-666.6354103531299,251.76312456351573,-177.65179796403265,0.2920223083204202,-149.85258999963514,51.4442,0.0428,-42.233,-10.6076,-0.0582,90.6829,83.80226966178063,30.600547412834544,86.70402677932589,-29.05381096733941,-89.08726162380643,-36.45850287543403,4.462176030225093,3.319421144995359,2.2048595164081837,-5.54014417860243,-0.13570149739583334,4.410442776150173,-2.8885,-1.2655,-1.9756,-0.0197,0.00127,0.05607,0.000896560843102634,0.0010002665221691132,0.0012017011176794767,0.00041550752939656377,0.0005005536368116736,0.0006072662072256207,0.011570200324058533,0.0092311417683959,0.00862911343574524,passive,0
3.5208,rehab,safe_near_limit_fast,73.83960460926966,-666.6323656309572,251.10444712865865,-177.65272014580478,0.2926354946624435,-149.85200887410213,50.6734,0.0265,-40.1632,-21.8031,-1.0961,102.1201,83.87290576897045,30.651291195708925,86.73757043215308,-29.138963487413193,-89.08907572428386,-36.389405992296005,4.4077542748781715,3.1561694758953434,2.039636290899598,-5.277345445421007,-0.13570149739583334,4.139031304253472,-3.0321,-1.3921,-2.3244,-0.04446,0.01619,0.05582,0.000896560843102634,0.0010002665221691132,0.0012017011176794767,0.00041550752939656377,0.0005005536368116736,0.0006072662072256207,0.011570200324058533,0.0092311417683959,0.00862911343574524,passive,0
3.5409,rehab,safe_near_limit_fast,75.24476172064409,-666.6270641619819,250.0560200461311,-177.65060967460673,0.2910294641920249,-149.85163434067667,49.7577,0.0206,-37.8405,-30.952,-2.0022,115.2046,83.995890098043,30.733743044409422,86.78991865403582,-29.279861450195312,-89.09225463867188,-36.268369886610245,4.298924361125077,3.047339562142249,1.6982646979907952,-4.8708852132161455,-0.06785074869791667,4.206882052951388,-2.8431,-1.3706,-2.1357,-0.0456,0.00433,0.05311,0.000896560843102634,0.0010002665221691132,0.0012017011176794767,0.00041550752939656377,0.0005005536368116736,0.0006072662072256207,0.011570200324058533,0.0092311417683959,0.00862911343574524,passive,0
3.5611,rehab,safe_near_limit_fast,76.03527403525624,-666.6284520462648,249.4829178565426,-177.65017397278157,0.2907021015196954,-149.85209846379226,49.3786,-0.0071,-35.6439,-27.7213,-2.1068,125.392,84.06511212339495,30.77997944142559,86.81626272673654,-29.354943169487846,-89.09406873914931,-36.19952731662326,4.190087648901609,2.884087893042234,1.61713175254293,-4.6228790283203125,-0.13570149739583334,4.614003499348958,-2.7388,-1.286,-1.8044,-0.03995,0.01097,0.05307,0.000896560843102634,0.0010002665221691132,0.0012017011176794767,0.00041550752939656377,0.0005005536368116736,0.0006072662072256207,0.011570200324058533,0.0092311417683959,0.00862911343574524,passive,0
