t,trajectory_type,trajectory_variant,x,y,z,rx,ry,rz,vx,vy,vz,ax,ay,az,j1,j2,j3,j4,j5,j6,dj1,dj2,dj3,dj4,dj5,dj6,fx,fy,fz,tx,ty,tz,Mx,My,Mz,Bx,By,Bz,Kx,Ky,Kz,mode,comfort
0.0008,rehab,safe_near_limit_slow,78.15763290350779,-666.597999177783,264.48320352086716,-177.67160185362368,0.3041009173373279,-149.7774510138267,0.0033,0.0011,0.0015,-0.0633,-0.0246,-0.044,84.24716836155051,29.915907453782488,85.57014389793471,-27.223086886935764,-89.1083272298177,-36.06910705566406,-0.05441495687654703,-0.0,0.007050013778233292,-0.007103814019097222,-0.0,-0.0,-0.0858,-0.0257,0.739,-0.02451,0.00455,-0.00621,0.000941441219765693,0.0010232588974758983,0.0008030119352042675,0.0006279067602008581,0.0005287714302539825,0.000410166714573279,0.011742024682462215,0.008458539843559265,0.011736891232430935,passive,0
0.0212,rehab,safe_near_limit_slow,78.15771334342774,-666.5979760403073,264.48328126827056,-177.67159626184204,0.304096234860468,-149.77742725026405,0.0026,0.0008,0.0011,-0.0543,-0.021,-0.0393,84.24717516002089,29.915900655312115,85.57014389793471,-27.223086886935764,-89.1083272298177,-36.06912400987413,-0.0,-0.05441495687654703,-0.030477542688350866,-0.0028822157118055555,-0.0,-0.06785074869791667,0.2611,-0.0203,0.7737,0.0231,-0.01228,-0.00294,0.000941441219765693,0.0010232588974758983,0.0008030119352042675,0.0006279067602008581,0.0005287714302539825,0.000410166714573279,0.011742024682462215,0.008458539843559265,0.011736891232430935,passive,0
0.0409,rehab,safe_near_limit_slow,78.15763424778284,-666.5979853141603,264.48328126827056,-177.67159626184204,0.30409623486046794,-149.77743404873445,0.0015,0.0004,0.0004,-0.0369,-0.0143,-0.0297,84.24716836155051,29.915900655312115,85.57014389793471,-27.223086886935764,-89.1083272298177,-36.06912400987413,-0.05441495687654703,-0.0,0.0017608038269647276,0.0003306070963541667,-0.0,-0.06785074869791667,-0.0762,-0.1125,-0.035,-0.01143,-0.00521,0.00067,0.000941441219765693,0.0010232588974758983,0.0008030119352042675,0.0006279067602008581,0.0005287714302539825,0.000410166714573279,0.011742024682462215,0.008458539843559265,0.011736891232430935,passive,0
0.0609,rehab,safe_near_limit_slow,78.1578560849241,-666.5979559140201,264.48328087616403,-177.6716012992863,0.3040897330087629,-149.77742240675315,0.0006,0.0001,-0.0002,-0.0213,-0.0082,-0.0202,84.24718875696163,29.915900655312115,85.57014389793471,-27.223086886935764,-89.10833570692274,-36.069115532769096,-0.0,-0.0,-0.007077207659730817,0.050040351019965276,-0.0,-0.0,-0.0974,-0.1676,0.4305,-0.00854,-0.00687,0.00026,0.000941441219765693,0.0010232588974758983,0.0008030119352042675,0.0006279067602008581,0.0005287714302539825,0.000410166714573279,0.011742024682462215,0.008458539843559265,0.011736891232430935,passive,0
0.0808,rehab,safe_near_limit_slow,78.15779549081167,-666.5979368285285,264.483228788314,-177.67160186454848,0.3041009022170338,-149.77743740621057,0.0001,-0.0001,-0.0006,-0.009,-0.0036,-0.012,84.24718195849125,29.915900655312115,85.5701506964051,-27.223086886935764,-89.1083272298177,-36.06910705566406,-0.05441495687654703,-0.0,0.02490279698135829,0.029271443684895832,-0.0,-0.0,-0.0625,-0.0557,0.1377,-0.00473,-0.0053,0.00254,0.000941441219765693,0.0010232588974758983,0.0008030119352042675,0.0006279067602008581,0.0005287714302539825,0.000410166714573279,0.011742024682462215,0.008458539843559265,0.011736891232430935,passive,0
0.1013,rehab,safe_near_limit_slow,78.15771375933299,-666.5979749951111,264.4831858814323,-177.6716086573844,0.30410556755223606,-149.7774356740737,0.0005,-0.0001,-0.001,0.0011,-0.0001,-0.0064,84.24717516002089,29.915907453782488,85.57014389793471,-27.223078409830727,-89.1083272298177,-36.069115532769096,-0.0,-0.0,0.01830828071820854,0.021964179144965276,-0.0,-0.0,-0.0785,-0.0928,-0.0988,-0.00578,-0.00078,-1e-05,0.000941441219765693,0.0010232588974758983,0.0008030119352042675,0.0006279067602008581,0.0005287714302539825,0.000410166714573279,0.011742024682462215,0.008458539843559265,0.011736891232430935,passive,0
0.1208,rehab,safe_near_limit_slow,78.15769308171708,-666.5980193084723,264.4833509955648,-177.67158902768065,0.3040814486407878,-149.77745300123928,0.0009,-0.0,-0.0011,0.0075,0.0016,0.0009,84.24717516002089,29.915900655312115,85.57013709946435,-27.223095364040798,-89.10833570692274,-36.06909857855903,-0.0,-0.0,-0.04242925360651299,3.390842013888889e-05,-0.0,-0.0,-0.0311,-0.0265,0.0743,-0.01545,-0.00315,-0.0038,0.000941441219765693,0.0010232588974758983,0.0008030119352042675,0.0006279067602008581,0.0005287714302539825,0.000410166714573279,0.011742024682462215,0.008458539843559265,0.011736891232430935,passive,0
0.1412,rehab,safe_near_limit_slow,78.15781264807165,-666.5979223327719,264.48309895307386,-177.67160784176883,0.3041153763029826,-149.77742869139044,0.0003,0.0002,-0.0009,0.0082,0.0016,0.0133,84.24718195849125,29.915907453782488,85.57015749487546,-27.223086886935764,-89.10831875271268,-36.069115532769096,-0.0,0.05441495687654703,4.079082224628713e-05,-0.006349351671006944,-0.0,-0.0,-0.0018,-0.0332,0.6008,-0.02087,0.0063,-0.00985,0.000941441219765693,0.0010232588974758983,0.0008030119352042675,0.0006279067602008581,0.0005287714302539825,0.000410166714573279,0.011742024682462215,0.008458539843559265,0.011736891232430935,passive,0
0.161,rehab,safe_near_limit_slow,78.15777740518678,-666.5979641426936,264.48318548932576,-177.6716136498733,0.304098721300051,-149.77742915880623,0.0008,0.0002,-0.0002,0.0037,0.0016,0.0159,84.24718195849125,29.915907453782488,85.57014389793471,-27.223078409830727,-89.10833570692274,-36.069115532769096,-0.05441495687654703,0.05441495687654703,-0.002386263101407797,-0.017047458224826388,-0.0,0.06785074869791667,-0.089,0.0375,0.5551,-0.0212,0.00225,-0.00576,0.000941441219765693,0.0010232588974758983,0.0008030119352042675,0.0006279067602008581,0.0005287714302539825,0.000410166714573279,0.011742024682462215,0.008458539843559265,0.011736891232430935,passive,0
0.1808,rehab,safe_near_limit_slow,78.1578688988818,-666.5979863852962,264.48323836138707,-177.67160314458934,0.3041015889956777,-149.7774220631665,0.0016,0.0001,0.0003,-0.0026,0.0021,0.0081,84.24718875696163,29.915907453782488,85.57013709946435,-27.223078409830727,-89.1083272298177,-36.069115532769096,-0.05441495687654703,-0.0,-0.010204504031946164,0.00037299262152777775,-0.0,-0.0,0.0026,-0.0173,0.3028,-0.02038,-0.0092,-0.00594,0.000941441219765693,0.0010232588974758983,0.0008030119352042675,0.0006279067602008581,0.0005287714302539825,0.000410166714573279,0.011742024682462215,0.008458539843559265,0.011736891232430935,passive,0
0.2009,rehab,safe_near_limit_slow,78.15789045214619,-666.5979280880056,264.48313379359,-177.67160922264887,0.30411673675947387,-149.7774302781224,0.001,0.0002,-0.0004,-0.0034,0.0024,0.0012,84.24718875696163,29.915907453782488,85.5701506964051,-27.223078409830727,-89.10831875271268,-36.06910705566406,-0.05441495687654703,-0.0,0.012121672677521659,0.010528564453125,-0.0,-0.0,-0.0798,-0.0525,-0.1741,-0.01666,-0.00069,5e-05,0.000941441219765693,0.0010232588974758983,0.0008030119352042675,0.0006279067602008581,0.0005287714302539825,0.000410166714573279,0.011742024682462215,0.008458539843559265,0.011736891232430935,passive,0
0.2207,rehab,safe_near_limit_slow,78.15781006494296,-666.5979523909826,264.4831686341085,-177.67161051361217,0.304117408418936,-149.77742852134406,0.0003,-0.0001,0.0005,0.0004,0.0013,-0.004,84.24718195849125,29.915907453782488,85.57014389793471,-27.223069932725693,-89.10831875271268,-36.069115532769096,-0.0,-0.0,0.03481496678720607,0.023252699110243056,-0.0,-0.06785074869791667,-0.1237,0.0143,0.0592,-0.019,-0.0088,-0.00073,0.000941441219765693,0.0010232588974758983,0.0008030119352042675,0.0006279067602008581,0.0005287714302539825,0.000410166714573279,0.011742024682462215,0.008458539843559265,0.011736891232430935,passive,0
0.2409,rehab,safe_near_limit_slow,78.15787634662576,-666.5979126458373,264.48321114887915,-177.6716086683092,0.30410555243194365,-149.77742206645755,0.0003,0.0001,0.0004,-0.0039,0.0023,-0.0086,84.24718875696163,29.915900655312115,85.5701506964051,-27.223078409830727,-89.1083272298177,-36.069115532769096,-0.0,-0.05441495687654703,0.010204504031946164,0.0032721625434027775,-0.0,-0.06785074869791667,-0.1427,-0.0671,0.1789,-0.00461,-0.0048,0.0005,0.000941441219765693,0.0010232588974758983,0.0008030119352042675,0.0006279067602008581,0.0005287714302539825,0.000410166714573279,0.011742024682462215,0.008458539843559265,0.011736891232430935,passive,0
0.2612,rehab,safe_near_limit_slow,78.15788082832208,-666.5980177814812,264.48327403237147,-177.6715844996227,0.30409879042090693,-149.77743039230188,0.0004,0.0005,-0.0012,-0.0102,0.004,-0.0085,84.24718875696163,29.915907453782488,85.57013709946435,-27.223095364040798,-89.10831875271268,-36.06910705566406,-0.0,-0.0,-0.022360169061339728,0.023345947265625,0.06785074869791667,0.06785074869791667,0.0243,0.0858,0.3961,0.0041,-0.00737,-0.00118,0.000941441219765693,0.0010232588974758983,0.0008030119352042675,0.0006279067602008581,0.0005287714302539825,0.000410166714573279,0.011742024682462215,0.008458539843559265,0.011736891232430935,passive,0
0.2811,rehab,safe_near_limit_slow,78.15787500235649,-666.5979265094521,264.4831334014812,-177.6716142151368,0.3041098905065586,-149.7774305613253,0.0006,0.0005,-0.001,-0.0068,0.0005,-0.0028,84.24718875696163,29.915907453782488,85.5701506964051,-27.223078409830727,-89.1083272298177,-36.06910705566406,-0.0,-0.0,-0.016180359491027228,-0.00732421875,-0.0,0.06785074869791667,-0.0241,-0.1644,0.1431,-0.00492,-0.00227,-0.00298,0.000941441219765693,0.0010232588974758983,0.0008030119352042675,0.0006279067602008581,0.0005287714302539825,0.000410166714573279,0.011742024682462215,0.008458539843559265,0.011736891232430935,passive,0
0.3009,rehab,safe_near_limit_slow,78.15785779239145,-666.59793983972,264.4831506488078,-177.67161226899614,0.30409736084404215,-149.77741397513392,0.001,0.0003,-0.0005,-0.0035,-0.0041,-0.0009,84.24718875696163,29.915907453782488,85.5701506964051,-27.223086886935764,-89.10833570692274,-36.06912400987413,-0.0,-0.0,-0.012210052792388614,0.009553697374131944,-0.0,-0.0,-0.1682,0.0088,0.09,-0.01069,0.00406,0.00531,0.000941441219765693,0.0010232588974758983,0.0008030119352042675,0.0006279067602008581,0.0005287714302539825,0.000410166714573279,0.011742024682462215,0.008458539843559265,0.011736891232430935,passive,0
0.3212,rehab,safe_near_limit_slow,78.1579554422618,-666.5979033719558,264.48321114887915,-177.6716086233525,0.3041052080333519,-149.77740679776167,0.0002,0.0002,-0.0004,-0.0066,-0.0084,0.0037,84.247195555432,29.915900655312115,85.5701506964051,-27.223078409830727,-89.1083272298177,-36.06912400987413,-0.0,-0.05441495687654703,-0.024066585125309407,0.007459852430555555,-0.06785074869791667,-0.06785074869791667,-0.1573,0.0052,0.3045,-0.01349,0.00592,-0.00157,0.000941441219765693,0.0010232588974758983,0.0008030119352042675,0.0006279067602008581,0.0005287714302539825,0.000410166714573279,0.011742024682462215,0.008458539843559265,0.011736891232430935,passive,0
0.3409,rehab,safe_near_limit_slow,78.1578921596167,-666.5979120136737,264.4830035662462,-177.67162023731538,0.3041247089913055,-149.77743031673393,-0.0005,0.0004,-0.0004,-0.0073,-0.0095,0.0103,84.24718875696163,29.91591425225286,85.57015749487546,-27.223078409830727,-89.10831875271268,-36.06910705566406,0.05441495687654703,-0.0,0.00515324054378094,-0.014860365125868056,0.06785074869791667,-0.0,0.0576,-0.0024,0.4531,0.00396,0.0078,-0.00382,0.000941441219765693,0.0010232588974758983,0.0008030119352042675,0.0006279067602008581,0.0005287714302539825,0.000410166714573279,0.011742024682462215,0.008458539843559265,0.011736891232430935,passive,0
0.3609,rehab,safe_near_limit_slow,78.15797083934505,-666.5979037850144,264.48309895307386,-177.67160779681072,0.3041150319042687,-149.77740662422414,-0.0002,-0.0002,-0.0001,-0.0035,-0.0056,0.0027,84.247195555432,29.915907453782488,85.57015749487546,-27.223086886935764,-89.10831875271268,-36.06912400987413,-0.0,-0.0,-0.013855282622988862,8.477105034722223e-06,-0.0,-0.06785074869791667,-0.0299,0.0837,0.2511,-0.01504,0.00387,-0.00676,0.000941441219765693,0.0010232588974758983,0.0008030119352042675,0.0006279067602008581,0.0005287714302539825,0.000410166714573279,0.011742024682462215,0.008458539843559265,0.011736891232430935,passive,0
0.3816,rehab,safe_near_limit_slow,78.15789132780283,-666.5979141041055,264.48319433990537,-177.67159553613877,0.30410673241211544,-149.7774304095592,-0.0001,-0.0007,-0.0001,0.0018,-0.0024,-0.0078,84.24718875696163,29.915900655312115,85.57015749487546,-27.223095364040798,-89.10831875271268,-36.06910705566406,-0.0,-0.05441495687654703,0.03223154804494121,-0.030483669704861112,-0.0,0.06785074869791667,-0.0703,-0.1696,-0.236,-0.00429,0.00399,0.00145,0.000941441219765693,0.0010232588974758983,0.0008030119352042675,0.0006279067602008581,0.0005287714302539825,0.000410166714573279,0.011742024682462215,0.008458539843559265,0.011736891232430935,passive,0
0.401,rehab,safe_near_limit_slow,78.15788388005872,-666.5979878435664,264.48322155241317,-177.67158996746204,0.3041024245753143,-149.77742193604263,-0.0001,-0.0005,-0.0003,0.0093,-0.0011,-0.0053,84.24718875696163,29.915907453782488,85.57014389793471,-27.223095364040798,-89.10831875271268,-36.069115532769096,-0.0,-0.0,-0.02489599851098391,-0.02532958984375,0.06785074869791667,-0.0,-0.0365,-0.0959,0.006,-0.01123,0.00783,-0.00177,0.000941441219765693,0.0010232588974758983,0.0008030119352042675,0.0006279067602008581,0.0005287714302539825,0.000410166714573279,0.011742024682462215,0.008458539843559265,0.011736891232430935,passive,0
0.4212,rehab,safe_near_limit_slow,78.15779719828214,-666.5979207542165,264.48309856096506,-177.67161283425781,0.3041085300508119,-149.77742897459345,0.0001,-0.0003,-0.0003,0.0114,0.0004,-0.0,84.24718195849125,29.915907453782488,85.57015749487546,-27.223086886935764,-89.1083272298177,-36.069115532769096,-0.0,-0.0,-0.0259837537708849,-0.02045525444878472,-0.0,-0.0,-0.0262,-0.0951,0.0281,-0.0049,-0.013,-0.00484,0.000941441219765693,0.0010232588974758983,0.0008030119352042675,0.0006279067602008581,0.0005287714302539825,0.000410166714573279,0.011742024682462215,0.008458539843559265,0.011736891232430935,passive,0
0.4411,rehab,safe_near_limit_slow,78.15795099355377,-666.5979460080001,264.48307329351263,-177.67161286829023,0.30410888956909704,-149.77742385855365,0.0006,0.0002,-0.001,0.0026,0.0055,0.0021,84.247195555432,29.91591425225286,85.5701506964051,-27.223086886935764,-89.1083272298177,-36.06910705566406,-0.0,-0.0,0.018274288366336634,-0.0032975938585069445,-0.06785074869791667,0.06785074869791667,0.0401,-0.0719,0.0771,-0.00629,-0.00421,-0.00535,0.000941441219765693,0.0010232588974758983,0.0008030119352042675,0.0006279067602008581,0.0005287714302539825,0.000410166714573279,0.011742024682462215,0.008458539843559265,0.011736891232430935,passive,0
0.461,rehab,safe_near_limit_slow,78.15792938758929,-666.5980031398041,264.4830652733823,-177.6716110011359,0.3040970638229831,-149.77742422348902,0.0007,0.0,-0.001,-0.0041,0.009,0.0072,84.247195555432,29.915921050723234,85.57014389793471,-27.223095364040798,-89.10833570692274,-36.06910705566406,0.05441495687654703,0.05441495687654703,-0.006798470374381188,-0.043385823567708336,0.06785074869791667,-0.0,-0.0264,0.0122,-0.5474,-0.00429,-0.00393,-0.00183,0.000941441219765693,0.0010232588974758983,0.0008030119352042675,0.0006279067602008581,0.0005287714302539825,0.000410166714573279,0.011742024682462215,0.008458539843559265,0.011736891232430935,passive,0
0.4809,rehab,safe_near_limit_slow,78.15795538955516,-666.5979022064628,264.48309856096506,-177.67161283425781,0.3041085300508119,-149.77741537765272,0.0005,-0.0001,-0.0001,-0.0034,0.0067,0.0114,84.247195555432,29.915907453782488,85.57015749487546,-27.223086886935764,-89.1083272298177,-36.069115532769096,-0.0,-0.0,-0.010367667320931312,-0.003509521484375,-0.06785074869791667,-0.0,-0.0069,-0.0028,0.2205,-0.0006,-0.01094,-0.00322,0.000941441219765693,0.0010232588974758983,0.0008030119352042675,0.0006279067602008581,0.0005287714302539825,0.000410166714573279,0.011742024682462215,0.008458539843559265,0.011736891232430935,passive,0
0.5008,rehab,safe_near_limit_slow,78.1579355437638,-666.5979444294485,264.48307290140616,-177.67161786077816,0.3041020433161531,-149.7774241417561,0.0004,0.0,0.0005,-0.0016,0.0052,0.01,84.247195555432,29.91591425225286,85.5701506964051,-27.223086886935764,-89.10833570692274,-36.06910705566406,-0.0,-0.0,-0.024250143825417698,-0.03037346733940972,-0.06785074869791667,-0.0,0.0164,0.0852,0.1171,-0.00119,-0.00951,0.00305,0.000941441219765693,0.0010232588974758983,0.0008030119352042675,0.0006279067602008581,0.0005287714302539825,0.000410166714573279,0.011742024682462215,0.008458539843559265,0.011736891232430935,passive,0
0.5213,rehab,safe_near_limit_slow,78.15795580546275,-666.5979011612386,264.4830031741374,-177.67162522980334,0.30411786273833563,-149.77742380146512,-0.0003,0.0003,0.0002,-0.0002,0.0053,0.0046,84.24718875696163,29.91591425225286,85.5701506964051,-27.223086886935764,-89.1083272298177,-36.069115532769096,-0.0,0.05441495687654703,0.00019715564085705445,-0.00881618923611111,-0.06785074869791667,-0.0,0.0475,0.0073,0.1222,-0.00025,0.00871,-0.00342,0.000941441219765693,0.0010232588974758983,0.0008030119352042675,0.0006279067602008581,0.0005287714302539825,0.000410166714573279,0.011742024682462215,0.008458539843559265,0.011736891232430935,passive,0
0.5409,rehab,safe_near_limit_slow,78.15794881747446,-666.5979619620276,264.4831863197872,-177.6715936240293,0.3040945622652715,-149.77741550580112,-0.0003,0.0006,0.0004,0.0043,0.0066,-0.0046,84.24718875696163,29.915900655312115,85.57016429334584,-27.223095364040798,-89.1083272298177,-36.069115532769096,-0.0,0.05441495687654703,0.0004554975150835396,0.004001193576388889,-0.06785074869791667,-0.06785074869791667,0.1273,0.0618,0.0837,0.01337,0.00273,-0.00311,0.000941441219765693,0.0010232588974758983,0.0008030119352042675,0.0006279067602008581,0.0005287714302539825,0.000410166714573279,0.011742024682462215,0.008458539843559265,0.011736891232430935,passive,0
0.5609,rehab,safe_near_limit_slow,78.15786708599963,-666.5980001286292,264.48314341289733,-177.67160046182124,0.30409957200007726,-149.77742224388902,0.0004,0.0005,0.0004,0.0083,0.0049,-0.0131,84.247195555432,29.91591425225286,85.5701506964051,-27.223086886935764,-89.10831875271268,-36.069115532769096,-0.0,-0.0,0.0,0.020429823133680556,-0.0,-0.0,-0.1079,0.0606,0.0748,-0.01154,-0.00437,9e-05,0.000941441219765693,0.0010232588974758983,0.0008030119352042675,0.0006279067602008581,0.0005287714302539825,0.000410166714573279,0.011742024682462215,0.008458539843559265,0.011736891232430935,passive,0
0.5809,rehab,safe_near_limit_slow,78.15795538955516,-666.5979022064628,264.48309856096506,-177.67161292417225,0.3041092188467436,-149.77743231810382,0.001,0.0006,-0.0003,0.008,-0.0031,-0.0108,84.24720235390238,29.91591425225286,85.5701506964051,-27.223086886935764,-89.1083272298177,-36.06910705566406,0.05441495687654703,0.05441495687654703,0.0006390562151918316,-0.007459852430555555,-0.0,-0.0,-0.0459,-0.0863,-0.1038,-0.00627,0.00276,0.00283,0.000941441219765693,0.0010232588974758983,0.0008030119352042675,0.0006279067602008581,0.0005287714302539825,0.000410166714573279,0.011742024682462215,0.008458539843559265,0.011736891232430935,passive,0
0.6008,rehab,safe_near_limit_slow,78.15796020146414,-666.5978573597012,264.48302844158985,-177.67162519576962,0.30411750322188164,-149.7774153205641,0.001,0.0006,-0.0007,0.0058,-0.0113,0.0004,84.247195555432,29.915907453782488,85.5701506964051,-27.223095364040798,-89.10831875271268,-36.069115532769096,-0.0,-0.05441495687654703,0.018335474599706063,-0.021489461263020832,-0.0,-0.0,0.0312,-0.0013,0.1313,0.01302,-0.00886,-0.00015,0.000941441219765693,0.0010232588974758983,0.0008030119352042675,0.0006279067602008581,0.0005287714302539825,0.000410166714573279,0.011742024682462215,0.008458539843559265,0.011736891232430935,passive,0
0.6211,rehab,safe_near_limit_slow,78.15797259951873,-666.5978888761907,264.4830813136426,-177.67161464552666,0.304120026519836,-149.77740655316876,0.0009,0.0004,-0.001,-0.0001,-0.0145,0.0047,84.247195555432,29.915907453782488,85.5701506964051,-27.223086886935764,-89.1083272298177,-36.06910705566406,-0.0,-0.0,-0.013889274974860767,-0.0,-0.0,-0.0,0.0155,0.191,0.2184,0.01483,0.00479,0.00269,0.000941441219765693,0.0010232588974758983,0.0008030119352042675,0.0006279067602008581,0.0005287714302539825,0.000410166714573279,0.011742024682462215,0.008458539843559265,0.011736891232430935,passive,0
0.6409,rehab,safe_near_limit_slow,78.15803582945578,-666.5978790689607,264.48317630836124,-177.67160733238754,0.30410453637397533,-149.77740855454027,0.0009,0.0001,-0.0005,-0.0059,-0.0117,0.0031,84.24718875696163,29.91591425225286,85.57016429334584,-27.223086886935764,-89.1083272298177,-36.069115532769096,0.05441495687654703,-0.0,0.02683356256768255,0.0011444091796875,-0.0,-0.0,-0.0478,0.0361,0.728,-0.01469,-0.00085,-0.00546,0.000941441219765693,0.0010232588974758983,0.0008030119352042675,0.0006279067602008581,0.0005287714302539825,0.000410166714573279,0.011742024682462215,0.008458539843559265,0.011736891232430935,passive,0
0.6609,rehab,safe_near_limit_slow,78.15805164244782,-666.597878436781,264.48296872573354,-177.6716188564342,0.30412334853642775,-149.77740833459055,0.0004,-0.0006,0.0003,-0.0033,-0.0058,0.0061,84.24718875696163,29.91591425225286,85.57013709946435,-27.223086886935764,-89.10831875271268,-36.06909857855903,0.05441495687654703,-0.0,-0.0005438776299504951,-0.023600260416666664,0.06785074869791667,0.06785074869791667,-0.2237,-0.0088,0.1514,-0.02172,-0.00496,0.00015,0.000941441219765693,0.0010232588974758983,0.0008030119352042675,0.0006279067602008581,0.0005287714302539825,0.000410166714573279,0.011742024682462215,0.008458539843559265,0.011736891232430935,passive,0
0.6808,rehab,safe_near_limit_slow,78.15803314092561,-666.5979067961736,264.48302081356695,-177.6716183810859,0.3041128681248218,-149.77741707405036,0.0003,-0.0009,0.0008,0.0043,0.002,0.0041,84.24720235390238,29.91591425225286,85.5701506964051,-27.223095364040798,-89.10833570692274,-36.069115532769096,0.05441495687654703,-0.0,-0.018729785881420172,-0.0035349527994791665,-0.0,-0.0,-0.3158,0.0261,0.0625,-0.02362,0.01026,0.00433,0.000941441219765693,0.0010232588974758983,0.0008030119352042675,0.0006279067602008581,0.0005287714302539825,0.000410166714573279,0.011742024682462215,0.008458539843559265,0.011736891232430935,passive,0
0.7008,rehab,safe_near_limit_slow,78.15796644334367,-666.5979475865519,264.48307368562143,-177.67160778588593,0.3041150470245816,-149.77740663489953,0.0004,-0.0006,0.0004,0.0071,0.0084,-0.0033,84.24720235390238,29.915907453782488,85.5701506964051,-27.223069932725693,-89.10833570692274,-36.069115532769096,-0.0,-0.0,-0.003399235187190594,0.013063218858506944,-0.13570149739583334,-0.06785074869791667,-0.0333,-0.0302,0.1496,-0.01873,0.00063,-0.0017,0.000941441219765693,0.0010232588974758983,0.0008030119352042675,0.0006279067602008581,0.0005287714302539825,0.000410166714573279,0.011742024682462215,0.008458539843559265,0.011736891232430935,passive,0
0.7212,rehab,safe_near_limit_slow,78.15804688324938,-666.5979244490514,264.4831514330231,-177.6716023289738,0.3041113977464174,-149.77740828201195,0.0007,0.0001,-0.0007,0.0056,0.0112,-0.0082,84.24720915237276,29.915907453782488,85.57016429334584,-27.223095364040798,-89.1083272298177,-36.06910705566406,-0.0,-0.0,0.02374705701771349,-0.007425944010416666,-0.0,-0.0,-0.0615,0.0356,0.3152,-0.01425,0.00268,0.00162,0.000941441219765693,0.0010232588974758983,0.0008030119352042675,0.0006279067602008581,0.0005287714302539825,0.000410166714573279,0.011742024682462215,0.008458539843559265,0.011736891232430935,passive,0
0.7411,rehab,safe_near_limit_slow,78.15801417079193,-666.5979350352677,264.48305570032625,-177.67160963118357,0.3040956882464694,-149.77740902914135,0.0013,0.0005,-0.0005,0.004,0.0115,-0.0092,84.247195555432,29.915907453782488,85.5701506964051,-27.223095364040798,-89.10833570692274,-36.069115532769096,-0.0,-0.0,-0.04285755724009901,0.0041961669921875,-0.0,0.06785074869791667,-0.1015,-0.0975,0.4349,-0.00963,0.00369,0.00036,0.000941441219765693,0.0010232588974758983,0.0008030119352042675,0.0006279067602008581,0.0005287714302539825,0.000410166714573279,0.011742024682462215,0.008458539843559265,0.011736891232430935,passive,0
0.7609,rehab,safe_near_limit_slow,78.15811182065418,-666.5978985674926,264.4831162003987,-177.67160598554108,0.3041035354362997,-149.77740185176873,0.0016,0.0009,-0.0004,-0.0008,0.0074,-0.004,84.24720235390238,29.915907453782488,85.5701506964051,-27.223086886935764,-89.10833570692274,-36.069115532769096,-0.0,-0.0,-0.00445979656559406,-0.00040690104166666663,-0.0,-0.06785074869791667,-0.0624,-0.0016,0.1477,0.00487,0.00328,-0.00137,0.000941441219765693,0.0010232588974758983,0.0008030119352042675,0.0006279067602008581,0.0005287714302539825,0.000410166714573279,0.011742024682462215,0.008458539843559265,0.011736891232430935,passive,0
0.7813,rehab,safe_near_limit_slow,78.1581091848331,-666.5979274602098,264.48307329351263,-177.67161282333305,0.304108545171126,-149.77740179138732,0.001,0.0007,-0.0008,-0.0099,-0.0013,0.0081,84.24720235390238,29.91591425225286,85.5701506964051,-27.223078409830727,-89.10831875271268,-36.06909857855903,-0.0,-0.0,0.010374465791305692,0.010977851019965278,-0.0,-0.0,-0.0191,-0.0185,0.3449,-0.00396,0.01389,-0.00084,0.000941441219765693,0.0010232588974758983,0.0008030119352042675,0.0006279067602008581,0.0005287714302539825,0.000410166714573279,0.011742024682462215,0.008458539843559265,0.011736891232430935,passive,0
0.801,rehab,safe_near_limit_slow,78.1581324982505,-666.5978542540504,264.48295108630583,-177.67162566019084,0.3041279987549241,-149.77739299484014,0.0003,0.0002,-0.0002,-0.0172,-0.0101,0.0191,84.247195555432,29.915907453782488,85.57016429334584,-27.223078409830727,-89.1083272298177,-36.069115532769096,0.05441495687654703,-0.0,0.02626928952660891,0.012791951497395832,-0.0,-0.0,-0.0168,-0.0202,0.1006,0.00406,-0.00485,-0.00249,0.000941441219765693,0.0010232588974758983,0.0008030119352042675,0.0006279067602008581,0.0005287714302539825,0.000410166714573279,0.011742024682462215,0.008458539843559265,0.011736891232430935,passive,0
0.8211,rehab,safe_near_limit_slow,78.15821335404857,-666.5978300713075,264.4829334468802,-177.67163259882847,0.3041336821606299,-149.77740306576732,0.0002,0.0,0.0003,-0.018,-0.0124,0.015,84.24720915237276,29.91591425225286,85.5701710918162,-27.223078409830727,-89.1083272298177,-36.06910705566406,-0.0,-0.0,0.019198880337252474,0.003212822808159722,-0.0,-0.0,-0.1636,-0.1434,0.0293,-0.02521,-0.00154,-0.00222,0.000941441219765693,0.0010232588974758983,0.0008030119352042675,0.0006279067602008581,0.0005287714302539825,0.000410166714573279,0.011742024682462215,0.008458539843559265,0.011736891232430935,passive,0
0.8411,rehab,safe_near_limit_slow,78.15811358082408,-666.5978836586713,264.48309856096506,-177.67161287921502,0.3041088744487811,-149.7774102509375,-0.0001,-0.0001,0.0005,-0.0124,-0.0099,0.0048,84.24720915237276,29.915907453782488,85.57015749487546,-27.223086886935764,-89.1083272298177,-36.06910705566406,-0.0,-0.05441495687654703,-0.011292259291847153,-0.0,-0.0,-0.0,-0.1468,-0.0684,-0.1749,-0.02234,0.00965,0.00247,0.000941441219765693,0.0010232588974758983,0.0008030119352042675,0.0006279067602008581,0.0005287714302539825,0.000410166714573279,0.011742024682462215,0.008458539843559265,0.011736891232430935,passive,0
0.8611,rehab,safe_near_limit_slow,78.15809766242174,-666.597881959831,264.4830809677787,-177.67160964210834,0.3040956731261589,-149.77740221999562,-0.0005,-0.0002,0.0008,-0.0071,-0.0061,0.0014,84.24720915237276,29.915907453782488,85.57016429334584,-27.223103841145832,-89.10833570692274,-36.069115532769096,-0.05441495687654703,-0.0,0.01149621340307859,-0.0025092230902777775,-0.06785074869791667,-0.0,-0.117,-0.0064,0.1737,-0.0007,-0.0065,0.00332,0.000941441219765693,0.0010232588974758983,0.0008030119352042675,0.0006279067602008581,0.0005287714302539825,0.000410166714573279,0.011742024682462215,0.008458539843559265,0.011736891232430935,passive,0
0.8811,rehab,safe_near_limit_slow,78.15802703746311,-666.5979666720395,264.483125773462,-177.6716073554946,0.30410491101336595,-149.77741704611654,-0.0007,-0.0005,0.001,-0.006,-0.0011,-0.0056,84.24720235390238,29.91591425225286,85.57014389793471,-27.223086886935764,-89.1083272298177,-36.06910705566406,-0.0,-0.0,-0.013862081093363243,0.009850396050347222,-0.0,-0.0,-0.0872,-0.0738,0.3782,-0.01723,0.01383,-0.00349,0.000941441219765693,0.0010232588974758983,0.0008030119352042675,0.0006279067602008581,0.0005287714302539825,0.000410166714573279,0.011742024682462215,0.008458539843559265,0.011736891232430935,passive,0
0.901,rehab,safe_near_limit_slow,78.15819267645665,-666.5978743847616,264.48309856096506,-177.67161283425781,0.3041085300508119,-149.7773949822416,-0.0004,-0.0005,0.0004,-0.0054,0.0014,-0.0125,84.24721595084313,29.915907453782488,85.57015749487546,-27.223086886935764,-89.1083272298177,-36.069115532769096,-0.0,-0.0,0.024678447459003713,-0.027109781901041664,0.06785074869791667,-0.06785074869791667,-0.2365,-0.0323,0.3817,-0.01763,0.00355,0.00073,0.000941441219765693,0.0010232588974758983,0.0008030119352042675,0.0006279067602008581,0.0005287714302539825,0.000410166714573279,0.011742024682462215,0.008458539843559265,0.011736891232430935,passive,0
0.9211,rehab,safe_near_limit_slow,78.15809678677076,-666.5978959437253,264.4830204214604,-177.67162332861704,0.3041056774754325,-149.77740208855616,0.0001,-0.0,-0.0008,0.0007,0.0033,-0.0142,84.24720915237276,29.91591425225286,85.57015749487546,-27.223086886935764,-89.10833570692274,-36.069115532769096,0.05441495687654703,-0.0,0.0,0.0025346544053819445,0.06785074869791667,-0.0,-0.1883,-0.0926,0.122,-0.01829,0.01478,0.00308,0.000941441219765693,0.0010232588974758983,0.0008030119352042675,0.0006279067602008581,0.0005287714302539825,0.000410166714573279,0.011742024682462215,0.008458539843559265,0.011736891232430935,passive,0
0.941,rehab,safe_near_limit_slow,78.15812727044445,-666.5979001460406,264.48311659250743,-177.6716010380096,0.3041107260881566,-149.77741003879035,-0.0004,-0.0002,-0.0004,0.01,0.0049,-0.0117,84.24720915237276,29.915907453782488,85.57015749487546,-27.223095364040798,-89.10831875271268,-36.06910705566406,-0.0,-0.0,0.01184293539217203,-0.009604560004340278,-0.0,-0.0,-0.153,-0.0909,-0.2109,-0.03051,0.00396,0.0009,0.000941441219765693,0.0010232588974758983,0.0008030119352042675,0.0006279067602008581,0.0005287714302539825,0.000410166714573279,0.011742024682462215,0.008458539843559265,0.011736891232430935,passive,0
0.961,rehab,safe_near_limit_slow,78.15803314092561,-666.5979067961736,264.48302081356695,-177.6716183810859,0.3041128681248218,-149.77741707405036,-0.0009,-0.0001,-0.0002,0.0156,0.0061,-0.0051,84.24720235390238,29.91591425225286,85.57015749487546,-27.223086886935764,-89.1083272298177,-36.06910705566406,-0.0,-0.0,-0.018960933874149134,-0.003085666232638889,-0.0,-0.0,-0.0544,-0.0263,0.8056,-0.02281,-0.00262,-0.00612,0.000941441219765693,0.0010232588974758983,0.0008030119352042675,0.0006279067602008581,0.0005287714302539825,0.000410166714573279,0.011742024682462215,0.008458539843559265,0.011736891232430935,passive,0
0.9811,rehab,safe_near_limit_slow,78.15812463462336,-666.5979290387578,264.48307368562143,-177.6716078308441,0.30411539142329685,-149.77740150818428,-0.0004,0.0,-0.0007,0.0171,0.0061,0.0004,84.24720915237276,29.91591425225286,85.5701506964051,-27.223086886935764,-89.10831875271268,-36.069115532769096,-0.05441495687654703,-0.0,0.00018355870010829207,-0.009850396050347222,-0.0,-0.06785074869791667,-0.109,-0.0751,0.0154,-0.02264,0.01933,-0.00031,0.000941441219765693,0.0010232588974758983,0.0008030119352042675,0.0006279067602008581,0.0005287714302539825,0.000410166714573279,0.011742024682462215,0.008458539843559265,0.011736891232430935,passive,0
1.0009,rehab,safe_near_limit_slow,78.15809678677076,-666.5978959437253,264.4830204214604,-177.67162328366032,0.30410533307900794,-149.77739361833056,0.0006,0.0001,-0.0005,0.0194,0.0043,0.0032,84.24720915237276,29.91591425225286,85.57015749487546,-27.223086886935764,-89.10833570692274,-36.06912400987413,-0.0,-0.0,0.010496838258044554,-0.0090789794921875,-0.06785074869791667,-0.06785074869791667,-0.1197,0.0028,0.8243,-0.03101,0.00978,-0.00489,0.000941441219765693,0.0010232588974758983,0.0008030119352042675,0.0006279067602008581,0.0005287714302539825,0.000410166714573279,0.011742024682462215,0.008458539843559265,0.011736891232430935,passive,0
1.0209,rehab,safe_near_limit_slow,78.15801287923223,-666.597950064381,264.4830905408397,-177.67161101206065,0.3040970487026874,-149.77741741434323,0.0014,0.0003,-0.0005,0.0221,0.0052,-0.0005,84.24720235390238,29.91591425225286,85.5701506964051,-27.223095364040798,-89.10833570692274,-36.06910705566406,-0.0,0.05441495687654703,-0.034243895275758045,-0.007731119791666666,-0.0,-0.0,-0.15,0.009,0.6339,-0.01448,0.00232,-0.00241,0.000941441219765693,0.0010232588974758983,0.0008030119352042675,0.0006279067602008581,0.0005287714302539825,0.000410166714573279,0.011742024682462215,0.008458539843559265,0.011736891232430935,passive,0
1.0409,rehab,safe_near_limit_slow,78.15803008919406,-666.5979367341097,264.48307329351263,-177.6716129132475,0.3041092339670608,-149.77742553030882,0.0016,0.0002,-0.0,0.0145,0.0032,-0.0019,84.24720235390238,29.91591425225286,85.5701506964051,-27.223086886935764,-89.1083272298177,-36.06909857855903,-0.05441495687654703,0.05441495687654703,-0.0237062661954672,-0.021769205729166668,-0.0,-0.0,0.0092,-0.0008,0.0997,-0.00427,-0.0058,-0.00548,0.000941441219765693,0.0010232588974758983,0.0008030119352042675,0.0006279067602008581,0.0005287714302539825,0.000410166714573279,0.011742024682462215,0.008458539843559265,0.011736891232430935,passive,0
1.0608,rehab,safe_near_limit_slow,78.15821288543644,-666.5978299510176,264.4829162457949,-177.67162441418924,0.3041276714892626,-149.77740322184394,0.0014,0.0005,-0.0004,-0.0059,-0.0025,0.003,84.24721595084313,29.91591425225286,85.5701710918162,-27.223086886935764,-89.10831875271268,-36.06910705566406,0.05441495687654703,-0.0,0.020130270778542698,-6.781684027777778e-05,-0.06785074869791667,-0.0,-0.0773,-0.0089,0.1159,-0.00874,-0.00424,0.00024,0.000941441219765693,0.0010232588974758983,0.0008030119352042675,0.0006279067602008581,0.0005287714302539825,0.000410166714573279,0.011742024682462215,0.008458539843559265,0.011736891232430935,passive,0
1.081,rehab,safe_near_limit_slow,78.1582704278287,-666.5978789744448,264.48302081356695,-177.67161833612812,0.3041125237276659,-149.77738820841367,0.0014,0.0003,-0.0008,-0.0924,-0.0156,0.0968,84.24722274931351,29.91591425225286,85.57015749487546,-27.223086886935764,-89.1083272298177,-36.069115532769096,-0.0,-0.0,-0.0033380489538211633,-0.02960205078125,-0.0,-0.06785074869791667,-0.162,0.0098,0.2083,-0.01994,0.00155,-0.0031,0.000941441219765693,0.0010232588974758983,0.0008030119352042675,0.0006279067602008581,0.0005287714302539825,0.000410166714573279,0.011742024682462215,0.008458539843559265,0.011736891232430935,passive,0
1.1013,rehab,safe_near_limit_slow,78.15820678198575,-666.5978898269101,264.4830212056758,-177.67161334363914,0.3041193699798637,-149.77739472368168,0.0011,0.0003,-0.0005,-0.1587,-0.026,0.1582,84.24721595084313,29.91591425225286,85.57015749487546,-27.223086886935764,-89.10831875271268,-36.069115532769096,-0.0,-0.0,-0.0008090179745513614,-0.012105305989583332,-0.0,-0.0,-0.1533,0.053,0.2638,-0.0131,0.00636,0.00021,0.000941441219765693,0.0010232588974758983,0.0008030119352042675,0.0006279067602008581,0.0005287714302539825,0.000410166714573279,0.011742024682462215,0.008458539843559265,0.011736891232430935,passive,0
1.1213,rehab,safe_near_limit_slow,78.15820326164932,-666.5979196445548,264.4830564845416,-177.67159964620575,0.30410938075076505,-149.7773948657932,0.0001,0.0001,-0.0004,0.0597,0.0181,-0.2585,84.24721595084313,29.91591425225286,85.57015749487546,-27.223103841145832,-89.10831875271268,-36.069115532769096,-0.0,-0.0,-0.014691494479037748,-0.032984415690104164,0.06785074869791667,-0.06785074869791667,-0.1608,-0.041,0.5875,-0.02563,-0.00094,-0.00423,0.000941441219765693,0.0010232588974758983,0.0008030119352042675,0.0006279067602008581,0.0005287714302539825,0.000410166714573279,0.011742024682462215,0.008458539843559265,0.011736891232430935,passive,0
1.141,rehab,safe_near_limit_slow,78.15819485253269,-666.5978584307085,264.48298553471005,-177.67163207852082,0.304122857351864,-149.77740333499892,-0.0012,-0.0004,0.0,0.6263,0.1109,-0.9889,84.24721595084313,29.91591425225286,85.57015749487546,-27.223069932725693,-89.1083272298177,-36.06910705566406,-0.0,-0.0,-0.015582094098081683,0.032509697808159724,-0.0,0.06785074869791667,-0.2838,-0.0883,0.1653,-0.02568,0.00597,0.00085,0.000941441219765693,0.0010232588974758983,0.0008030119352042675,0.0006279067602008581,0.0005287714302539825,0.000410166714573279,0.011742024682462215,0.008458539843559265,0.011736891232430935,passive,0
1.1608,rehab,safe_near_limit_slow,78.15819303966056,-666.5978721740072,264.4828905862287,-177.6716293507935,0.30412049596104057,-149.77739504549473,-0.0014,-0.0002,-0.0002,1.19,0.1654,-1.1987,84.24721595084313,29.915921050723234,85.57016429334584,-27.223086886935764,-89.1083272298177,-36.069115532769096,-0.0,-0.0,0.0017268114750928218,0.008180406358506944,-0.0,-0.0,-0.1488,0.07,0.2596,-0.0159,0.00198,0.00323,0.000941441219765693,0.0010232588974758983,0.0008030119352042675,0.0006279067602008581,0.0005287714302539825,0.000410166714573279,0.011742024682462215,0.008458539843559265,0.011736891232430935,passive,0
1.1811,rehab,safe_near_limit_slow,78.15818957202696,-666.5979031571875,264.48303845299876,-177.67161148741138,0.30410752911314587,-149.77739507794033,-0.0005,0.0001,-0.0006,0.9757,0.095,-0.2713,84.24721595084313,29.91591425225286,85.57015749487546,-27.223095364040798,-89.1083272298177,-36.069115532769096,-0.05441495687654703,-0.05441495687654703,0.015765652798189974,-0.02221001519097222,-0.06785074869791667,-0.0,-0.1273,-0.0373,0.35,-0.01716,0.00704,0.00046,0.000941441219765693,0.0010232588974758983,0.0008030119352042675,0.0006279067602008581,0.0005287714302539825,0.000410166714573279,0.011742024682462215,0.008458539843559265,0.011736891232430935,passive,0
1.201,rehab,safe_near_limit_slow,78.15809983849937,-666.5978660057824,264.48296794151827,-177.67162879645485,0.30410931163633304,-149.7773936322973,0.0334,0.0054,-0.0462,-0.3977,-0.1217,1.6143,84.24720915237276,29.91591425225286,85.57016429334584,-27.223086886935764,-89.10833570692274,-36.06912400987413,-0.0,-0.0,-0.010449248965423886,0.03666347927517361,-0.06785074869791667,-0.06785074869791667,-0.1733,-0.0354,0.41,-0.02593,-0.00096,-0.0051,0.000941441219765693,0.0010232588974758983,0.0008030119352042675,0.0006279067602008581,0.0005287714302539825,0.000410166714573279,0.011742024682462215,0.008458539843559265,0.011736891232430935,passive,0
1.2212,rehab,safe_near_limit_slow,78.15819045654725,-666.5979022322446,264.48296026725257,-177.67163206759602,0.30412287247216147,-149.77740334567432,0.0714,0.0117,-0.0881,-2.3018,-0.3944,3.6514,84.24721595084313,29.915921050723234,85.5701506964051,-27.223069932725693,-89.1083272298177,-36.06910705566406,0.05441495687654703,-0.0,-0.021850283783261138,0.01339382595486111,-0.0,0.06785074869791667,-0.1972,-0.0634,0.2481,-0.01877,0.00652,0.0038,0.000941441219765693,0.0010232588974758983,0.0008030119352042675,0.0006279067602008581,0.0005287714302539825,0.000410166714573279,0.011742024682462215,0.008458539843559265,0.011736891232430935,passive,0
1.2411,rehab,safe_near_limit_slow,78.15811399673143,-666.5978826134473,264.4830031741374,-177.67162522980334,0.3041178627383355,-149.77741020452436,0.0545,0.0047,-0.0049,-3.9123,-0.5829,4.9054,84.24720915237276,29.91591425225286,85.57015749487546,-27.223078409830727,-89.1083272298177,-36.06910705566406,-0.0,-0.0,0.0,0.022905137803819444,-0.0,-0.0,-0.1849,-0.1387,0.5101,-0.02398,0.00187,-0.00278,0.000941441219765693,0.0010232588974758983,0.0008030119352042675,0.0006279067602008581,0.0005287714302539825,0.000410166714573279,0.011742024682462215,0.008458539843559265,0.011736891232430935,passive,0
1.2609,rehab,safe_near_limit_slow,78.15822352333268,-666.5978763763387,264.48298675727466,-177.67160701522852,0.30412520017404754,-149.77739452550168,-0.0748,-0.0178,0.1939,-5.8429,-0.7439,5.3475,84.24721595084313,29.91591425225286,85.57016429334584,-27.223095364040798,-89.10831027560764,-36.069115532769096,-0.05441495687654703,-0.0,-2.7193881497524753e-05,-0.009053548177083334,0.06785074869791667,-0.06785074869791667,-0.105,0.0278,0.1434,-0.01156,0.00429,0.00306,0.000941441219765693,0.0010232588974758983,0.0008030119352042675,0.0006279067602008581,0.0005287714302539825,0.000410166714573279,0.011742024682462215,0.008458539843559265,0.011736891232430935,passive,0
1.2809,rehab,safe_near_limit_slow,78.15821030232314,-666.5978600092546,264.4829859268189,-177.67162704107253,0.3041293592089985,-149.7773945815725,-0.316,-0.0485,0.4132,-8.7736,-1.0335,5.0889,84.24721595084313,29.91591425225286,85.57015749487546,-27.223069932725693,-89.10831875271268,-36.069115532769096,-0.0,-0.0,0.002563023331141708,0.026134914822048612,0.06785074869791667,-0.0,-0.0642,-0.0378,-0.4436,-0.01328,-0.00594,-0.00159,0.000941441219765693,0.0010232588974758983,0.0008030119352042675,0.0006279067602008581,0.0005287714302539825,0.000410166714573279,0.011742024682462215,0.008458539843559265,0.011736891232430935,passive,0
1.3008,rehab,safe_near_limit_slow,78.15827482380926,-666.5978351729051,264.4830460810194,-177.67161839201066,0.30411285300450946,-149.77739666796387,-0.5275,-0.0741,0.5414,8.2641,3.4101,-23.2798,84.24722274931351,29.915907453782488,85.57016429334584,-27.223086886935764,-89.1083272298177,-36.06910705566406,0.05441495687654703,-0.0,0.008260141504873144,-0.0064849853515625,-0.0,-0.0,-0.183,0.0025,0.3736,-0.017,0.00771,0.00254,0.000941441219765693,0.0010232588974758983,0.0008030119352042675,0.0006279067602008581,0.0005287714302539825,0.000410166714573279,0.011742024682462215,0.008458539843559265,0.011736891232430935,passive,0
1.3211,rehab,safe_near_limit_slow,78.1420716326536,-666.6004059832933,264.50536773474977,-177.66982533846476,0.3028245546972371,-149.77877645848534,-0.657,-0.0843,0.5437,-0.1394,1.2398,-1.9116,84.24583586135714,29.91450017041499,85.56935527537128,-27.223078409830727,-89.10831875271268,-36.06910705566406,-0.10882991375309406,-0.16324487062964108,-0.11590712141282487,-0.0006018744574652778,-0.0,0.06785074869791667,-0.1364,-0.0406,0.3166,-0.01447,-0.00474,-0.00132,0.000941441219765693,0.0010232588974758983,0.0008030119352042675,0.0006279067602008581,0.0005287714302539825,0.000410166714573279,0.011742024682462215,0.008458539843559265,0.011736891232430935,passive,0
1.3407,rehab,safe_near_limit_slow,78.12035354054716,-666.6040012752173,264.53100544578314,-177.6677481801462,0.3013197547879064,-149.780616376559,-0.8346,-0.0979,0.5282,-70.4142,-19.5109,105.3429,84.24397987894493,29.91291612681776,85.56838309410774,-27.223086886935764,-89.10831875271268,-36.069115532769096,-0.10882991375309406,-0.05441495687654703,-0.04563813162322092,-0.016208224826388888,-0.0,-0.0,-0.0875,0.0019,-0.1582,-0.0106,-0.00832,0.00442,0.000941441219765693,0.0010232588974758983,0.0008030119352042675,0.0006279067602008581,0.0005287714302539825,0.000410166714573279,0.011742024682462215,0.008458539843559265,0.011736891232430935,passive,0
1.3608,rehab,safe_near_limit_slow,78.08734781631978,-666.6071976470121,264.54756032652125,-177.66646297300056,0.30038843288660066,-149.78346173856158,-1.1637,-0.1356,0.5909,-110.3214,-30.3369,152.0781,84.24113811832844,29.911733192972616,85.56799558129642,-27.223103841145832,-89.10831875271268,-36.06910705566406,-0.16324487062964108,-0.05441495687654703,0.006886850489248144,3.390842013888889e-05,0.06785074869791667,0.06785074869791667,-0.1808,-0.0935,-0.2009,-0.0278,0.01263,0.00397,0.000941441219765693,0.0010232588974758983,0.0008030119352042675,0.0006279067602008581,0.0005287714302539825,0.000410166714573279,0.011742024682462215,0.008458539843559265,0.011736891232430935,passive,0
1.3809,rehab,safe_near_limit_slow,78.06585345841997,-666.6093514436848,264.55062082109765,-177.6662573676432,0.3002289267324348,-149.78531003619133,-1.3901,-0.1732,0.7013,-77.7696,-10.4911,91.9095,84.23928893438661,29.91148844803914,85.56795479047416,-27.223078409830727,-89.1083272298177,-36.06910705566406,-0.10882991375309406,-0.0,-0.022353370590965347,0.03149244520399305,-0.0,-0.0,-0.1764,-0.1,-0.1049,-0.01097,0.00675,-0.00315,0.000941441219765693,0.0010232588974758983,0.0008030119352042675,0.0006279067602008581,0.0005287714302539825,0.000410166714573279,0.011742024682462215,0.008458539843559265,0.011736891232430935,passive,0
1.4009,rehab,safe_near_limit_slow,78.04696603881047,-666.6113890707834,264.5520474949529,-177.6661527659388,0.3001527318869878,-149.7869259607152,-1.3933,-0.1788,1.0005,22.5494,25.5755,-84.5218,84.23766409996712,29.911372874042776,85.56794119353341,-27.223078409830727,-89.1083272298177,-36.069115532769096,-0.10882991375309406,-0.0,0.005533954884746287,-0.0007883707682291666,-0.06785074869791667,0.06785074869791667,-0.1925,-0.0947,-0.4852,-0.02352,-0.00184,0.00298,0.000941441219765693,0.0010232588974758983,0.0008030119352042675,0.0006279067602008581,0.0005287714302539825,0.000410166714573279,0.011742024682462215,0.008458539843559265,0.011736891232430935,passive,0
1.4212,rehab,safe_near_limit_slow,78.00971095089461,-666.6148899892004,264.56438838993625,-177.66520893679086,0.2994686552575692,-149.79013970953244,-10.808,-2.4778,14.8746,175.4597,61.9686,-361.6547,84.23445522195041,29.910448282071858,85.56771684401106,-27.223095364040798,-89.1083272298177,-36.06910705566406,-0.16324487062964108,-0.05441495687654703,-0.06313059589650372,-0.030339558919270832,0.06785074869791667,-0.0,-0.0937,-0.008,0.1637,-0.00936,0.00052,0.00124,0.000941441219765693,0.0010232588974758983,0.0008030119352042675,0.0006279067602008581,0.0005287714302539825,0.000410166714573279,0.011742024682462215,0.008458539843559265,0.011736891232430935,passive,0
1.4408,rehab,safe_near_limit_slow,77.93184600739342,-666.6249509949644,264.60887865798566,-177.66166229235216,0.29691002260840915,-149.79680896437273,-9.5929,-2.0964,8.6927,286.7018,80.3561,-577.3962,84.2277723255724,29.907599722984994,85.5661667927657,-27.223069932725693,-89.10831875271268,-36.06910705566406,-0.3809114966062036,-0.16324487062964108,-0.13029268472501546,0.0003475613064236111,-0.0,-0.0,-0.088,-0.1797,-0.1288,-0.01807,0.00238,-0.00362,0.000941441219765693,0.0010232588974758983,0.0008030119352042675,0.0006279067602008581,0.0005287714302539825,0.000410166714573279,0.011742024682462215,0.008458539843559265,0.011736891232430935,passive,0
1.4611,rehab,safe_near_limit_slow,77.84955391052475,-666.6351306435043,264.65889908857406,-177.65769229538063,0.29402339865567784,-149.80385825022069,4.6128,3.0644,-14.6562,325.0508,77.9191,-671.0537,84.22070871485342,29.90433645720529,85.5645215629351,-27.223069932725693,-89.1083272298177,-36.06910705566406,-0.489748208829672,-0.2176666259765625,-0.09744927434637995,-0.027058919270833332,-0.0,-0.0,-0.0534,0.007,0.3969,-0.01687,0.00095,-0.00202,0.000941441219765693,0.0010232588974758983,0.0008030119352042675,0.0006279067602008581,0.0005287714302539825,0.000410166714573279,0.011742024682462215,0.008458539843559265,0.011736891232430935,passive,0
1.4807,rehab,safe_near_limit_slow,77.75181119518199,-666.6460174481306,264.7219947422217,-177.65272579675823,0.29043506488114224,-149.81224270934172,15.1996,6.6041,-33.679,266.2085,56.9991,-575.0551,84.21230580547068,29.900073816280553,85.56266558052289,-27.223078409830727,-89.10831875271268,-36.06910705566406,-0.544163165706219,-0.2720815828531095,-0.08796540817411819,-0.027135213216145832,-0.0,-0.0,-0.0924,0.0234,0.7338,-0.00733,0.01044,0.00102,0.000941441219765693,0.0010232588974758983,0.0008030119352042675,0.0006279067602008581,0.0005287714302539825,0.000410166714573279,0.011742024682462215,0.008458539843559265,0.011736891232430935,passive,0
1.5012,rehab,safe_near_limit_slow,77.53903058383872,-666.6653826091397,264.8106284235242,-177.6459744008408,0.28552959582055143,-149.8305378642759,26.3531,7.6496,-56.3819,109.5378,20.1789,-276.4906,84.19397712934135,29.893533687780398,85.56087758281443,-27.223095364040798,-89.1083272298177,-36.069115532769096,-1.305999755859375,-0.2176666259765625,-0.028064085705445545,-0.019658406575520832,0.06785074869791667,-0.0,-0.0968,-0.0451,0.2625,-0.00985,-0.00241,0.00154,0.000941441219765693,0.0010232588974758983,0.0008030119352042675,0.0006279067602008581,0.0005287714302539825,0.000410166714573279,0.011742024682462215,0.008458539843559265,0.011736891232430935,passive,0
1.5212,rehab,safe_near_limit_slow,77.14977496470426,-666.7049609502202,264.8529921019148,-177.64285922751318,0.2833427960286964,-149.86403320453798,24.7682,6.1312,-56.7702,-210.7438,-49.3162,305.6764,84.16046746886603,29.890052870948715,85.56054445776608,-27.223086886935764,-89.10826789008246,-36.069115532769096,-2.61199951171875,-0.2176666259765625,0.03211597404857673,-0.0020429823133680555,-0.0,-0.0,-0.2002,0.1457,-0.0053,-0.02558,5e-05,0.00365,0.000941441219765693,0.0010232588974758983,0.0008030119352042675,0.0006279067602008581,0.0005287714302539825,0.000410166714573279,0.011742024682462215,0.008458539843559265,0.011736891232430935,passive,0
1.5408,rehab,safe_near_limit_slow,80.73892586022798,-665.7209243179373,258.78495332868727,-178.21606117968742,0.6985378327259467,-149.51753443308073,13.5008,3.262,-40.5792,-624.2339,-135.2167,1005.4672,84.46355007662632,30.24002452888111,85.79583951742342,-27.09928724500868,-89.10776774088542,-36.11512925889757,7.346263923267327,0.435333251953125,0.6960613892810179,-2.3702833387586804,1.0177951388888888,-13.299187554253471,-1.128,0.4769,-4.9377,-0.12001,0.048,0.02643,0.000941441219765693,0.0010232588974758983,0.0008030119352042675,0.0006279067602008581,0.0005287714302539825,0.000410166714573279,0.011742024682462215,0.008458539843559265,0.011736891232430935,passive,0
1.561,rehab,safe_near_limit_slow,79.8039740702568,-665.7875097972409,260.61757334040266,-178.1690722164776,0.66925506771602,-149.4662534682458,-3.1181,0.0812,-11.4547,-892.8056,-165.8376,1456.9378,84.38143815144454,30.12235660364132,85.68471851915416,-26.9219970703125,-89.10205417209201,-36.24601576063368,-3.5370877709719215,3.9724210229250465,-2.8106508160581685,2.1792178683810763,0.7463751898871528,-2.6462639702690973,-0.5586,-1.0465,0.2059,-0.04904,0.02278,-0.00144,0.000941441219765693,0.0010232588974758983,0.0008030119352042675,0.0006279067602008581,0.0005287714302539825,0.000410166714573279,0.011742024682462215,0.008458539843559265,0.011736891232430935,passive,0
1.5809,rehab,safe_near_limit_slow,80.2355110184028,-666.0652810758122,258.4882543110172,-178.3534791542579,0.8051583563476938,-149.3658190495833,-24.085,-2.9423,25.6054,-949.8459,-126.7672,1573.0743,84.4208284887937,30.30918536799969,85.6675931722811,-26.860860188802082,-89.10035027398003,-36.30857679578993,0.2176666259765625,-6.203509038037593,-2.652232859394338,2.4913787841796875,-0.13570149739583334,-2.4427032470703125,0.861,-1.031,5.1185,0.12375,-0.04569,-0.03708,0.000941441219765693,0.0010232588974758983,0.0008030119352042675,0.0006279067602008581,0.0005287714302539825,0.000410166714573279,0.011742024682462215,0.008458539843559265,0.011736891232430935,passive,0
1.601,rehab,safe_near_limit_slow,78.62006714645678,-666.4375253308706,261.45283024972133,-178.14465087548598,0.6499044882718699,-149.4582198392436,-45.7727,-5.8854,63.1664,-797.55,-57.7904,1307.6899,84.2837373336943,30.134063569626004,85.52711637893526,-26.804275512695312,-89.10194396972656,-36.35038587782118,-10.665685068262686,-8.869930305103264,-7.77793279968866,5.134624905056423,0.06785074869791667,-2.714114718967014,-0.1964,-0.3036,1.0966,0.0064,-0.02289,-0.00939,0.000941441219765693,0.0010232588974758983,0.0008030119352042675,0.0006279067602008581,0.0005287714302539825,0.000410166714573279,0.011742024682462215,0.008458539843559265,0.011736891232430935,passive,0
1.6212,rehab,safe_near_limit_slow,76.47541724910991,-666.6597065853567,264.3061832537475,-177.97918633716748,0.5291254207683859,-149.5723894105498,-69.9669,-9.0235,100.4725,-511.028,8.7061,783.8889,84.09881214104077,29.946956067982285,85.40626676956026,-26.699227227105034,-89.10047743055556,-36.418516370985245,-5.604924116984452,-7.89043388744392,-4.9450985747988865,4.339362250434028,0.06785074869791667,-2.9176754421657987,0.2268,-0.8413,3.6509,0.06355,-0.04508,-0.01892,0.000941441219765693,0.0010232588974758983,0.0008030119352042675,0.0006279067602008581,0.0005287714302539825,0.000410166714573279,0.011742024682462215,0.008458539843559265,0.011736891232430935,passive,0
1.6413,rehab,safe_near_limit_slow,75.49087909205596,-666.6837911041141,266.12442578481074,-177.87984386904836,0.45680282864628724,-149.60806234875085,-74.6217,-7.1281,103.5901,-223.4748,56.3984,235.895,84.01309022809019,29.820586100663288,85.33837724440168,-26.626459757486977,-89.09901936848958,-36.46702236599392,-5.496094203231358,-7.781597175220452,-3.746201921217512,4.6160888671875,-0.0,-3.121236165364583,-0.0297,-0.3404,0.5281,-0.00925,-0.012,-0.00071,0.000941441219765693,0.0010232588974758983,0.0008030119352042675,0.0006279067602008581,0.0005287714302539825,0.000410166714573279,0.011742024682462215,0.008458539843559265,0.011736891232430935,passive,0
1.6611,rehab,safe_near_limit_slow,73.95118484701511,-666.6849217528882,268.4238468416721,-177.77053268780304,0.3761509030886417,-149.66259092399474,-67.152,-1.8721,90.8299,25.0658,82.0178,-232.1338,83.87877964737392,29.65627387018487,85.25270292074373,-26.510094536675346,-89.09746805826823,-36.54485066731771,-5.604924116984452,-5.822590742961014,-2.766093641224474,5.25175306532118,0.06785074869791667,-3.2569376627604165,-0.4523,0.1323,-1.6834,-0.06764,0.00926,0.00979,0.000941441219765693,0.0010232588974758983,0.0008030119352042675,0.0006279067602008581,0.0005287714302539825,0.000410166714573279,0.011742024682462215,0.008458539843559265,0.011736891232430935,passive,0
1.6812,rehab,safe_near_limit_slow,72.93205964875793,-666.6561124930067,269.48533098398406,-177.73984867716953,0.35265902602232807,-149.69599211132083,-60.8227,0.868,76.3326,198.7234,87.612,-528.7507,83.78962450688428,29.57553523601872,85.21221123119392,-26.42594231499566,-89.09688313802083,-36.599511040581596,-5.387257491007889,-4.244502605778156,-2.5413634045289295,5.425008138020833,0.13570149739583334,-3.392647637261285,-0.7924,0.3236,-2.9317,-0.08781,0.04146,0.02292,0.000941441219765693,0.0010232588974758983,0.0008030119352042675,0.0006279067602008581,0.0005287714302539825,0.000410166714573279,0.011742024682462215,0.008458539843559265,0.011736891232430935,passive,0
1.701,rehab,safe_near_limit_slow,72.04478375006326,-666.6405227693524,270.29957983904904,-177.72857597278866,0.34540945156150343,-149.7162625389176,-51.588,1.6817,55.6945,258.2371,71.973,-596.9156,83.71177522262724,29.514872484868114,85.17295686325224,-26.337780422634548,-89.09469604492188,-36.65601094563802,-4.788672569954749,-3.5370877709719215,-2.4252047397122523,5.5653635660807295,-0.0,-3.528349134657118,-0.7724,0.4462,-2.1776,-0.09465,0.0387,0.0194,0.000941441219765693,0.0010232588974758983,0.0008030119352042675,0.0006279067602008581,0.0005287714302539825,0.000410166714573279,0.011742024682462215,0.008458539843559265,0.011736891232430935,passive,0
1.7211,rehab,safe_near_limit_slow,70.81872221767019,-666.634110742481,271.42555522052993,-177.7204327039928,0.340157506769769,-149.73380060234317,-51.1556,1.1349,51.1386,187.6057,30.2827,-434.4262,83.60435939071202,29.434317409402073,85.10986705817798,-26.201273600260414,-89.09200880262587,-36.74429151746962,-4.298924361125077,-3.428251058748453,-2.890675610835009,5.652075873480903,0.13570149739583334,-3.8676198323567705,-0.6912,0.0558,-1.7458,-0.06734,0.02445,0.02138,0.000941441219765693,0.0010232588974758983,0.0008030119352042675,0.0006279067602008581,0.0005287714302539825,0.000410166714573279,0.011742024682462215,0.008458539843559265,0.011736891232430935,passive,0
1.7409,rehab,safe_near_limit_slow,70.03063722494045,-666.6347028220722,272.2505467092219,-177.71066830267895,0.3325677118253784,-149.74099543442244,-51.5503,0.5869,48.663,66.99,-12.7155,-199.5899,83.53544329652692,29.377264646020265,85.06239333955368,-26.107372707790798,-89.09085591634114,-36.80491977267795,-4.353339318001624,-3.64592448319539,-3.0475571131942294,5.954810248480903,0.06785074869791667,-3.7319098578559027,-0.6285,-0.159,-1.0959,-0.04423,0.01907,0.01759,0.000941441219765693,0.0010232588974758983,0.0008030119352042675,0.0006279067602008581,0.0005287714302539825,0.000410166714573279,0.011742024682462215,0.008458539843559265,0.011736891232430935,passive,0
1.7612,rehab,safe_near_limit_slow,68.67501715756892,-666.6159319366872,273.7682526156796,-177.69130761941776,0.3186262945671622,-149.74760461641068,-52.0022,0.3043,49.9638,3.3027,-26.2614,-46.7539,83.41651765426786,29.271609617932008,84.97667822507348,-25.936686197916664,-89.08783806694878,-36.91521538628472,-4.353339318001624,-3.64592448319539,-3.1032365855604116,6.219414605034722,0.13570149739583334,-4.071180555555555,-0.515,-0.3142,-0.2528,-0.03391,0.01784,0.00495,0.000941441219765693,0.0010232588974758983,0.0008030119352042675,0.0006279067602008581,0.0005287714302539825,0.000410166714573279,0.011742024682462215,0.008458539843559265,0.011736891232430935,passive,0
1.7809,rehab,safe_near_limit_slow,67.87010143346703,-666.6068874763099,274.59524490948047,-177.68480118378164,0.31411292220815945,-149.7524779751754,-53.365,0.1488,52.8863,-15.1943,-17.8533,34.2487,83.34591553942992,29.214250923383354,84.92774963378906,-25.83645290798611,-89.08600701226128,-36.979777018229164,-4.6798426562016555,-3.482672814095374,-3.07567558666267,6.432232326931423,0.06785074869791667,-4.139031304253472,-0.1197,-0.2116,0.3848,-0.00573,0.0081,0.00496,0.000941441219765693,0.0010232588974758983,0.0008030119352042675,0.0006279067602008581,0.0005287714302539825,0.000410166714573279,0.011742024682462215,0.008458539843559265,0.011736891232430935,passive,0
1.8012,rehab,safe_near_limit_slow,66.59394555089419,-666.6037761432691,275.7670261148877,-177.68269619159324,0.31244184919813905,-149.7640706207465,-52.9308,0.1123,52.6215,-0.6481,-7.3308,37.7055,83.23419627576772,29.133920197439664,84.85373468682317,-25.681957668728298,-89.08372667100694,-37.07815382215712,-4.788672569954749,-3.1561694758953434,-3.2267104044999226,6.59072028266059,0.06785074869791667,-4.206882052951388,-0.3035,-0.3719,0.5589,-0.02145,-0.00403,-0.00292,0.000941441219765693,0.0010232588974758983,0.0008030119352042675,0.0006279067602008581,0.0005287714302539825,0.000410166714573279,0.011742024682462215,0.008458539843559265,0.011736891232430935,passive,0
1.8212,rehab,safe_near_limit_slow,65.73179982493203,-666.6070526544054,276.54474247744764,-177.68259602225558,0.31198403998182167,-149.7711959672829,-51.3661,0.0871,50.6412,23.7014,-1.6278,3.6787,83.15881483625657,29.08161956484955,84.80244022784846,-25.5767822265625,-89.08242967393663,-37.145233154296875,-4.6798426562016555,-3.319421144995359,-3.235099716941909,6.668006049262153,0.20355224609375,-4.206882052951388,-0.3339,-0.3391,0.1069,-0.00457,0.00766,0.00263,0.000941441219765693,0.0010232588974758983,0.0008030119352042675,0.0006279067602008581,0.0005287714302539825,0.000410166714573279,0.011742024682462215,0.008458539843559265,0.011736891232430935,passive,0
1.841,rehab,safe_near_limit_slow,64.49228147991872,-666.6112156479825,277.74655520092574,-177.6798507549915,0.31011626892078875,-149.77615208062676,-49.8281,0.0217,48.5391,25.9967,-0.3771,-12.3692,83.05030445061108,29.00207746146929,84.72217068813815,-25.417344835069443,-89.079835679796,-37.24697536892361,-4.4077542748781715,-3.428251058748453,-3.4104866556601947,6.791712443033854,0.13570149739583334,-4.139031304253472,-0.1147,-0.2776,0.1915,0.01489,0.00413,0.00194,0.000941441219765693,0.0010232588974758983,0.0008030119352042675,0.0006279067602008581,0.0005287714302539825,0.000410166714573279,0.011742024682462215,0.008458539843559265,0.011736891232430935,passive,0
1.8608,rehab,safe_near_limit_slow,63.68924681443168,-666.6126279735456,278.56599293517206,-177.67700650729637,0.30835459076756727,-149.77622929046834,-49.3834,-0.0384,48.293,23.9521,-0.1567,-24.5675,82.97994028223623,28.94843073174505,84.66691272093517,-25.309770372178818,-89.07786899142795,-37.31602986653646,-4.4077542748781715,-3.373836101871906,-3.6321303868057706,6.759406195746528,0.13570149739583334,-4.0033213297526045,-0.2689,-0.2262,1.1664,0.01134,-0.01089,0.00445,0.000941441219765693,0.0010232588974758983,0.0008030119352042675,0.0006279067602008581,0.0005287714302539825,0.000410166714573279,0.011742024682462215,0.008458539843559265,0.011736891232430935,passive,0
1.8811,rehab,safe_near_limit_slow,62.5212330510365,-666.6080492254315,279.77702245743484,-177.67517239103378,0.3069807820235651,-149.77384893383962,-50.1008,-0.0309,49.7759,6.5648,0.0588,-10.062,82.87757571380918,28.86938491670212,84.58395098695661,-25.147069295247395,-89.07539367675781,-37.41893344455295,-4.135672692025062,-3.319421144995359,-3.3706816116181932,6.550928751627604,0.06785074869791667,-4.274732801649305,-0.2093,-0.4867,1.0745,0.02057,-0.00701,-0.00142,0.000941441219765693,0.0010232588974758983,0.0008030119352042675,0.0006279067602008581,0.0005287714302539825,0.000410166714573279,0.011742024682462215,0.008458539843559265,0.011736891232430935,passive,0
1.9008,rehab,safe_near_limit_slow,61.74031278811962,-666.6059601415566,280.5715778245046,-177.6749149375567,0.3065697120747547,-149.7719075493673,-50.3284,-0.0099,50.3093,-17.153,0.4003,13.7412,82.80917630337252,28.81794768984955,84.52846867023128,-25.03859625922309,-89.07391018337674,-37.48805575900607,-4.462176030225093,-3.319421144995359,-3.4543027972230815,6.727752685546875,0.06785074869791667,-4.206882052951388,-0.1288,-0.2767,0.6881,0.03723,-0.01589,0.00037,0.000941441219765693,0.0010232588974758983,0.0008030119352042675,0.0006279067602008581,0.0005287714302539825,0.000410166714573279,0.011742024682462215,0.008458539843559265,0.011736891232430935,passive,0
1.9211,rehab,safe_near_limit_slow,60.93486160319061,-666.6016733226527,281.3670365366474,-177.67445006384938,0.30637283859703496,-149.77222702755844,-50.561,0.0172,50.2009,-20.1574,0.7974,12.8468,82.73857418853457,28.766170539478264,84.47342825408029,-24.93025885687934,-89.07212999131944,-37.55711025661892,-4.353339318001624,-3.1561694758953434,-3.54808769603767,6.781107584635416,0.06785074869791667,-4.206882052951388,-0.1764,-0.2919,0.4773,0.04098,-0.00873,0.01101,0.000941441219765693,0.0010232588974758983,0.0008030119352042675,0.0006279067602008581,0.0005287714302539825,0.000410166714573279,0.011742024682462215,0.008458539843559265,0.011736891232430935,passive,0
1.9408,rehab,safe_near_limit_slow,59.44936538843126,-666.6072407738593,282.77688948107675,-177.67171721461497,0.3040412360429332,-149.77904346352858,-50.6339,0.0366,49.6607,-4.2268,0.8002,-12.1114,82.60863502426903,28.67585286055461,84.37459209177753,-24.741168551974827,-89.06941731770833,-37.67809549967448,-4.8430875268312965,-3.2650061881188117,-3.606065051390393,6.709162394205729,0.13570149739583334,-4.410442776150173,-0.2609,-0.2294,0.9859,0.01994,-0.01501,0.00881,0.000941441219765693,0.0010232588974758983,0.0008030119352042675,0.0006279067602008581,0.0005287714302539825,0.000410166714573279,0.011742024682462215,0.008458539843559265,0.011736891232430935,passive,0
1.9611,rehab,safe_near_limit_slow,58.61063831150857,-666.6121050279099,283.576738482623,-177.66987960505662,0.30249480816913565,-149.78250032974148,-50.6847,0.044,48.9906,19.4681,0.2545,-47.6511,82.5352931258702,28.625258644028467,84.31764810392173,-24.63402642144097,-89.06787448459201,-37.74676852756076,-4.516590987101639,-3.1561694758953434,-3.528079797725866,6.575554741753472,0.06785074869791667,-4.342592027452257,-0.2976,-0.1651,1.0722,0.00519,-0.01804,0.00141,0.000941441219765693,0.0010232588974758983,0.0008030119352042675,0.0006279067602008581,0.0005287714302539825,0.000410166714573279,0.011742024682462215,0.008458539843559265,0.011736891232430935,passive,0
1.9808,rehab,safe_near_limit_slow,57.43708393785843,-666.60966678169,284.7384916095419,-177.66902038959827,0.3020039717950292,-149.78034351829217,-51.6302,0.0505,49.3,33.3807,-0.3491,-71.0178,82.43247985839844,28.551875954807393,84.23389094890935,-24.47485182020399,-89.06525505913628,-37.849934895833336,-4.298924361125077,-2.938502849918781,-3.35643201771349,6.591542561848958,0.13570149739583334,-4.206882052951388,-0.4825,-0.0956,1.0941,0.00603,-0.01204,0.00509,0.000941441219765693,0.0010232588974758983,0.0008030119352042675,0.0006279067602008581,0.0005287714302539825,0.000410166714573279,0.011742024682462215,0.008458539843559265,0.011736891232430935,passive,0
2.001,rehab,safe_near_limit_slow,56.68980261659196,-666.6062753435274,285.472404013175,-177.67043795907892,0.30334936161901516,-149.7758291228251,-50.051,0.0282,47.361,32.7052,-0.7102,-78.2066,82.36695620093015,28.505836713432085,84.17953717826616,-24.370498657226562,-89.06339857313368,-37.91879442003038,-4.026835979801594,-2.7752511808187657,-3.335832652479115,6.46608140733507,0.06785074869791667,-4.342592027452257,-0.4972,-0.2035,0.8243,0.01669,-0.02574,0.01147,0.000941441219765693,0.0010232588974758983,0.0008030119352042675,0.0006279067602008581,0.0005287714302539825,0.000410166714573279,0.011742024682462215,0.008458539843559265,0.011736891232430935,passive,0
2.0212,rehab,safe_near_limit_slow,55.54801585854088,-666.6007414873438,286.53653842913906,-177.674083108921,0.3061594367224394,-149.77057049253082,-48.0097,-0.0004,44.4372,26.4638,-0.8621,-82.0083,82.26690991090075,28.439068935885288,84.10011744735264,-24.21667310926649,-89.0609147813585,-38.022376166449654,-4.244502605778156,-2.61199951171875,-3.3205904818997523,6.268335978190104,0.06785074869791667,-4.546152750651042,-0.764,-0.1931,1.1744,0.00504,-0.01496,0.01485,0.000941441219765693,0.0010232588974758983,0.0008030119352042675,0.0006279067602008581,0.0005287714302539825,0.000410166714573279,0.011742024682462215,0.008458539843559265,0.011736891232430935,passive,0
2.0409,rehab,safe_near_limit_slow,54.76032688930831,-666.5994975863593,287.24576361267043,-177.6750598192813,0.3067706642091724,-149.76968480536826,-47.4654,-0.0157,42.6498,14.374,-0.7108,-82.3939,82.19796662283416,28.394702118222074,84.04770124076616,-24.116728040907116,-89.05937194824219,-38.09108310275607,-4.516590987101639,-2.938502849918781,-3.2012025436552443,6.148783365885416,0.06785074869791667,-4.274732801649305,-0.6342,-0.1757,0.8234,0.02156,-0.02068,0.01675,0.000941441219765693,0.0010232588974758983,0.0008030119352042675,0.0006279067602008581,0.0005287714302539825,0.000410166714573279,0.011742024682462215,0.008458539843559265,0.011736891232430935,passive,0
2.0609,rehab,safe_near_limit_slow,53.54061443820658,-666.6021723260873,288.32471712653154,-177.67219412535576,0.30449390666408693,-149.77213055453345,-47.2951,-0.0364,40.7928,-3.7313,-0.4424,-79.4572,82.09128502571937,28.327431253867573,83.96961401004603,-23.972015380859375,-89.05690511067708,-38.193673027886284,-4.462176030225093,-2.8296661376953125,-3.259003138778233,5.870658026801215,0.13570149739583334,-4.206882052951388,-0.656,-0.2576,1.4423,0.01284,-0.01383,0.00473,0.000941441219765693,0.0010232588974758983,0.0008030119352042675,0.0006279067602008581,0.0005287714302539825,0.000410166714573279,0.011742024682462215,0.008458539843559265,0.011736891232430935,passive,0
2.0813,rehab,safe_near_limit_slow,52.70208238651901,-666.6083325863224,289.02930772010643,-177.6693507315393,0.3022609253481923,-149.775500561154,-48.6729,-0.0351,40.1366,-26.0363,-0.2842,-73.4239,82.01801791049466,28.283825864886293,83.91855069906404,-23.878936767578125,-89.05521816677518,-38.26250712076823,-4.571005943978187,-2.7208362239422184,-3.195491828540764,5.724995930989583,0.20355224609375,-4.342592027452257,-0.5085,-0.0879,1.7721,0.01566,-0.00483,0.01032,0.000941441219765693,0.0010232588974758983,0.0008030119352042675,0.0006279067602008581,0.0005287714302539825,0.000410166714573279,0.011742024682462215,0.008458539843559265,0.011736891232430935,passive,0
2.101,rehab,safe_near_limit_slow,51.87109428120338,-666.6142869393468,289.69631218352714,-177.66778219186565,0.30100070741242557,-149.7782671992403,-49.7495,-0.0346,39.2717,-41.3434,-0.3145,-68.336,81.94541704536664,28.242613537476796,83.86958131695738,-23.78874037000868,-89.0535396999783,-38.33131578233507,-4.353339318001624,-2.448754641089109,-2.910894261728419,5.5714670817057295,0.20355224609375,-4.342592027452257,-0.5501,-0.0606,0.7352,0.01728,-0.0066,0.00913,0.000941441219765693,0.0010232588974758983,0.0008030119352042675,0.0006279067602008581,0.0005287714302539825,0.000410166714573279,0.011742024682462215,0.008458539843559265,0.011736891232430935,passive,0
2.1211,rehab,safe_near_limit_slow,50.67953985109981,-666.6110813363176,290.6063196354421,-177.6697103283273,0.3025670478541715,-149.77727313707825,-50.3527,-0.0277,37.7758,-45.1624,-0.5699,-71.0164,81.84114210676438,28.185418006217127,83.802385235777,-23.658803304036457,-89.05092027452257,-38.435117933485245,-4.244502605778156,-2.2310880151125465,-2.5939223789932706,5.107930501302083,0.06785074869791667,-4.342592027452257,-0.6527,-0.3131,0.9646,-0.00222,-0.01542,0.01107,0.000941441219765693,0.0010232588974758983,0.0008030119352042675,0.0006279067602008581,0.0005287714302539825,0.000410166714573279,0.011742024682462215,0.008458539843559265,0.011736891232430935,passive,0
2.1408,rehab,safe_near_limit_slow,49.91762303030879,-666.6054259160264,291.1744665881251,-177.67136736526743,0.30401957664539125,-149.77404872394519,-51.3342,-0.0224,36.2591,-42.4426,-0.6604,-76.1105,81.77440152309909,28.149406508644027,83.76066302308942,-23.576829698350693,-89.04908074273003,-38.50415547688802,-4.135672692025062,-2.2310880151125465,-2.532919704323948,5.12788560655382,0.13570149739583334,-4.139031304253472,-0.5334,-0.3402,1.5081,0.00728,-0.01579,0.00211,0.000941441219765693,0.0010232588974758983,0.0008030119352042675,0.0006279067602008581,0.0005287714302539825,0.000410166714573279,0.011742024682462215,0.008458539843559265,0.011736891232430935,passive,0
2.1607,rehab,safe_near_limit_slow,48.55811255515912,-666.6021805717326,292.12466336944783,-177.67241912807427,0.3049067028306807,-149.7706524307328,-51.6767,-0.0542,34.1315,-25.8753,-0.1947,-83.1917,81.65546908236966,28.08937601523824,83.69137301303373,-23.44256083170573,-89.04599507649739,-38.624962700737846,-4.4077542748781715,-2.176666259765625,-2.3861271320003095,4.699961344401042,0.13570149739583334,-4.139031304253472,-0.4908,-0.4096,1.3099,0.01425,-0.01873,0.00587,0.000941441219765693,0.0010232588974758983,0.0008030119352042675,0.0006279067602008581,0.0005287714302539825,0.000410166714573279,0.011742024682462215,0.008458539843559265,0.011736891232430935,passive,0
2.181,rehab,safe_near_limit_slow,47.75075547137913,-666.6057005207523,292.64552557900913,-177.67213751131084,0.30466567542114115,-149.77127993081248,-51.441,-0.0801,32.0955,0.0909,0.7992,-88.5126,81.5849485491762,28.05670936508934,83.65339675752243,-23.370242648654514,-89.04425726996527,-38.69403415256076,-4.4077542748781715,-2.0134145906656093,-2.360775635974242,4.50408935546875,0.20355224609375,-4.206882052951388,-0.8251,-0.5308,0.5284,-0.00197,0.00141,0.00816,0.000941441219765693,0.0010232588974758983,0.0008030119352042675,0.0006279067602008581,0.0005287714302539825,0.000410166714573279,0.011742024682462215,0.008458539843559265,0.011736891232430935,passive,0
2.202,rehab,safe_near_limit_slow,46.51089694374182,-666.612527151209,293.3895785055277,-177.67120229901784,0.30374585772619345,-149.77415092986428,-52.1239,-0.0839,30.5627,21.8652,1.8665,-91.1972,81.47672369928644,28.009772725624615,83.59982481097231,-23.26794942220052,-89.04173109266493,-38.798226250542534,-4.571005943978187,-1.9589996337890625,-2.1276832807182084,4.062127007378472,0.13570149739583334,-4.410442776150173,-0.7485,-0.5335,0.4431,-0.01452,0.00153,0.01498,0.000941441219765693,0.0010232588974758983,0.0008030119352042675,0.0006279067602008581,0.0005287714302539825,0.000410166714573279,0.011742024682462215,0.008458539843559265,0.011736891232430935,passive,0
2.221,rehab,safe_near_limit_slow,45.67285504531664,-666.6153913366117,293.8537397135807,-177.67105641052595,0.303575558675257,-149.77761465437214,-52.5727,-0.0489,29.5334,32.3925,2.2111,-87.4474,81.40356535958772,27.98004981314782,83.56687262506769,-23.203447129991318,-89.04000176323784,-38.8671875,-4.625420900854734,-1.9045846769125154,-1.9494001936204362,3.92425537109375,0.06785074869791667,-4.410442776150173,-0.7375,-0.4337,-0.1739,-0.00223,-0.00115,0.01838,0.000941441219765693,0.0010232588974758983,0.0008030119352042675,0.0006279067602008581,0.0005287714302539825,0.000410166714573279,0.011742024682462215,0.008458539843559265,0.011736891232430935,passive,0
2.2411,rehab,safe_near_limit_slow,44.42384845145829,-666.6197347104552,294.49823133523745,-177.67230911441226,0.3046825749684707,-149.78170075873234,-51.2557,0.0461,27.5844,31.1672,1.9146,-75.1705,81.29452469325301,27.93866752397896,83.52052065405515,-23.110953436957466,-89.03724670410156,-38.97109137641059,-4.4077542748781715,-1.686918050935953,-1.879287568649443,3.749906751844618,0.20355224609375,-4.410442776150173,-0.7562,-0.6409,-0.4443,-0.01306,-0.00101,0.01269,0.000941441219765693,0.0010232588974758983,0.0008030119352042675,0.0006279067602008581,0.0005287714302539825,0.000410166714573279,0.011742024682462215,0.008458539843559265,0.011736891232430935,passive,0
2.2608,rehab,safe_near_limit_slow,43.63039841068674,-666.6170576481761,294.9196212105134,-177.67237435090686,0.30483877860871905,-149.7813396386528,-49.0382,0.152,25.621,20.9205,1.0839,-63.0762,81.22517349696395,27.911208502136834,83.49119205286007,-23.051961263020832,-89.03538174099393,-39.04012891981337,-4.298924361125077,-1.686918050935953,-1.7918660381052753,3.601676093207465,0.13570149739583334,-4.274732801649305,-0.8651,-0.6519,-0.0149,-0.00357,-0.01092,0.01332,0.000941441219765693,0.0010232588974758983,0.0008030119352042675,0.0006279067602008581,0.0005287714302539825,0.000410166714573279,0.011742024682462215,0.008458539843559265,0.011736891232430935,passive,0
2.2811,rehab,safe_near_limit_slow,42.47729929146401,-666.6059879607631,295.54330033031107,-177.67150573955573,0.30419311243267344,-149.77708734451625,-48.107,0.183,24.3079,18.1892,-0.213,-54.9025,81.12429779354889,27.86998937625696,83.44916390900565,-22.966690063476562,-89.03263515896268,-39.144278632269966,-4.135672692025062,-1.7413330078125,-1.7375802521658417,3.44832526312934,0.13570149739583334,-4.342592027452257,-0.8008,-0.6184,0.6788,-0.0038,-0.01254,0.01136,0.000941441219765693,0.0010232588974758983,0.0008030119352042675,0.0006279067602008581,0.0005287714302539825,0.000410166714573279,0.011742024682462215,0.008458539843559265,0.011736891232430935,passive,0
2.3011,rehab,safe_near_limit_slow,41.70329498904504,-666.5995490248251,295.95170079582243,-177.67045052657483,0.30328667092850997,-149.77512500017792,-48.9554,0.1064,23.6224,16.3796,-1.2643,-45.9375,81.05662581944229,27.84306743357441,83.42177287186726,-22.911707560221355,-89.03088039822049,-39.2132822672526,-4.244502605778156,-1.6325030940594059,-1.699563205832302,3.35524664984809,0.13570149739583334,-4.274732801649305,-1.043,-0.5342,0.1607,-0.00441,-0.00401,0.01834,0.000941441219765693,0.0010232588974758983,0.0008030119352042675,0.0006279067602008581,0.0005287714302539825,0.000410166714573279,0.011742024682462215,0.008458539843559265,0.011736891232430935,passive,0
2.3211,rehab,safe_near_limit_slow,40.50520159402147,-666.597678429087,296.534941713213,-177.66935097662102,0.302416757221958,-149.7756665760129,-49.8284,0.0187,23.218,-4.31,-1.7325,-24.9185,80.95201095732132,27.805193155118733,83.38149193489906,-22.83187018500434,-89.0281762017144,-39.316440158420136,-4.4077542748781715,-1.5236663818359375,-1.6167306427908417,3.221011691623264,0.06785074869791667,-4.274732801649305,-1.0779,-0.4466,0.7564,-0.01409,0.00619,0.01429,0.000941441219765693,0.0010232588974758983,0.0008030119352042675,0.0006279067602008581,0.0005287714302539825,0.000410166714573279,0.011742024682462215,0.008458539843559265,0.011736891232430935,passive,0
2.3408,rehab,safe_near_limit_slow,39.68390426506283,-666.5990276307733,296.8957055920338,-177.67022915275234,0.3030774477173913,-149.77730422223803,-50.386,-0.0398,22.9091,-24.4489,-1.3701,-2.6281,80.88036187804572,27.781915192556852,83.35558296430229,-22.77950710720486,-89.02641296386719,-39.38585917154948,-4.4077542748781715,-1.360414712735922,-1.615581701297571,3.2650163438585067,0.06785074869791667,-4.342592027452257,-0.8296,-0.4422,0.8819,-0.00942,-0.00871,0.01336,0.000941441219765693,0.0010232588974758983,0.0008030119352042675,0.0006279067602008581,0.0005287714302539825,0.000410166714573279,0.011742024682462215,0.008458539843559265,0.011736891232430935,passive,0
2.3607,rehab,safe_near_limit_slow,38.84750779216219,-666.6042257172422,297.23948593903856,-177.67195695363722,0.3044801475481573,-149.78037107141907,-50.2557,-0.0614,22.6475,-26.1913,-0.01,10.8383,80.80746188022123,27.76013969194771,83.32979636617226,-22.72764417860243,-89.02462429470486,-39.455108642578125,-4.571005943978187,-1.4148296696124691,-1.5814873723700495,3.2459598117404513,0.06785074869791667,-4.342592027452257,-0.9064,-0.5796,0.7569,-0.00474,-0.01398,0.01583,0.000941441219765693,0.0010232588974758983,0.0008030119352042675,0.0006279067602008581,0.0005287714302539825,0.000410166714573279,0.011742024682462215,0.008458539843559265,0.011736891232430935,passive,0
2.3808,rehab,safe_near_limit_slow,37.416249076903775,-666.6143181012709,297.8520768211671,-177.6738575963015,0.30605877972124945,-149.78266184423725,-48.9158,-0.023,22.3176,-12.1216,1.6598,14.3832,80.68273714273283,27.722102250203047,83.28319285175589,-22.636888292100693,-89.02147081163194,-39.576517740885414,-4.298924361125077,-1.360414712735922,-1.7107738834796566,3.200437757703993,0.13570149739583334,-4.342592027452257,-0.9803,-0.7673,0.3709,0.00399,-0.0153,0.01685,0.000941441219765693,0.0010232588974758983,0.0008030119352042675,0.0006279067602008581,0.0005287714302539825,0.000410166714573279,0.011742024682462215,0.008458539843559265,0.011736891232430935,passive,0
2.4019,rehab,safe_near_limit_slow,36.637633558642165,-666.6124318620007,298.21147372663035,-177.67445030984797,0.30664984595385836,-149.78113836869778,-50.3232,0.0671,23.4728,2.6332,2.7246,11.9888,80.61476603592976,27.69936136680074,83.25678079435141,-22.584830390082466,-89.01961432562933,-39.645419650607636,-4.244502605778156,-1.5236663818359375,-1.7195643056737315,3.1572638617621527,0.13570149739583334,-4.206882052951388,-1.1689,-0.766,0.4925,-0.00554,-0.01207,0.01913,0.000941441219765693,0.0010232588974758983,0.0008030119352042675,0.0006279067602008581,0.0005287714302539825,0.000410166714573279,0.011742024682462215,0.008458539843559265,0.011736891232430935,passive,0
2.421,rehab,safe_near_limit_slow,35.49532906000283,-666.6035163598357,298.7915145242844,-177.67259507055823,0.3051605490306145,-149.7761516123858,-51.4591,0.1345,24.3379,8.0296,2.446,7.0459,80.51497128930423,27.662534052782718,83.21576562258277,-22.506239149305554,-89.01690165201823,-39.749298095703125,-4.135672692025062,-1.5236663818359375,-1.697904379060953,3.333180745442708,0.06785074869791667,-4.342592027452257,-1.218,-0.6883,0.4957,0.00216,-0.01101,0.02178,0.000941441219765693,0.0010232588974758983,0.0008030119352042675,0.0006279067602008581,0.0005287714302539825,0.000410166714573279,0.011742024682462215,0.008458539843559265,0.011736891232430935,passive,0
2.4412,rehab,safe_near_limit_slow,34.72138302791917,-666.5955911961199,299.1871051971555,-177.67102376089866,0.3037532119844066,-149.77362752851428,-50.8177,0.1832,24.2651,9.8545,1.1439,-0.8908,80.447360501431,27.63735251851601,83.18808904968866,-22.453392876519096,-89.01518927680121,-39.818827311197914,-4.298924361125077,-1.6325030940594059,-1.720754037989248,3.348091973198785,0.06785074869791667,-4.410442776150173,-1.1433,-0.6834,0.2791,0.00312,-0.00405,0.02668,0.000941441219765693,0.0010232588974758983,0.0008030119352042675,0.0006279067602008581,0.0005287714302539825,0.000410166714573279,0.011742024682462215,0.008458539843559265,0.011736891232430935,passive,0
2.461,rehab,safe_near_limit_slow,33.529412108955846,-666.5911342427823,299.7702049824118,-177.669137596215,0.3020056415240438,-149.77230164700958,-50.1661,0.2092,23.891,8.4895,-0.3792,-8.2968,80.34337789705484,27.601198253065053,83.14555781902654,-22.37412346733941,-89.01263766818576,-39.92323133680556,-4.353339318001624,-1.4148296696124691,-1.7677246698058477,3.310597737630208,0.06785074869791667,-4.47829352484809,-1.0589,-0.6407,0.1206,-0.00409,-0.00426,0.02171,0.000941441219765693,0.0010232588974758983,0.0008030119352042675,0.0006279067602008581,0.0005287714302539825,0.000410166714573279,0.011742024682462215,0.008458539843559265,0.011736891232430935,passive,0
2.4811,rehab,safe_near_limit_slow,32.71403935264114,-666.5924266190412,300.14037775840643,-177.66912518483815,0.30200474169583524,-149.77372865576376,-49.0013,0.171,23.0162,16.2067,-1.8491,-17.9012,80.2723202847018,27.57880409165184,83.11707222815788,-22.3211669921875,-89.01085747612846,-39.992260403103295,-4.353339318001624,-1.4148296696124691,-1.7673235600537593,3.2738664415147567,0.13570149739583334,-4.206882052951388,-1.2163,-0.7857,0.0767,-0.01366,-0.00119,0.02148,0.000941441219765693,0.0010232588974758983,0.0008030119352042675,0.0006279067602008581,0.0005287714302539825,0.000410166714573279,0.011742024682462215,0.008458539843559265,0.011736891232430935,passive,0
2.5008,rehab,safe_near_limit_slow,31.490752944557382,-666.5905455788412,300.6704329483486,-177.67112945995115,0.30372453008432565,-149.77587235590005,-49.1283,0.0835,22.6481,20.4145,-2.7412,-21.0771,80.1656726799389,27.546552148195776,83.07559476040377,-22.24166022406684,-89.00817023383246,-40.09586758083767,-4.353339318001624,-1.305999755859375,-1.8021997130743348,3.3039262559678817,0.13570149739583334,-4.274732801649305,-1.0936,-0.8075,-0.0551,-0.0132,-0.00742,0.01783,0.000941441219765693,0.0010232588974758983,0.0008030119352042675,0.0006279067602008581,0.0005287714302539825,0.000410166714573279,0.011742024682462215,0.008458539843559265,0.011736891232430935,passive,0
2.5208,rehab,safe_near_limit_slow,30.68753550859677,-666.5929151345204,301.0322239696076,-177.67163081881128,0.30412492263756385,-149.7761921875678,-49.0598,-0.0026,22.3659,2.8806,-2.9928,-10.7599,80.09571641978651,27.52526613745359,83.04656529190517,-22.188610500759548,-89.00642395019531,-40.16490512424045,-4.353339318001624,-1.360414712735922,-1.7892078361888923,3.3692423502604165,0.13570149739583334,-4.206882052951388,-1.3188,-0.8194,-0.4983,0.00113,0.00039,0.02289,0.000941441219765693,0.0010232588974758983,0.0008030119352042675,0.0006279067602008581,0.0005287714302539825,0.000410166714573279,0.011742024682462215,0.008458539843559265,0.011736891232430935,passive,0
2.5409,rehab,safe_near_limit_slow,29.501274006406106,-666.5881432410715,301.5859887839623,-177.67177086271371,0.3042348143226946,-149.774179187031,-49.3484,-0.0465,22.4321,-14.761,-2.5835,1.859,79.9922776930403,27.492055609674736,83.00344259432046,-22.10892571343316,-89.0037621392144,-40.26945326063368,-4.244502605778156,-1.360414712735922,-1.8521004856222927,3.306910196940104,0.13570149739583334,-4.274732801649305,-1.3222,-0.8402,-0.3741,-0.00206,-0.00809,0.02443,0.000941441219765693,0.0010232588974758983,0.0008030119352042675,0.0006279067602008581,0.0005287714302539825,0.000410166714573279,0.011742024682462215,0.008458539843559265,0.011736891232430935,passive,0
2.5609,rehab,safe_near_limit_slow,28.715140115037055,-666.5881054090705,301.95728021953016,-177.6715900107358,0.3042042343670102,-149.77335739629933,-49.776,-0.0702,22.655,-26.6401,-1.3932,12.9713,79.92377630554803,27.470409280002706,82.97366529408067,-22.055570814344616,-89.00192260742188,-40.338168674045136,-4.353339318001624,-1.305999755859375,-1.8526307663114945,3.3784908718532987,0.13570149739583334,-4.274732801649305,-1.2168,-0.8022,0.0312,-0.00692,0.00175,0.01452,0.000941441219765693,0.0010232588974758983,0.0008030119352042675,0.0006279067602008581,0.0005287714302539825,0.000410166714573279,0.011742024682462215,0.008458539843559265,0.011736891232430935,passive,0
2.5809,rehab,safe_near_limit_slow,27.923468119298825,-666.5875878454945,302.3370743039339,-177.67118085888083,0.30382024209222586,-149.77334242463456,-49.5497,-0.0877,22.7191,-32.4443,0.1406,20.3905,79.8548194205407,27.448389034460085,82.94318095292195,-22.001546223958332,-89.00021870930989,-40.406528049045136,-4.190087648901609,-1.360414712735922,-1.9080994860960705,3.489549424913194,0.06785074869791667,-4.206882052951388,-1.4139,-0.8215,0.0128,-0.01638,0.00978,0.01938,0.000941441219765693,0.0010232588974758983,0.0008030119352042675,0.0006279067602008581,0.0005287714302539825,0.000410166714573279,0.011742024682462215,0.008458539843559265,0.011736891232430935,passive,0
2.6014,rehab,safe_near_limit_slow,26.502627986198025,-666.5959630362753,302.97519198343684,-177.67208403006083,0.30451315188130745,-149.77582022321513,-50.751,-0.0898,23.3861,-23.0112,1.3624,18.9948,79.73125042301594,27.412771848168703,82.88899714403813,-21.906950208875866,-88.9972432454427,-40.52655537923177,-4.462176030225093,-1.305999755859375,-1.9857312193011294,3.407279120551215,0.06785074869791667,-4.274732801649305,-1.2313,-0.9617,-0.4836,-0.01009,-0.00413,0.02166,0.000941441219765693,0.0010232588974758983,0.0008030119352042675,0.0006279067602008581,0.0005287714302539825,0.000410166714573279,0.011742024682462215,0.008458539843559265,0.011736891232430935,passive,0
2.6209,rehab,safe_near_limit_slow,25.685875683410863,-666.5983649562438,303.3392261303299,-177.67272546060164,0.3050610945434804,-149.7770689160716,-51.7912,-0.0602,23.9839,-7.2161,1.7523,12.6966,79.6601928106629,27.392369638575186,82.85815248394957,-21.852747599283855,-88.99549696180556,-40.59575398763021,-4.298924361125077,-1.251584798982828,-1.8917491648456837,3.407151963975694,0.06785074869791667,-4.342592027452257,-1.4558,-0.9491,-0.4486,-0.02293,-0.00043,0.02587,0.000941441219765693,0.0010232588974758983,0.0008030119352042675,0.0006279067602008581,0.0005287714302539825,0.000410166714573279,0.011742024682462215,0.008458539843559265,0.011736891232430935,passive,0
2.6409,rehab,safe_near_limit_slow,24.473307450020148,-666.5986161021526,303.8842089775436,-177.67406442504824,0.3062447242394602,-149.77800545225242,-51.5597,0.007,24.0802,6.9379,1.5564,6.529,79.55466015504138,27.36182411118309,82.8118073114074,-21.77090115017361,-88.99286058213976,-40.69942898220486,-4.4077542748781715,-1.251584798982828,-2.036624568523747,3.44315422905816,0.06785074869791667,-4.206882052951388,-1.3727,-1.027,-0.506,-0.01434,0.00367,0.02057,0.000941441219765693,0.0010232588974758983,0.0008030119352042675,0.0006279067602008581,0.0005287714302539825,0.000410166714573279,0.011742024682462215,0.008458539843559265,0.011736891232430935,passive,0
2.6608,rehab,safe_near_limit_slow,23.672339689228604,-666.5981022432566,304.26823729906425,-177.67334889154355,0.3056428032502788,-149.77819714312437,-51.9959,0.0649,24.4777,15.9607,1.1029,2.5319,79.48495543829286,27.340388534092668,82.77984090370707,-21.716325547960068,-88.99112277560764,-40.768322414822045,-4.244502605778156,-1.4148296696124691,-2.04356580677599,3.353780110677083,0.13570149739583334,-4.206882052951388,-1.299,-0.9058,-0.1456,-0.01238,0.00113,0.01816,0.000941441219765693,0.0010232588974758983,0.0008030119352042675,0.0006279067602008581,0.0005287714302539825,0.000410166714573279,0.011742024682462215,0.008458539843559265,0.011736891232430935,passive,0
2.6807,rehab,safe_near_limit_slow,22.46967675873358,-666.5937235046168,304.8564887524189,-177.67188753679116,0.3043890813906167,-149.7785656794119,-50.691,0.0876,24.1125,24.1241,0.4355,-1.4984,79.38025899452738,27.30744994512879,82.73125223594137,-21.633555094401043,-88.98852878146701,-40.87170918782552,-4.353339318001624,-1.305999755859375,-2.046224008692373,3.415951199001736,0.13570149739583334,-4.342592027452257,-1.2166,-0.7848,-0.0332,0.00216,-0.00101,0.01756,0.000941441219765693,0.0010232588974758983,0.0008030119352042675,0.0006279067602008581,0.0005287714302539825,0.000410166714573279,0.011742024682462215,0.008458539843559265,0.011736891232430935,passive,0
2.7009,rehab,safe_near_limit_slow,21.67796516649722,-666.5910476887192,305.2472802638625,-177.67115545103886,0.30381826632836656,-149.77787932799666,-48.7399,0.0601,23.3608,31.0803,-0.3859,-5.8504,79.31134290034228,27.28588519710125,82.69835443779974,-21.57790289984809,-88.98675706651476,-40.94067891438802,-4.4077542748781715,-1.360414712735922,-2.0936569364944306,3.4763420952690973,0.06785074869791667,-4.071180555555555,-1.4011,-0.8706,-0.3882,-0.00665,0.00155,0.02487,0.000941441219765693,0.0010232588974758983,0.0008030119352042675,0.0006279067602008581,0.0005287714302539825,0.000410166714573279,0.011742024682462215,0.008458539843559265,0.011736891232430935,passive,0
2.7211,rehab,safe_near_limit_slow,20.48232625568843,-666.5857180414345,305.8209738557255,-177.6713389641389,0.3039784540779625,-149.77684443911292,-49.0105,0.0132,23.6515,26.5004,-1.1675,-6.1372,79.20727871432163,27.254435473149364,82.64914710922997,-21.49380154079861,-88.98415459526909,-41.04482862684462,-4.462176030225093,-1.251584798982828,-2.0939424722501547,3.566945393880208,0.06785074869791667,-4.274732801649305,-1.499,-0.9586,-0.5846,-0.00284,-0.00286,0.02049,0.000941441219765693,0.0010232588974758983,0.0008030119352042675,0.0006279067602008581,0.0005287714302539825,0.000410166714573279,0.011742024682462215,0.008458539843559265,0.011736891232430935,passive,0
2.7408,rehab,safe_near_limit_slow,19.66728766021044,-666.5896930243575,306.19846028579747,-177.67139082894263,0.3039891564272465,-149.77814474006243,-49.1563,-0.0138,23.8694,11.4557,-1.4472,-1.9886,79.13649983925394,27.234801490708154,82.61514116041731,-21.437996758355034,-88.98246765136719,-41.11367967393663,-4.4077542748781715,-1.305999755859375,-2.134971240959545,3.44390869140625,0.13570149739583334,-4.47829352484809,-1.498,-1.0461,-0.1332,-0.02162,-0.00775,0.01989,0.000941441219765693,0.0010232588974758983,0.0008030119352042675,0.0006279067602008581,0.0005287714302539825,0.000410166714573279,0.011742024682462215,0.008458539843559265,0.011736891232430935,passive,0
2.761,rehab,safe_near_limit_slow,18.439796867797476,-666.5943425270125,306.77907422002545,-177.6708499539803,0.3033898217736758,-149.78048749157298,-49.2928,-0.0364,23.9805,-10.2429,-1.2181,5.5355,79.02992021919476,27.204725057771892,82.56299689264581,-21.353395250108505,-88.98000081380208,-41.21696472167969,-4.4077542748781715,-1.251584798982828,-2.160703451326578,3.5628594292534723,0.06785074869791667,-4.274732801649305,-1.5487,-1.0685,-0.137,-0.02588,-0.00105,0.02042,0.000941441219765693,0.0010232588974758983,0.0008030119352042675,0.0006279067602008581,0.0005287714302539825,0.000410166714573279,0.011742024682462215,0.008458539843559265,0.011736891232430935,passive,0
2.7807,rehab,safe_near_limit_slow,17.645952032630554,-666.5972481317019,307.1661009140741,-177.67049080469286,0.30311682534109863,-149.78018750505657,-49.1495,-0.0466,23.8867,-24.4335,-0.8281,10.6825,78.96098372959854,27.184961904393564,82.52777401763613,-21.296742757161457,-88.978271484375,-41.28556145562066,-4.135672692025062,-1.305999755859375,-2.209020180277305,3.6469268798828125,0.06785074869791667,-4.342592027452257,-1.5411,-1.0766,-0.1571,-0.02205,0.00802,0.02486,0.000941441219765693,0.0010232588974758983,0.0008030119352042675,0.0006279067602008581,0.0005287714302539825,0.000410166714573279,0.011742024682462215,0.008458539843559265,0.011736891232430935,passive,0
2.8012,rehab,safe_near_limit_slow,16.86729407231589,-666.5961002223255,307.56052926068605,-177.66972423926234,0.3024667670808321,-149.77807588130756,-48.9668,-0.0652,23.714,-22.7441,-0.62,9.6579,78.89330495702158,27.164484911625927,82.49261912733022,-21.239980061848957,-88.97654215494792,-41.354709201388886,-4.190087648901609,-1.251584798982828,-2.204084490785504,3.698908487955729,0.13570149739583334,-4.342592027452257,-1.5149,-1.0883,-0.2717,-0.02526,0.0109,0.02056,0.000941441219765693,0.0010232588974758983,0.0008030119352042675,0.0006279067602008581,0.0005287714302539825,0.000410166714573279,0.011742024682462215,0.008458539843559265,0.011736891232430935,passive,0
2.8213,rehab,safe_near_limit_slow,15.503135198192538,-666.5931686653823,308.2462146788573,-177.66918809987556,0.3020450967994942,-149.77518759284453,-50.3296,-0.0666,24.3035,-17.162,-0.6909,8.1571,78.77475323063312,27.129268835086634,82.43054909281211,-21.13965352376302,-88.97353278266058,-41.475016276041664,-4.353339318001624,-1.1971630436359066,-2.2354254392114017,3.5541619194878473,0.13570149739583334,-4.139031304253472,-1.6005,-1.0467,-0.2481,-0.02626,0.00656,0.02334,0.000941441219765693,0.0010232588974758983,0.0008030119352042675,0.0006279067602008581,0.0005287714302539825,0.000410166714573279,0.011742024682462215,0.008458539843559265,0.011736891232430935,passive,0
2.841,rehab,safe_near_limit_slow,14.711034819934493,-666.5940354591821,308.6258566475015,-177.67011322342572,0.30288344375310156,-149.77501086165796,-51.2337,-0.0651,24.7394,-6.6344,-0.5941,5.8506,78.70598670279625,27.110430273679224,82.39456478912051,-21.081466674804688,-88.97183736165364,-41.543307834201386,-4.353339318001624,-1.1427480867593596,-2.2868082783009744,3.7066141764322915,0.06785074869791667,-4.274732801649305,-1.6235,-1.07,-0.5882,-0.01862,-0.00199,0.02651,0.000941441219765693,0.0010232588974758983,0.0008030119352042675,0.0006279067602008581,0.0005287714302539825,0.000410166714573279,0.011742024682462215,0.008458539843559265,0.011736891232430935,passive,0
2.8607,rehab,safe_near_limit_slow,13.505563428759565,-666.5951848055406,309.18930832756905,-177.67222720205928,0.3047816137005301,-149.77567921382618,-51.0865,-0.0837,24.7782,5.0897,-0.1669,3.7916,78.6013650422049,27.08282168548886,82.34025860776995,-20.993516710069443,-88.96929423014323,-41.64627922905816,-4.4077542748781715,-1.0339181730062654,-2.285509770459468,3.6654493543836804,0.06785074869791667,-4.410442776150173,-1.7446,-1.1854,0.1016,-0.04115,0.00606,0.02155,0.000941441219765693,0.0010232588974758983,0.0008030119352042675,0.0006279067602008581,0.0005287714302539825,0.000410166714573279,0.011742024682462215,0.008458539843559265,0.011736891232430935,passive,0
2.8809,rehab,safe_near_limit_slow,12.68855100916991,-666.600639907545,309.5616215474754,-177.673864851207,0.3061901624585433,-149.77695713308592,-50.4152,-0.1048,24.6234,12.3469,0.4393,3.1373,78.53057257019647,27.06539720591932,82.3029893931776,-20.934524536132812,-88.9676496717665,-41.71513875325521,-4.462176030225093,-1.0883331298828125,-2.369192142297726,3.5957166883680554,0.06785074869791667,-4.274732801649305,-1.59,-1.1455,-0.8489,-0.01163,-0.00247,0.02926,0.000941441219765693,0.0010232588974758983,0.0008030119352042675,0.0006279067602008581,0.0005287714302539825,0.000410166714573279,0.011742024682462215,0.008458539843559265,0.011736891232430935,passive,0
2.9015,rehab,safe_near_limit_slow,11.476144819982197,-666.6053540139911,310.15458984846094,-177.67356214198537,0.30591436145957746,-149.7777382973512,-50.2301,-0.1155,24.7765,21.9442,0.9672,-0.1487,78.42548181514928,27.03714956151377,82.24586184662168,-20.84634568956163,-88.96514044867621,-41.818457709418404,-4.298924361125077,-1.251584798982828,-2.433328911809638,3.6562432183159723,0.06785074869791667,-4.342592027452257,-1.5684,-1.1782,0.0823,0.00016,-0.00091,0.02603,0.000941441219765693,0.0010232588974758983,0.0008030119352042675,0.0006279067602008581,0.0005287714302539825,0.000410166714573279,0.011742024682462215,0.008458539843559265,0.011736891232430935,passive,0
2.9211,rehab,safe_near_limit_slow,10.681337004881797,-666.6056345856953,310.5622186539337,-177.67271344943234,0.3052210387842638,-149.77746712424064,-49.1768,-0.0784,24.5289,21.5448,1.2513,-0.1888,78.35654532555306,27.01753597448368,82.20722613948406,-20.787056816948784,-88.9634280734592,-41.88699510362413,-4.244502605778156,-1.1971630436359066,-2.337150951423267,3.7276967366536455,0.13570149739583334,-4.410442776150173,-1.5458,-1.1022,-0.003,-0.01608,-0.00533,0.02028,0.000941441219765693,0.0010232588974758983,0.0008030119352042675,0.0006279067602008581,0.0005287714302539825,0.000410166714573279,0.011742024682462215,0.008458539843559265,0.011736891232430935,passive,0
2.9412,rehab,safe_near_limit_slow,9.505196927220704,-666.6061474472822,311.17750496625825,-177.6711187543778,0.30378844634443347,-149.77527327524507,-48.2902,-0.017,24.3584,6.9175,1.3742,6.162,78.25456826993735,26.98825496258122,82.1485961309754,-20.698072645399304,-88.96092732747395,-41.9901614718967,-4.298924361125077,-1.1971630436359066,-2.3753787503384127,3.7371571858723955,0.13570149739583334,-4.206882052951388,-1.5496,-1.2103,-0.4435,-0.02192,-0.00593,0.01872,0.000941441219765693,0.0010232588974758983,0.0008030119352042675,0.0006279067602008581,0.0005287714302539825,0.000410166714573279,0.011742024682462215,0.008458539843559265,0.011736891232430935,passive,0
2.9612,rehab,safe_near_limit_slow,8.72005769338367,-666.6040213845839,311.5853637550443,-177.67081939459214,0.3034924410086781,-149.77364052955582,-49.2517,0.0297,25.0024,-11.1678,1.2211,15.6489,78.18646799219717,26.968865725073485,82.10935535997447,-20.637707180447048,-88.95927429199219,-42.059215969509545,-4.135672692025062,-1.1427480867593596,-2.5266515146387687,3.7382083468967013,0.06785074869791667,-4.410442776150173,-1.5639,-1.1831,-0.28,-0.00644,-0.0041,0.02135,0.000941441219765693,0.0010232588974758983,0.0008030119352042675,0.0006279067602008581,0.0005287714302539825,0.000410166714573279,0.011742024682462215,0.008458539843559265,0.011736891232430935,passive,0
2.9809,rehab,safe_near_limit_slow,7.524898758188126,-666.6051216550566,312.1771823800169,-177.6721295726792,0.30473944073788445,-149.77279044220745,-49.4803,0.0462,25.1868,-18.2922,0.7681,20.4144,78.08290689298423,26.94184180533532,82.04980755796527,-20.546095106336804,-88.95673116048177,-42.16260274251302,-4.353339318001624,-1.1427480867593596,-2.5342522045173266,3.995208740234375,0.06785074869791667,-4.47829352484809,-1.7356,-1.2295,-0.8345,-0.01841,0.00021,0.02661,0.000941441219765693,0.0010232588974758983,0.0008030119352042675,0.0006279067602008581,0.0005287714302539825,0.000410166714573279,0.011742024682462215,0.008458539843559265,0.011736891232430935,passive,0
3.0012,rehab,safe_near_limit_slow,6.712000310511372,-666.6029840461364,312.57778896603037,-177.67282567222856,0.30541353134333654,-149.774117099466,-49.889,0.0312,25.5084,-18.0513,0.0643,21.0321,78.01244754602413,26.923349965917,82.00993452921952,-20.484619140625,-88.95505269368489,-42.23104688856337,-4.244502605778156,-1.1427480867593596,-2.5357070771774444,3.810289171006944,0.06785074869791667,-4.206882052951388,-1.6921,-1.2553,-0.4011,-0.0133,-0.00096,0.0266,0.000941441219765693,0.0010232588974758983,0.0008030119352042675,0.0006279067602008581,0.0005287714302539825,0.000410166714573279,0.011742024682462215,0.008458539843559265,0.011736891232430935,passive,0
3.0211,rehab,safe_near_limit_slow,5.8924961939694676,-666.6016839785998,312.9889935432854,-177.6729890687992,0.30549305656368103,-149.77579228363058,-50.7763,0.0163,26.2331,-23.8799,-0.6254,24.7804,77.94146471684522,26.904579389213335,81.968994140625,-20.422583685980904,-88.95345899793837,-42.29966057671441,-4.516590987101639,-1.1971630436359066,-2.587137505559638,3.906275431315104,0.13570149739583334,-4.274732801649305,-1.7233,-1.2949,-1.1475,-0.01907,-0.00431,0.02931,0.000941441219765693,0.0010232588974758983,0.0008030119352042675,0.0006279067602008581,0.0005287714302539825,0.000410166714573279,0.011742024682462215,0.008458539843559265,0.011736891232430935,passive,0
3.0411,rehab,safe_near_limit_slow,4.4677433104444635,-666.6021715681741,313.7259152329415,-177.6725456708946,0.3050749957595196,-149.7780799833344,-51.1662,-0.0029,26.8374,-20.6944,-0.968,23.5864,77.81813366578356,26.87167479260133,81.89486361966274,-20.312398274739582,-88.9506106906467,-42.419467502170136,-4.4077542748781715,-1.251584798982828,-2.721951173083617,4.036051432291667,0.13570149739583334,-4.274732801649305,-1.7523,-1.3602,-1.188,-0.02486,-0.00189,0.02446,0.000941441219765693,0.0010232588974758983,0.0008030119352042675,0.0006279067602008581,0.0005287714302539825,0.000410166714573279,0.011742024682462215,0.008458539843559265,0.011736891232430935,passive,0
3.0609,rehab,safe_near_limit_slow,3.658704427927454,-666.6042301248992,314.1684575906903,-177.67093695247442,0.3036259972787157,-149.7781700200399,-51.2814,-0.0191,27.3202,-7.5153,-1.0013,15.9256,77.74815021174969,26.852197174978727,81.8505851821144,-20.248633490668404,-88.94894917805989,-42.48864067925347,-4.462176030225093,-1.1971630436359066,-2.721869591439124,3.980424669053819,0.20355224609375,-4.274732801649305,-1.6474,-1.2608,-0.1526,-0.01831,0.00049,0.02431,0.000941441219765693,0.0010232588974758983,0.0008030119352042675,0.0006279067602008581,0.0005287714302539825,0.000410166714573279,0.011742024682462215,0.008458539843559265,0.011736891232430935,passive,0
3.0809,rehab,safe_near_limit_slow,2.4602407106652304,-666.6039687758727,314.81768586006774,-177.6701180425767,0.30286710416616996,-149.7784563730687,-50.0975,-0.0249,26.9065,6.4213,-0.8146,6.89,77.64445314312925,26.823820359636063,81.78461282560141,-20.152180989583332,-88.94652472601996,-42.5909678141276,-4.462176030225093,-1.1971630436359066,-2.6858241015141555,3.9803229437934027,0.06785074869791667,-4.342592027452257,-1.6827,-1.3712,-0.9359,-0.01717,-0.00255,0.02533,0.000941441219765693,0.0010232588974758983,0.0008030119352042675,0.0006279067602008581,0.0005287714302539825,0.000410166714573279,0.011742024682462215,0.008458539843559265,0.011736891232430935,passive,0
3.1018,rehab,safe_near_limit_slow,1.6704186516967945,-666.6042298633123,315.2567497807147,-177.6693562481206,0.30214352725063903,-149.77803473042687,-51.087,-0.0479,27.4912,21.0866,-0.5137,-1.8507,77.57614211280747,26.80488661964341,81.73972932418974,-20.087271796332466,-88.94493103027344,-42.65897115071615,-4.462176030225093,-1.1427480867593596,-2.776692456538134,4.032016330295138,0.06785074869791667,-4.342592027452257,-1.7942,-1.4386,-0.8784,-0.0419,-0.00322,0.02904,0.000941441219765693,0.0010232588974758983,0.0008030119352042675,0.0006279067602008581,0.0005287714302539825,0.000410166714573279,0.011742024682462215,0.008458539843559265,0.011736891232430935,passive,0
3.1213,rehab,safe_near_limit_slow,0.4837122712711434,-666.6045468809968,315.8930026382681,-177.67054371973805,0.3032621033476772,-149.77732996384037,-51.8789,-0.06,28.0784,24.4663,-0.2807,-2.2714,77.47352600097656,26.778216220364712,81.67237007972038,-19.98838636610243,-88.94249810112846,-42.76118808322482,-4.135672692025062,-1.0883331298828125,-2.779309867632271,4.162199232313368,0.13570149739583334,-4.410442776150173,-1.671,-1.2621,-0.9311,-0.0065,0.0027,0.0251,0.000941441219765693,0.0010232588974758983,0.0008030119352042675,0.0006279067602008581,0.0005287714302539825,0.000410166714573279,0.011742024682462215,0.008458539843559265,0.011736891232430935,passive,0
3.1408,rehab,safe_near_limit_slow,-0.31643809767986947,-666.6070389514379,316.3161151673316,-177.67155268225846,0.3042555266513389,-149.77703301323254,-49.8774,-0.064,27.1195,18.1956,-0.1082,5.3461,77.40439915420986,26.761056881139773,81.62656878480817,-19.92184109157986,-88.94083658854167,-42.82986958821615,-4.190087648901609,-1.0883331298828125,-2.843480629496055,4.308607313368055,0.13570149739583334,-4.274732801649305,-1.915,-1.4432,-1.4697,-0.02914,0.00839,0.02762,0.000941441219765693,0.0010232588974758983,0.0008030119352042675,0.0006279067602008581,0.0005287714302539825,0.000410166714573279,0.011742024682462215,0.008458539843559265,0.011736891232430935,passive,0
3.1607,rehab,safe_near_limit_slow,-1.5339161741714344,-666.6067521968282,316.969251634626,-177.67271827685647,0.3053037421526995,-149.77840851683942,-48.7531,-0.0695,26.8485,13.0151,-0.0086,15.0562,77.29919962363668,26.734291303275835,81.55658533077428,-19.820276896158855,-88.9384545220269,-42.93256123860677,-4.4077542748781715,-1.0883331298828125,-3.0337698152749843,4.285346137152778,0.06785074869791667,-4.47829352484809,-1.8382,-1.4308,-1.0657,-0.01272,0.00177,0.03112,0.000941441219765693,0.0010232588974758983,0.0008030119352042675,0.0006279067602008581,0.0005287714302539825,0.000410166714573279,0.011742024682462215,0.008458539843559265,0.011736891232430935,passive,0
3.1809,rehab,safe_near_limit_slow,-2.3494613498878025,-666.6084815144482,317.4146460267243,-177.6733406309691,0.3057999278006062,-149.77989905840963,-48.5809,-0.0475,27.3002,12.6941,0.2216,22.7597,77.22880146290996,26.716492907835704,81.50828899723469,-19.751230875651043,-88.93692864312065,-43.00070020887587,-4.4077542748781715,-1.0883331298828125,-3.0462722022934714,4.34340582953559,0.13570149739583334,-4.342592027452257,-1.7333,-1.3134,-0.7281,-0.02677,-0.01006,0.0311,0.000941441219765693,0.0010232588974758983,0.0008030119352042675,0.0006279067602008581,0.0005287714302539825,0.000410166714573279,0.011742024682462215,0.008458539843559265,0.011736891232430935,passive,0
3.2012,rehab,safe_near_limit_slow,-3.556874578990593,-666.612513369578,318.10892850116016,-177.67289315080242,0.30537253664552566,-149.78056675398244,-48.9881,-0.0373,28.2124,9.6164,0.5798,29.4705,77.12462170289294,26.688993095171334,81.43334945829788,-19.646165635850693,-88.93456353081596,-43.103035820855034,-4.244502605778156,-1.1971630436359066,-3.068129284547107,4.4421641031901045,0.13570149739583334,-4.206882052951388,-1.9522,-1.3407,-0.7705,-0.03731,-0.00365,0.02837,0.000941441219765693,0.0010232588974758983,0.0008030119352042675,0.0006279067602008581,0.0005287714302539825,0.000410166714573279,0.011742024682462215,0.008458539843559265,0.011736891232430935,passive,0
3.2212,rehab,safe_near_limit_slow,-4.345670058688619,-666.6111547578303,318.58565689987154,-177.67243057542362,0.3049636487299352,-149.77969235066436,-49.7245,-0.0416,29.4596,-7.4728,0.8132,40.3449,77.05649423127127,26.669753424011834,81.38256488460125,-19.574593438042534,-88.93296983506944,-43.171234130859375,-4.4077542748781715,-1.1971630436359066,-3.195668588770498,4.571567111545138,0.06785074869791667,-4.342592027452257,-1.6901,-1.2985,-0.3965,-0.01192,-0.00757,0.023,0.000941441219765693,0.0010232588974758983,0.0008030119352042675,0.0006279067602008581,0.0005287714302539825,0.000410166714573279,0.011742024682462215,0.008458539843559265,0.011736891232430935,passive,0
3.2409,rehab,safe_near_limit_slow,-5.124670222522708,-666.6121662337354,319.05701126748784,-177.67261115156833,0.30514896388420093,-149.77750991695572,-49.49,-0.0353,30.122,-12.0323,0.8246,39.8044,76.9892709562094,26.651363561649134,81.33106647151531,-19.502266777886284,-88.93137613932292,-43.239830864800346,-4.298924361125077,-1.1427480867593596,-3.2706353215887995,4.5469919840494795,0.06785074869791667,-4.410442776150173,-1.7029,-1.2532,-0.578,-0.01673,-0.00151,0.02361,0.000941441219765693,0.0010232588974758983,0.0008030119352042675,0.0006279067602008581,0.0005287714302539825,0.000410166714573279,0.011742024682462215,0.008458539843559265,0.011736891232430935,passive,0
3.261,rehab,safe_near_limit_slow,-6.4995279644282435,-666.6096416324194,319.89033092625453,-177.67331219409758,0.305756480425136,-149.77665969670267,-49.0366,-0.0172,30.5332,10.2456,0.5932,20.5291,76.87061045429495,26.618812485496598,81.24000096085048,-19.373965793185764,-88.92870585123698,-43.357908460828995,-4.135672692025062,-1.1427480867593596,-3.257140357895653,4.53460693359375,0.06785074869791667,-4.0033213297526045,-1.8693,-1.5756,-0.7976,-0.04107,0.00258,0.01559,0.000941441219765693,0.0010232588974758983,0.0008030119352042675,0.0006279067602008581,0.0005287714302539825,0.000410166714573279,0.011742024682462215,0.008458539843559265,0.011736891232430935,passive,0
3.281,rehab,safe_near_limit_slow,-7.2773618694185265,-666.6097330950636,320.3663459222639,-177.67398063521725,0.30636739251359013,-149.7757925031387,-49.26,0.0232,31.0866,28.3843,0.4225,2.7993,76.80352994711092,26.600735352771117,81.18707486898592,-19.299918280707466,-88.92718844943576,-43.42503017849392,-4.026835979801594,-1.1427480867593596,-3.3159335296933015,4.533292982313368,0.13570149739583334,-4.0033213297526045,-1.8611,-1.5087,-0.5475,-0.03196,0.00162,0.02072,0.000941441219765693,0.0010232588974758983,0.0008030119352042675,0.0006279067602008581,0.0005287714302539825,0.000410166714573279,0.011742024682462215,0.008458539843559265,0.011736891232430935,passive,0
3.3008,rehab,safe_near_limit_slow,-8.432790246458593,-666.6152836347478,321.1043703788245,-177.6727019903157,0.3051633604749052,-149.77563654313295,-48.6243,0.0377,30.8979,36.3599,0.3444,-9.7237,76.70403433318185,26.573249137047494,81.10537765049698,-19.189351399739582,-88.92495049370659,-43.52344089084201,-4.135672692025062,-1.251584798982828,-3.3926338724570697,4.561826917860243,0.06785074869791667,-4.342592027452257,-1.726,-1.4657,-1.2225,-0.02093,0.00435,0.02646,0.000941441219765693,0.0010232588974758983,0.0008030119352042675,0.0006279067602008581,0.0005287714302539825,0.000410166714573279,0.011742024682462215,0.008458539843559265,0.011736891232430935,passive,0
3.3212,rehab,safe_near_limit_slow,-9.192828038666066,-666.6122507079773,321.60373419192774,-177.6712917912162,0.30379670999923625,-149.7753078513707,-48.3639,0.0234,30.844,44.3238,0.0621,-22.0637,76.63847668336169,26.55384630259901,81.05166973453937,-19.116126166449654,-88.92349243164062,-43.588502671983505,-4.026835979801594,-1.251584798982828,-3.433438291644106,4.49800279405382,0.06785074869791667,-4.071180555555555,-1.7656,-1.4219,-0.6964,-0.03575,-0.00526,0.02027,0.000941441219765693,0.0010232588974758983,0.0008030119352042675,0.0006279067602008581,0.0005287714302539825,0.000410166714573279,0.011742024682462215,0.008458539843559265,0.011736891232430935,passive,0
3.3409,rehab,safe_near_limit_slow,-10.317967304368741,-666.610816739881,322.3312945430367,-177.6698013518069,0.30238461473402245,-149.77626122489505,-45.609,0.004,29.2587,55.4032,-0.2784,-34.0223,76.54152369735264,26.52647566087175,80.97177411069964,-19.007882012261284,-88.92133924696181,-43.68328518337673,-3.754754396948484,-1.0883331298828125,-3.34605075345181,4.395294189453125,0.06785074869791667,-4.071180555555555,-1.8473,-1.4771,-0.8997,-0.04986,0.00453,0.02267,0.000941441219765693,0.0010232588974758983,0.0008030119352042675,0.0006279067602008581,0.0005287714302539825,0.000410166714573279,0.011742024682462215,0.008458539843559265,0.011736891232430935,passive,0
3.3612,rehab,safe_near_limit_slow,-11.039247418034403,-666.6083817892252,322.79098628925743,-177.67016948705023,0.30279136168944953,-149.77677164644507,-44.31,-0.0043,28.4715,71.2659,-0.5396,-46.7879,76.47935168577892,26.509493081876546,80.92018051902846,-18.936809963650173,-88.919923570421,-43.74415079752604,-3.754754396948484,-1.0883331298828125,-3.2325230966700187,4.368760850694445,0.06785074869791667,-3.799769083658854,-1.7647,-1.2824,-0.8206,-0.03266,0.00241,0.02396,0.000941441219765693,0.0010232588974758983,0.0008030119352042675,0.0006279067602008581,0.0005287714302539825,0.000410166714573279,0.011742024682462215,0.008458539843559265,0.011736891232430935,passive,0
3.3809,rehab,safe_near_limit_slow,-12.098827404311232,-666.6071555608263,323.45827726955525,-177.67093936155572,0.3035278513892438,-149.77740266862253,-44.6343,0.0047,28.5597,82.7747,-0.5415,-55.5062,76.38810941488435,26.48553527227723,80.84413282942063,-18.832872178819443,-88.91790601942274,-43.83360120985243,-3.809169353825031,-0.9250814607827971,-3.1206406697188274,4.203999837239583,0.13570149739583334,-3.4604983859592013,-1.8051,-1.4815,-1.0755,-0.03715,0.00805,0.02754,0.000941441219765693,0.0010232588974758983,0.0008030119352042675,0.0006279067602008581,0.0005287714302539825,0.000410166714573279,0.011742024682462215,0.008458539843559265,0.011736891232430935,passive,0
3.401,rehab,safe_near_limit_slow,-12.783945233084733,-666.6108018659071,323.88891044770276,-177.6709632405981,0.3035650902106565,-149.77828578653813,-42.4738,-0.0117,27.0525,92.5548,-0.3637,-63.7527,76.32922786297185,26.47076899462407,80.7942252584023,-18.76631842719184,-88.91660902235243,-43.89085557725694,-3.5915027278484684,-0.9250814607827971,-3.0369922902324413,4.145423041449653,0.06785074869791667,-3.4604983859592013,-1.7242,-1.3795,-1.5657,-0.02242,0.01311,0.02929,0.000941441219765693,0.0010232588974758983,0.0008030119352042675,0.0006279067602008581,0.0005287714302539825,0.000410166714573279,0.011742024682462215,0.008458539843559265,0.011736891232430935,passive,0
3.4208,rehab,safe_near_limit_slow,-13.766734669497897,-666.6134850838572,324.515180493397,-177.67064211477538,0.30320361429821174,-149.77855440610435,-40.1758,-0.0267,25.4605,97.7106,-0.3076,-70.1989,76.2447432716294,26.449109068011293,80.72215467396349,-18.670399983723957,-88.91477796766493,-43.9739990234375,-3.482672814095374,-0.87066650390625,-2.9409638961943068,3.898798624674479,0.06785074869791667,-3.392647637261285,-1.6916,-1.5271,-1.2424,-0.02145,0.01383,0.02546,0.000941441219765693,0.0010232588974758983,0.0008030119352042675,0.0006279067602008581,0.0005287714302539825,0.000410166714573279,0.011742024682462215,0.008458539843559265,0.011736891232430935,passive,0
3.441,rehab,safe_near_limit_slow,-14.388684289788165,-666.6132316397903,324.9183953212428,-177.66999878630256,0.3025813193467722,-149.77916913497205,-37.6127,-0.0268,23.7359,109.6013,-0.4474,-80.5053,76.19125290672378,26.434947854221456,80.67632618516978,-18.609627617730034,-88.91360812717014,-44.026192559136284,-3.1561694758953434,-0.87066650390625,-2.790935251972463,3.7472364637586804,0.13570149739583334,-3.1890869140625,-1.8209,-1.3643,-1.5865,-0.0392,0.01684,0.02709,0.000941441219765693,0.0010232588974758983,0.0008030119352042675,0.0006279067602008581,0.0005287714302539825,0.000410166714573279,0.011742024682462215,0.008458539843559265,0.011736891232430935,passive,0
3.4611,rehab,safe_near_limit_slow,-15.39409284389784,-666.612270369554,325.55619889750807,-177.67052048132567,0.3029733303649442,-149.7785954917195,-35.5829,-0.0358,22.2617,131.6778,-0.7343,-96.957,76.11671447753906,26.416027711169555,80.61231178812461,-18.52389865451389,-88.91199747721355,-44.1001468234592,-2.992917806795328,-0.7618297916827815,-2.6031139109394337,3.368742201063368,0.06785074869791667,-2.9176754421657987,-1.5715,-1.2095,-1.5748,-0.01848,0.01357,0.02881,0.000941441219765693,0.0010232588974758983,0.0008030119352042675,0.0006279067602008581,0.0005287714302539825,0.000410166714573279,0.011742024682462215,0.008458539843559265,0.011736891232430935,passive,0
3.4809,rehab,safe_near_limit_slow,-15.927798982736059,-666.6118238373763,325.8849151322338,-177.67118286572156,0.30368286133719136,-149.7781166682085,-32.9286,-0.0413,20.2717,132.3866,-0.817,-101.2189,76.07000218759669,26.404776242699953,80.57294184618657,-18.470840454101562,-88.91092936197917,-44.146762424045136,-2.8296661376953125,-0.6529998779296875,-2.4247968314897896,3.167716132269965,0.06785074869791667,-2.8498246934678817,-1.5746,-1.3363,-1.3039,-0.02828,0.01801,0.02448,0.000941441219765693,0.0010232588974758983,0.0008030119352042675,0.0006279067602008581,0.0005287714302539825,0.000410166714573279,0.011742024682462215,0.008458539843559265,0.011736891232430935,passive,0
3.5013,rehab,safe_near_limit_slow,-16.439005761847454,-666.611684560872,326.1891265991745,-177.67181432776673,0.3043502815381125,-149.77866386374853,-30.2882,-0.0628,18.135,130.1769,-0.7099,-105.2039,76.02578493628171,26.394626126431003,80.53588338417582,-18.421130710177952,-88.90994601779514,-44.190216064453125,-2.8296661376953125,-0.5985781225827661,-2.1636879798209314,2.9615275065104165,-0.0,-2.5784132215711804,-1.4528,-1.3403,-1.4315,-0.02921,-0.00593,0.02209,0.000941441219765693,0.0010232588974758983,0.0008030119352042675,0.0006279067602008581,0.0005287714302539825,0.000410166714573279,0.011742024682462215,0.008458539843559265,0.011736891232430935,passive,0
3.5209,rehab,safe_near_limit_slow,-17.155111083356175,-666.6137897505283,326.6116064488247,-177.67157604834406,0.3041125129281004,-149.77993378635497,-27.7092,-0.0811,16.0311,139.4958,-0.582,-114.8155,75.96328659813003,26.38071645604502,80.4848064762531,-18.35424635145399,-88.90857272677951,-44.25067477756076,-2.503169597965656,-0.544163165706219,-1.9772059374516553,2.558169894748264,-0.0,-2.4427032470703125,-1.6483,-1.412,-1.8408,-0.02819,0.00387,0.0281,0.000941441219765693,0.0010232588974758983,0.0008030119352042675,0.0006279067602008581,0.0005287714302539825,0.000410166714573279,0.011742024682462215,0.008458539843559265,0.011736891232430935,passive,0
3.541,rehab,safe_near_limit_slow,-17.593059431689323,-666.6177015263644,326.8643867230961,-177.67084330470277,0.30338501771491594,-149.78114538389525,-24.2525,-0.1052,13.4407,151.9497,-0.2681,-121.7011,75.92518117168161,26.372673865592127,80.45395501769416,-18.31518385145399,-88.90775044759114,-44.28743998209635,-2.2855029719890934,-0.489748208829672,-1.8822313063215501,2.2742462158203125,0.06785074869791667,-2.103441026475694,-1.6175,-1.3499,-1.638,-0.03538,0.01363,0.02291,0.000941441219765693,0.0010232588974758983,0.0008030119352042675,0.0006279067602008581,0.0005287714302539825,0.000410166714573279,0.011742024682462215,0.008458539843559265,0.011736891232430935,passive,0
3.5609,rehab,safe_near_limit_slow,-18.16840101205261,-666.621130319204,327.1747169299923,-177.67062163654455,0.30316291212205043,-149.7825113663859,-21.6707,-0.1105,11.1984,165.6853,0.1667,-124.2407,75.87422663622563,26.362850075901143,80.41452388952274,-18.264957004123264,-88.9066653781467,-44.33607313368056,-2.0134145906656093,-0.32649653972965653,-1.4602502501837098,1.8708377414279513,0.06785074869791667,-1.8998803032769096,-1.5035,-1.3617,-1.8708,-0.04196,0.01774,0.02046,0.000941441219765693,0.0010232588974758983,0.0008030119352042675,0.0006279067602008581,0.0005287714302539825,0.000410166714573279,0.011742024682462215,0.008458539843559265,0.011736891232430935,passive,0
3.5811,rehab,safe_near_limit_slow,-18.491116773328876,-666.6226439691421,327.33914067109237,-177.67067723016626,0.3032245270749146,-149.78291824962815,-19.0047,-0.0828,8.9584,177.4103,0.7046,-121.9944,75.84543511419012,26.357601656772122,80.39346902677329,-18.23759290907118,-88.906004163954,-44.364073011610245,-1.6325030940594059,-0.32649653972965653,-1.1841575698097153,1.5627797444661458,0.06785074869791667,-1.6284688313802083,-1.6943,-1.4542,-1.9559,-0.04436,0.0142,0.02627,0.000941441219765693,0.0010232588974758983,0.0008030119352042675,0.0006279067602008581,0.0005287714302539825,0.000410166714573279,0.011742024682462215,0.008458539843559265,0.011736891232430935,passive,0
3.6013,rehab,safe_near_limit_slow,-18.879685820329886,-666.6227196481188,327.5147829032682,-177.6712783223978,0.30385452831730236,-149.7822871039814,-14.4887,-0.0618,5.8995,191.4618,1.3186,-120.6782,75.81081050457341,26.35229205140973,80.36942283705909,-18.206388685438366,-88.90518188476562,-44.39908345540365,-1.360414712735922,-0.16324487062964108,-0.7723470253519492,1.0944620768229167,-0.0,-1.2892066107855902,-1.4926,-1.2777,-1.8696,-0.03243,0.01074,0.02399,0.000941441219765693,0.0010232588974758983,0.0008030119352042675,0.0006279067602008581,0.0005287714302539825,0.000410166714573279,0.011742024682462215,0.008458539843559265,0.011736891232430935,passive,0
