t,trajectory_type,trajectory_variant,x,y,z,rx,ry,rz,vx,vy,vz,ax,ay,az,j1,j2,j3,j4,j5,j6,dj1,dj2,dj3,dj4,dj5,dj6,fx,fy,fz,tx,ty,tz,Mx,My,Mz,Bx,By,Bz,Kx,Ky,Kz,mode,comfort
0.0004,rehab,large_fast,80.22205337421349,-666.6345050658381,262.4773910496797,-177.65176498605462,0.2919175006120911,-149.85185605446526,0.3118,0.1481,-0.2704,-9.5246,-4.7784,14.3452,84.42844957408339,30.063645013488166,85.69199968092512,-27.523023817274304,-89.1131591796875,-35.8166758219401,-0.05441495687654703,-0.0,0.020850908638227104,0.0021616617838541665,-0.06785074869791667,-0.0,-2.091,-0.9491,-1.0537,-0.01759,0.00113,0.03779,0.0010910879354923964,0.0010002502240240574,0.0010595330968499184,0.0006061547319404781,0.000499522837344557,0.00041809221147559583,0.00862041860818863,0.009373931214213371,0.011540919542312622,passive,0
0.0208,rehab,large_fast,80.22200646085123,-666.6345040145668,262.4774696125802,-177.65174958516354,0.29192761497909847,-149.8518707265229,0.2218,0.0916,-0.1834,-10.1111,-4.3275,12.1435,84.42844277561301,30.06363821501779,85.69199968092512,-27.523023817274304,-89.11314222547743,-35.81666734483507,-0.05441495687654703,-0.0,0.00027193881497524755,0.013037787543402778,-0.0,-0.0,-1.9976,-0.975,-1.0871,-0.01194,0.00065,0.03777,0.0010910879354923964,0.0010002502240240574,0.0010595330968499184,0.0006061547319404781,0.000499522837344557,0.00041809221147559583,0.00862041860818863,0.009373931214213371,0.011540919542312622,passive,0
0.0405,rehab,large_fast,80.22200390630003,-666.6345312764244,262.47731404893455,-177.6517606675861,0.29193590047875884,-149.8518792437462,0.0176,-0.0051,0.0026,-11.1679,-3.3289,8.6505,84.42844277561301,30.06365181195854,85.69199968092512,-27.523023817274304,-89.11314222547743,-35.816658867730034,-0.0,-0.0,0.012828713596457302,-0.005645751953125,-0.06785074869791667,-0.0,-1.8271,-0.9182,-0.3328,-0.00351,0.01201,0.03406,0.0010910879354923964,0.0010002502240240574,0.0010595330968499184,0.0006061547319404781,0.000499522837344557,0.00041809221147559583,0.00862041860818863,0.009373931214213371,0.011540919542312622,passive,0
0.0609,rehab,large_fast,80.22183067447209,-666.6345392840669,262.47769483402374,-177.65173119326573,0.2919045851241778,-149.85190156243442,-0.2567,-0.0797,0.2336,-12.9101,-2.265,7.2576,84.42842917867226,30.063624618077043,85.69199288245476,-27.52303229437934,-89.11315070258246,-35.816650390625,-0.0,-0.0,0.00017676022973391089,-0.019734700520833332,-0.0,-0.0,-1.9266,-0.8466,-0.8036,-0.00885,0.00862,0.0397,0.0010910879354923964,0.0010002502240240574,0.0010595330968499184,0.0006061547319404781,0.000499522837344557,0.00041809221147559583,0.00862041860818863,0.009373931214213371,0.011540919542312622,passive,0
0.0806,rehab,large_fast,80.22102721371282,-666.6345977624306,262.47834371818277,-177.65168650022844,0.2918623729640365,-149.85197811313597,-0.5684,-0.1228,0.482,-15.1867,-1.2804,8.2014,84.42836119396851,30.063577028784422,85.691979285514,-27.52303229437934,-89.1131591796875,-35.816641913519966,-0.05441495687654703,-0.0,-0.021850283783261138,0.004967583550347222,0.06785074869791667,-0.0,-2.0264,-0.8496,-0.7017,-0.01547,0.00776,0.03712,0.0010910879354923964,0.0010002502240240574,0.0010595330968499184,0.0006061547319404781,0.000499522837344557,0.00041809221147559583,0.00862041860818863,0.009373931214213371,0.011540919542312622,passive,0
0.1008,rehab,large_fast,80.21156839044485,-666.6353833093528,262.4865846346086,-177.6511279603577,0.29146033693923323,-149.8527479497962,-0.959,-0.1215,0.7311,-18.3245,-0.2479,12.2566,84.42754537752359,30.062992360332224,85.69174133905089,-27.522896660698784,-89.1131591796875,-35.816684299045136,-0.10882991375309406,-0.10882991375309406,-0.07182583950533725,0.0011444091796875,-0.06785074869791667,-0.0,-1.9601,-0.9084,-0.4577,-0.00669,0.00433,0.03312,0.0010910879354923964,0.0010002502240240574,0.0010595330968499184,0.0006061547319404781,0.000499522837344557,0.00041809221147559583,0.00862041860818863,0.009373931214213371,0.011540919542312622,passive,0
0.1208,rehab,large_fast,80.17969003170514,-666.6395334047252,262.51347386619074,-177.64930330979183,0.2901699579635087,-149.8553556740422,-1.3158,-0.0946,0.8952,-21.6222,1.0975,18.2155,84.42480559396272,30.061265548857133,85.69066038226137,-27.522320217556423,-89.11314222547743,-35.816802978515625,-0.2176666259765625,-0.16324487062964108,-0.12908255699837562,0.06464640299479167,-0.0,-0.0,-1.9673,-1.0063,-0.9437,-0.01663,-0.0041,0.03537,0.0010910879354923964,0.0010002502240240574,0.0010595330968499184,0.0006061547319404781,0.000499522837344557,0.00041809221147559583,0.00862041860818863,0.009373931214213371,0.011540919542312622,passive,0
0.1407,rehab,large_fast,80.14694016781812,-666.6444462829269,262.5409979562453,-177.64803751757492,0.28924048802893326,-149.85763251697566,-1.7571,-0.0737,1.242,-24.2557,2.3452,24.8038,84.4219978256981,30.05964751290803,85.6890355478419,-27.520633273654514,-89.11315070258246,-35.81731160481771,-0.2176666259765625,-0.10882991375309406,-0.08733994889967513,0.1346588134765625,-0.0,-0.06785074869791667,-1.9656,-1.017,-1.3511,-0.0146,-0.00236,0.04266,0.0010910879354923964,0.0010002502240240574,0.0010595330968499184,0.0006061547319404781,0.000499522837344557,0.00041809221147559583,0.00862041860818863,0.009373931214213371,0.011540919542312622,passive,0
0.161,rehab,large_fast,80.0933641386991,-666.6469991723134,262.5795725754545,-177.64782711571596,0.28901828773175325,-149.85922107818718,-2.245,-0.0501,1.7618,-28.1044,2.8742,34.1085,84.41734767196202,30.05691452781753,85.68680564955909,-27.515886094835068,-89.11313374837239,-35.820320977105034,-0.2176666259765625,-0.16324487062964108,-0.05546192131420173,0.2710384792751736,-0.0,-0.13570149739583334,-1.9093,-0.8715,-0.7006,-0.00248,0.00679,0.04317,0.0010910879354923964,0.0010002502240240574,0.0010595330968499184,0.0006061547319404781,0.000499522837344557,0.00041809221147559583,0.00862041860818863,0.009373931214213371,0.011540919542312622,passive,0
0.1808,rehab,large_fast,80.05788059437246,-666.6453746969978,262.6021488698899,-177.64909723877352,0.2898453814190988,-149.85891139492938,-2.8403,0.0124,2.5433,-33.5527,2.7625,44.8586,84.41423397253055,30.055031351523823,85.68533038148786,-27.51091851128472,-89.11311679416232,-35.82369486490885,-0.16324487062964108,-0.05441495687654703,-0.12256962237971844,0.3621673583984375,-0.0,-0.2714114718967014,-1.9196,-0.9313,-0.1435,-0.01248,-0.00599,0.03316,0.0010910879354923964,0.0010002502240240574,0.0010595330968499184,0.0006061547319404781,0.000499522837344557,0.00041809221147559583,0.00862041860818863,0.009373931214213371,0.011540919542312622,passive,0
0.2009,rehab,large_fast,79.98756349917365,-666.6395689070732,262.65968328124995,-177.6522745975145,0.29197542941937915,-149.85672556022465,-3.7962,0.1132,3.8338,-42.9389,2.215,57.6131,84.40802696907875,30.050320011554376,85.6814416564337,-27.49826219346788,-89.11303202311198,-35.83196004231771,-0.2720815828531095,-0.2176666259765625,-0.21139843629138305,0.57464599609375,-0.0,-0.339262220594618,-1.7229,-1.0186,-0.5006,0.00631,-0.00065,0.03644,0.0010910879354923964,0.0010002502240240574,0.0010595330968499184,0.0006061547319404781,0.000499522837344557,0.00041809221147559583,0.00862041860818863,0.009373931214213371,0.011540919542312622,passive,0
0.2206,rehab,large_fast,79.92594413257596,-666.6392707689957,262.72487784388767,-177.65303622263903,0.29249442564274536,-149.85562118552667,-4.5695,0.1783,4.967,-54.7728,1.5726,69.2255,84.40262218513111,30.045697051699797,85.67713822468673,-27.488233778211804,-89.11289638943143,-35.83836025661892,-0.435333251953125,-0.3809114966062036,-0.35082826519956684,0.6721242268880209,-0.0,-0.4749637179904514,-1.8154,-1.0419,-0.5013,0.00687,-0.00346,0.03572,0.0010910879354923964,0.0010002502240240574,0.0010595330968499184,0.0006061547319404781,0.000499522837344557,0.00041809221147559583,0.00862041860818863,0.009373931214213371,0.011540919542312622,passive,0
0.2407,rehab,large_fast,79.80135723917284,-666.63875642277,262.86908311207304,-177.65307338671226,0.29258896811502105,-149.85386178449662,-5.6957,0.1738,6.4323,-67.7975,0.719,78.5727,84.39168344629873,30.035478950727104,85.66834780249265,-27.468787299262154,-89.11253187391493,-35.850838555230034,-0.544163165706219,-0.544163165706219,-0.401143744440362,0.9159427218967013,0.06785074869791667,-0.6106736924913194,-2.0382,-1.0352,-0.5821,-0.01101,0.00444,0.0352,0.0010910879354923964,0.0010002502240240574,0.0010595330968499184,0.0006061547319404781,0.000499522837344557,0.00041809221147559583,0.00862041860818863,0.009373931214213371,0.011540919542312622,passive,0
0.261,rehab,large_fast,79.69619075750266,-666.6343652210477,262.9941872240457,-177.6528859605138,0.29250914801515676,-149.85251654904732,-7.144,0.1492,8.106,-85.3626,-0.5338,90.0254,84.38241713117844,30.02615144937345,85.66159692141089,-27.452612982855904,-89.11222669813368,-35.861265394422745,-0.6529998779296875,-0.6529998779296875,-0.4330693613184561,1.0953945583767362,-0.0,-0.678524441189236,-1.8996,-0.8698,-0.8494,0.01004,-0.00243,0.04477,0.0010910879354923964,0.0010002502240240574,0.0010595330968499184,0.0006061547319404781,0.000499522837344557,0.00041809221147559583,0.00862041860818863,0.009373931214213371,0.011540919542312622,passive,0
0.2805,rehab,large_fast,79.48971777051051,-666.6266406863124,263.22896084234816,-177.65235006414605,0.29219281603358116,-149.85092555308304,-9.0727,0.1176,10.0073,-103.965,-1.7825,100.8473,84.36424481986772,30.0085706049853,85.6491489221554,-27.422654893663193,-89.11168416341145,-35.88068644205729,-0.9250814607827971,-0.87066650390625,-0.601413084728883,1.4244588216145833,-0.0,-0.9499359130859375,-1.8056,-1.0634,-1.2236,-0.00428,0.00911,0.04036,0.0010910879354923964,0.0010002502240240574,0.0010595330968499184,0.0006061547319404781,0.000499522837344557,0.00041809221147559583,0.00862041860818863,0.009373931214213371,0.011540919542312622,passive,0
0.3005,rehab,large_fast,79.31237771080747,-666.6253630812538,263.4214238977195,-177.65146943245296,0.29157065682608796,-149.85060962199577,-11.4384,0.0882,12.1542,-122.1287,-2.4407,111.006,84.34869671812152,29.994626942247447,85.63838014508238,-27.398579915364582,-89.11128573947482,-35.89627583821615,-1.0883331298828125,-0.9250814607827971,-0.7267700799620977,1.5849134657118056,0.06785074869791667,-1.0856458875868056,-2.0156,-1.0637,-1.2565,-0.02874,-0.00186,0.03577,0.0010910879354923964,0.0010002502240240574,0.0010595330968499184,0.0006061547319404781,0.000499522837344557,0.00041809221147559583,0.00862041860818863,0.009373931214213371,0.011540919542312622,passive,0
0.3205,rehab,large_fast,79.10947749705329,-666.6272850983166,263.6355595930349,-177.65070397084725,0.29101628472055024,-149.85025488132146,-13.893,0.0601,14.3066,-137.1555,-2.3082,119.7507,84.33093911350363,29.9794867487237,85.62568060242303,-27.37118191189236,-89.11084493001302,-35.91407775878906,-1.1427480867593596,-0.979496417659344,-0.8644798958655631,1.7981380886501737,-0.0,-1.2213473849826388,-1.9236,-1.0812,-0.5933,-0.02169,-0.00174,0.03342,0.0010910879354923964,0.0010002502240240574,0.0010595330968499184,0.0006061547319404781,0.000499522837344557,0.00041809221147559583,0.00862041860818863,0.009373931214213371,0.011540919542312622,passive,0
0.341,rehab,large_fast,78.7477257825054,-666.6279807683856,263.99784944892167,-177.65086644191732,0.291218536785983,-149.85011122624323,-16.8016,-0.0004,16.8246,-148.0174,-1.8506,126.8023,84.29924464461827,29.953502994952814,85.6041158543955,-27.322497897677952,-89.10999721950955,-35.94536675347222,-1.5236663818359375,-1.1971630436359066,-0.9093430018661046,2.1337212456597223,0.06785074869791667,-1.4249081081814237,-1.9755,-1.082,-1.1105,-0.00489,-0.01461,0.04181,0.0010910879354923964,0.0010002502240240574,0.0010595330968499184,0.0006061547319404781,0.000499522837344557,0.00041809221147559583,0.00862041860818863,0.009373931214213371,0.011540919542312622,passive,0
0.3609,rehab,large_fast,78.46639982010339,-666.6247581236678,264.2703482011347,-177.6517428748025,0.29183643762005496,-149.84983871660012,-19.9098,-0.0599,19.4392,-151.366,-1.2594,129.8098,84.27457299562964,29.933488298170637,85.58834340312693,-27.28494432237413,-89.10939534505208,-35.96989101833767,-1.6325030940594059,-1.305999755859375,-1.0524100124245823,2.5211588541666665,0.06785074869791667,-1.696319580078125,-1.7517,-1.1579,-0.1608,0.0,-0.00568,0.02803,0.0010910879354923964,0.0010002502240240574,0.0010595330968499184,0.0006061547319404781,0.000499522837344557,0.00041809221147559583,0.00862041860818863,0.009373931214213371,0.011540919542312622,passive,0
0.381,rehab,large_fast,77.88792315898496,-666.6284409284091,264.8331017120824,-177.65226930750788,0.29225281419871296,-149.85033864470932,-23.2398,-0.085,22.25,-145.0441,-0.4605,124.8082,84.22393118981087,29.89342491225441,85.55425587266978,-27.208726671006943,-89.10814073350694,-36.019176907009545,-1.9589996337890625,-1.5236663818359375,-1.3304062645034034,2.9537794325086804,-0.0,-1.9677310519748263,-1.8908,-1.0182,-0.0607,0.00287,-0.00167,0.03472,0.0010910879354923964,0.0010002502240240574,0.0010595330968499184,0.0006061547319404781,0.000499522837344557,0.00041809221147559583,0.00862041860818863,0.009373931214213371,0.011540919542312622,passive,0
0.4005,rehab,large_fast,77.51200678619652,-666.6283177066082,265.2012009061095,-177.65238360113483,0.29235107785846864,-149.85029027319285,-25.9905,-0.0715,24.6043,-127.4792,0.2688,108.5315,84.19099939931738,29.866992459438816,85.53244637970877,-27.159415351019966,-89.10731845431857,-36.05160183376736,-2.122251302889078,-1.686918050935953,-1.3593133605352723,3.258573744032118,0.06785074869791667,-2.0355902777777777,-1.8381,-1.0914,-0.2774,0.00289,-0.01513,0.02991,0.0010910879354923964,0.0010002502240240574,0.0010595330968499184,0.0006061547319404781,0.000499522837344557,0.00041809221147559583,0.00862041860818863,0.009373931214213371,0.011540919542312622,passive,0
0.4209,rehab,large_fast,76.87233835494655,-666.6304711406789,265.8054881830005,-177.6526014563826,0.29250120297606597,-149.85072334425362,-28.7626,-0.043,26.9837,-110.8627,0.9314,90.9766,84.13499360037322,29.82370659856513,85.4964552775468,-27.078323364257812,-89.10595364040799,-36.10626220703125,-2.503169597965656,-1.9045846769125154,-1.5646271658415842,3.469551934136285,-0.0,-2.307001749674479,-1.8397,-1.0177,-0.4581,0.00771,-0.01631,0.03534,0.0010910879354923964,0.0010002502240240574,0.0010595330968499184,0.0006061547319404781,0.000499522837344557,0.00041809221147559583,0.00862041860818863,0.009373931214213371,0.011540919542312622,passive,0
0.4409,rehab,large_fast,76.39541065083483,-666.6323705444287,266.23386888969185,-177.65327904793168,0.2930193689656731,-149.85103976673827,-30.5258,-0.0128,28.5351,-102.1505,1.3426,78.348,84.09323739533377,29.79290272929881,85.47087943199837,-27.019933064778645,-89.10490247938368,-36.147045559353295,-2.7752511808187657,-1.9045846769125154,-1.6092387284382734,3.7935892740885415,0.06785074869791667,-2.714114718967014,-1.9731,-1.1444,-0.5654,-0.01048,-0.00475,0.032,0.0010910879354923964,0.0010002502240240574,0.0010595330968499184,0.0006061547319404781,0.000499522837344557,0.00041809221147559583,0.00862041860818863,0.009373931214213371,0.011540919542312622,passive,0
0.4609,rehab,large_fast,75.63255271852802,-666.6341173014863,266.9381686619373,-177.65281032909297,0.29268484893339103,-149.85040267685312,-32.2779,0.0244,29.8471,-95.9102,1.2936,65.5851,84.0264356254351,29.742390094417157,85.42936117342202,-26.926591661241318,-89.10321553548177,-36.21342976888021,-2.884087893042234,-2.122251302889078,-1.8226223180789758,3.9394039577907987,0.06785074869791667,-2.9176754421657987,-1.9655,-1.042,-0.7044,0.00692,-0.00145,0.04171,0.0010910879354923964,0.0010002502240240574,0.0010595330968499184,0.0006061547319404781,0.000499522837344557,0.00041809221147559583,0.00862041860818863,0.009373931214213371,0.011540919542312622,passive,0
0.4805,rehab,large_fast,75.08868312195439,-666.6326631751298,267.43660653433636,-177.6524650937876,0.2923885005155322,-149.84985629148684,-33.4002,0.0396,30.3396,-98.6717,0.8148,59.9497,83.97879194505144,29.706392193784808,85.40041328656791,-26.86074998643663,-89.10204569498698,-36.260876125759545,-3.047339562142249,-2.3943328857421875,-1.872441508982441,4.251539442274305,0.06785074869791667,-3.0533854166666665,-2.096,-1.16,-0.6963,-0.01182,0.00306,0.03281,0.0010910879354923964,0.0010002502240240574,0.0010595330968499184,0.0006061547319404781,0.000499522837344557,0.00041809221147559583,0.00862041860818863,0.009373931214213371,0.011540919542312622,passive,0
0.5009,rehab,large_fast,74.22635906731684,-666.6284307763403,268.23595490669226,-177.6505473559739,0.29104708915713373,-149.848150607754,-35.4095,0.0358,31.4206,-108.2631,0.1428,60.708,83.90321334989945,29.648645986424814,85.35462558859646,-26.757388644748264,-89.10005357530382,-36.336983574761284,-3.373836101871906,-2.557584554842203,-1.9723790234858447,4.464280870225695,0.06785074869791667,-3.392647637261285,-2.0628,-1.2679,-0.9896,0.00068,-0.0021,0.03666,0.0010910879354923964,0.0010002502240240574,0.0010595330968499184,0.0006061547319404781,0.000499522837344557,0.00041809221147559583,0.00862041860818863,0.009373931214213371,0.011540919542312622,passive,0
0.5207,rehab,large_fast,73.61133773816597,-666.6254440653152,268.7793849150229,-177.65031487062248,0.29090984540776715,-149.8476312825798,-38.7396,0.0409,33.5547,-122.0914,-0.3633,67.9695,83.84931507677135,29.609282842957146,85.32317586464457,-26.685316297743054,-89.09865485297308,-36.390584309895836,-3.482672814095374,-2.448754641089109,-2.014386771929146,4.54331292046441,0.13570149739583334,-3.324796888563368,-2.0891,-1.109,-0.6995,-0.00755,0.00018,0.03717,0.0010910879354923964,0.0010002502240240574,0.0010595330968499184,0.0006061547319404781,0.000499522837344557,0.00041809221147559583,0.00862041860818863,0.009373931214213371,0.011540919542312622,passive,0
0.5405,rehab,large_fast,72.96808105039945,-666.6267968335159,269.33608566646603,-177.6497974286501,0.29050078082287806,-149.84732843673984,-40.6432,0.0384,34.3487,-131.3261,-0.6164,75.3379,83.79299654818998,29.569443806563275,85.29029846191406,-26.61166720920139,-89.09724765353732,-36.44637213812934,-3.64592448319539,-2.503169597965656,-2.1024813510403773,4.682769775390625,0.13570149739583334,-3.528349134657118,-2.2208,-0.9075,0.2753,-0.00491,0.00055,0.03941,0.0010910879354923964,0.0010002502240240574,0.0010595330968499184,0.0006061547319404781,0.000499522837344557,0.00041809221147559583,0.00862041860818863,0.009373931214213371,0.011540919542312622,passive,0
0.5611,rehab,large_fast,71.94219585497372,-666.6292629191313,270.17293195207657,-177.65107549264187,0.29143416564660596,-149.8487300912664,-43.4744,0.016,35.9574,-128.9164,-0.6873,74.1873,83.7031887545444,29.50937252233524,85.24022092913637,-26.49744669596354,-89.09501817491319,-36.53349134657118,-3.754754396948484,-2.503169597965656,-2.0793665517674813,4.860882229275173,-0.0,-3.8676198323567705,-2.1405,-1.0684,-0.6492,0.00362,-0.0077,0.04379,0.0010910879354923964,0.0010002502240240574,0.0010595330968499184,0.0006061547319404781,0.000499522837344557,0.00041809221147559583,0.00862041860818863,0.009373931214213371,0.011540919542312622,passive,0
0.5808,rehab,large_fast,71.23522248426097,-666.6298410986352,270.7369109310346,-177.65251060858236,0.2924626858809494,-149.84881188558796,-46.3309,-0.0152,37.6938,-105.348,-0.69,55.2567,83.64128868178565,29.468833243492806,85.2062965619682,-26.419474283854164,-89.09347534179688,-36.594433254665795,-3.8635911091719524,-2.61199951171875,-2.232168971902073,4.788123236762153,0.06785074869791667,-3.799769083658854,-2.2559,-1.0671,-0.3688,-0.00534,-0.01225,0.03962,0.0010910879354923964,0.0010002502240240574,0.0010595330968499184,0.0006061547319404781,0.000499522837344557,0.00041809221147559583,0.00862041860818863,0.009373931214213371,0.011540919542312622,passive,0
0.6008,rehab,large_fast,69.95981008845658,-666.6289772477871,271.775608540746,-177.65239031347025,0.29235691825448484,-149.84962012675547,-48.1022,-0.0283,38.6952,-65.2236,-0.6127,22.8486,83.52960341047532,29.39438999289333,85.14476360660969,-26.280526055230034,-89.09067789713542,-36.703737046983505,-4.026835979801594,-2.7208362239422184,-2.2421423279412904,4.9067942301432295,0.13570149739583334,-3.799769083658854,-2.157,-1.1036,-0.3966,0.00337,-0.01307,0.04212,0.0010910879354923964,0.0010002502240240574,0.0010595330968499184,0.0006061547319404781,0.000499522837344557,0.00041809221147559583,0.00862041860818863,0.009373931214213371,0.011540919542312622,passive,0
0.6207,rehab,large_fast,69.20039003400922,-666.6269792909238,272.380991710361,-177.65202323274332,0.29208131030466605,-149.85071469526082,-49.8717,-0.0212,39.6713,-32.5474,-0.3619,-2.9996,83.46309397480276,29.350838991675047,85.10930958360728,-26.200129191080727,-89.08901638454861,-36.76823933919271,-4.244502605778156,-2.8296661376953125,-2.253441385703512,5.049429999457465,0.13570149739583334,-4.071180555555555,-2.3456,-1.0484,-0.5714,0.01018,-0.01361,0.04437,0.0010910879354923964,0.0010002502240240574,0.0010595330968499184,0.0006061547319404781,0.000499522837344557,0.00041809221147559583,0.00862041860818863,0.009373931214213371,0.011540919542312622,passive,0
0.6406,rehab,large_fast,68.04988493459012,-666.6273941897225,273.3083587394914,-177.65010607927107,0.2906884928407242,-149.8513911035127,-50.2345,-0.02,39.2257,-6.67,-0.0096,-23.7711,83.36236103926555,29.28494141833617,85.05428956286742,-26.07874552408854,-89.08643934461806,-36.866912841796875,-4.244502605778156,-2.8296661376953125,-2.2814850759978342,5.07904052734375,0.06785074869791667,-4.139031304253472,-2.314,-1.1724,-0.5827,0.00719,-0.01603,0.03904,0.0010910879354923964,0.0010002502240240574,0.0010595330968499184,0.0006061547319404781,0.000499522837344557,0.00041809221147559583,0.00862041860818863,0.009373931214213371,0.011540919542312622,passive,0
0.6607,rehab,large_fast,67.27568714772391,-666.6293123228479,273.9137099483163,-177.65004250992448,0.29063007446297906,-149.851036873064,-48.8074,-0.0319,37.4167,7.1647,0.2823,-36.5363,83.29459388657372,29.242247024385055,85.01729908556041,-25.997212727864582,-89.08471001519096,-36.93411085340712,-4.244502605778156,-2.6664212670656715,-2.243977914942373,5.086627536349826,0.13570149739583334,-3.9354705810546875,-2.3548,-1.0727,-0.2309,-0.01087,-0.00492,0.04029,0.0010910879354923964,0.0010002502240240574,0.0010595330968499184,0.0006061547319404781,0.000499522837344557,0.00041809221147559583,0.00862041860818863,0.009373931214213371,0.011540919542312622,passive,0
0.681,rehab,large_fast,66.1039097017473,-666.6307073528448,274.80329531389674,-177.65095733008073,0.2912910266341276,-149.85092026851865,-47.7459,-0.031,35.8077,5.4277,0.3947,-38.0105,83.19201856556505,29.179415561185024,84.96262578680964,-25.875659518771702,-89.08210754394531,-37.03542921278212,-4.353339318001624,-2.61199951171875,-2.3182512037824874,4.9637095133463545,0.06785074869791667,-4.139031304253472,-2.4259,-1.1636,-0.938,-0.00575,0.00334,0.04899,0.0010910879354923964,0.0010002502240240574,0.0010595330968499184,0.0006061547319404781,0.000499522837344557,0.00041809221147559583,0.00862041860818863,0.009373931214213371,0.011540919542312622,passive,0
0.7007,rehab,large_fast,65.30919850164635,-666.6315859460752,275.3835848579717,-177.65211303219465,0.2921560706921758,-149.85140316561507,-47.9256,-0.0095,35.4007,0.58,0.2719,-36.3,83.12245661669438,29.13837999400526,84.92677745252553,-25.795364379882812,-89.08034430609808,-37.10360209147135,-4.353339318001624,-2.448754641089109,-2.2364384112971845,4.909142388237847,0.13570149739583334,-4.342592027452257,-2.5882,-1.2191,-0.8069,-0.03489,0.00576,0.04582,0.0010910879354923964,0.0010002502240240574,0.0010595330968499184,0.0006061547319404781,0.000499522837344557,0.00041809221147559583,0.00862041860818863,0.009373931214213371,0.011540919542312622,passive,0
0.7207,rehab,large_fast,64.1030693043532,-666.6321986117412,276.23941368352905,-177.65432279017878,0.2938193898737525,-149.85220998273746,-48.5692,-0.0004,35.2828,-12.1094,0.0133,-28.17,83.01688317025062,29.077812421439898,84.87374258513498,-25.676006740993923,-89.07766554090712,-37.207022772894966,-4.462176030225093,-2.503169597965656,-2.177522867032797,4.873462253146701,0.06785074869791667,-4.274732801649305,-2.5784,-1.1008,-0.5903,-0.00969,-0.00569,0.04898,0.0010910879354923964,0.0010002502240240574,0.0010595330968499184,0.0006061547319404781,0.000499522837344557,0.00041809221147559583,0.00862041860818863,0.009373931214213371,0.011540919542312622,passive,0
0.7409,rehab,large_fast,63.291826421249226,-666.6316527004426,276.82297225027463,-177.65402708718574,0.2935393176069855,-149.85302509756454,-49.6687,-0.0014,35.3504,-28.4394,-0.2655,-18.8434,82.94587994566058,29.036552504737777,84.83837694224745,-25.597780015733505,-89.07591078016493,-37.27632310655382,-4.462176030225093,-2.557584554842203,-2.2174978728341586,4.769541422526042,0.13570149739583334,-4.410442776150173,-2.7757,-1.0178,-0.1711,-0.00506,-0.00137,0.05301,0.0010910879354923964,0.0010002502240240574,0.0010595330968499184,0.0006061547319404781,0.000499522837344557,0.00041809221147559583,0.00862041860818863,0.009373931214213371,0.011540919542312622,passive,0
0.7607,rehab,large_fast,62.48396284884465,-666.6297744534935,277.3985662360203,-177.65357958236262,0.29328681059815065,-149.85355048045923,-50.8707,-0.001,35.4061,-34.8045,-0.4961,-19.7134,82.87514186141514,28.995788876372988,84.80364355710473,-25.520782470703125,-89.07403733995226,-37.34565734863281,-4.4077542748781715,-2.557584554842203,-2.1974355867593593,4.799541897243923,0.13570149739583334,-4.274732801649305,-2.6111,-1.1843,-0.5175,-0.00142,-0.00455,0.04858,0.0010910879354923964,0.0010002502240240574,0.0010595330968499184,0.0006061547319404781,0.000499522837344557,0.00041809221147559583,0.00862041860818863,0.009373931214213371,0.011540919542312622,passive,0
0.7804,rehab,large_fast,61.279158910755434,-666.62790798064,278.26454484028045,-177.65040894510364,0.2909145426090904,-149.85390625776407,-50.5964,-0.0183,34.2707,-27.259,-0.4633,-31.1402,82.76967719049738,28.93475900782217,84.75208395778543,-25.409138997395832,-89.071290757921,-37.44948493109809,-4.4077542748781715,-2.557584554842203,-2.097158148737237,4.636162651909722,0.06785074869791667,-4.342592027452257,-2.5437,-1.1634,-0.5279,-0.00402,-0.00836,0.05101,0.0010910879354923964,0.0010002502240240574,0.0010595330968499184,0.0006061547319404781,0.000499522837344557,0.00041809221147559583,0.00862041860818863,0.009373931214213371,0.011540919542312622,passive,0
0.8007,rehab,large_fast,60.27670059715931,-666.6300439679698,278.94996230320055,-177.6486082029672,0.2894867472470574,-149.85380990356398,-50.6382,-0.0452,33.2137,-8.2699,0.0752,-46.8755,82.68198372113822,28.88678220239016,84.7104025359201,-25.319256252712673,-89.06905280219183,-37.53624810112847,-4.462176030225093,-2.2310880151125465,-2.040635666044632,4.450742933485243,0.06785074869791667,-4.410442776150173,-2.5436,-1.075,-0.21,-0.00086,-0.00917,0.04371,0.0010910879354923964,0.0010002502240240574,0.0010595330968499184,0.0006061547319404781,0.000499522837344557,0.00041809221147559583,0.00862041860818863,0.009373931214213371,0.011540919542312622,passive,0
0.8206,rehab,large_fast,59.07313247194192,-666.6351871383682,279.7033229829146,-177.6495031971279,0.29006525425273777,-149.85369850775584,-51.3077,-0.0583,32.532,6.6571,0.7342,-54.4283,82.57674339974281,28.834026072284964,84.66324834540339,-25.215250651041664,-89.06639099121094,-37.64042324490017,-4.298924361125077,-2.176666259765625,-1.8380956366510675,4.289466010199653,0.06785074869791667,-4.410442776150173,-2.6129,-1.1628,-0.6322,-0.01305,-0.01294,0.04305,0.0010910879354923964,0.0010002502240240574,0.0010595330968499184,0.0006061547319404781,0.000499522837344557,0.00041809221147559583,0.00862041860818863,0.009373931214213371,0.011540919542312622,passive,0
0.8407,rehab,large_fast,58.28538147043801,-666.6333670802697,280.1770330400931,-177.65116537056022,0.2914065728949728,-149.85260292727153,-50.93,-0.039,31.2952,11.6241,1.0619,-51.399,82.50778651473546,28.800251271465036,84.63401492279355,-25.148086547851562,-89.06450907389323,-37.709715101453995,-4.298924361125077,-2.122251302889078,-1.8092429283821936,4.189749823676215,0.13570149739583334,-4.139031304253472,-2.684,-1.1706,-0.3968,0.00113,-0.01,0.05239,0.0010910879354923964,0.0010002502240240574,0.0010595330968499184,0.0006061547319404781,0.000499522837344557,0.00041809221147559583,0.00862041860818863,0.009373931214213371,0.011540919542312622,passive,0
0.861,rehab,large_fast,57.10937960372614,-666.6342715486162,280.8733280089908,-177.65291010590803,0.29282932920694543,-149.85082482974803,-51.1682,0.0067,30.3289,9.8948,1.1106,-43.1582,82.40489846408957,28.751091532187885,84.59057269710125,-25.05020989312066,-89.06171162923177,-37.81327141655816,-4.4077542748781715,-1.9589996337890625,-1.7772901176226021,3.9265187581380205,0.13570149739583334,-4.546152750651042,-2.7681,-1.4156,-0.7819,-0.01733,-0.01532,0.05284,0.0010910879354923964,0.0010002502240240574,0.0010595330968499184,0.0006061547319404781,0.000499522837344557,0.00041809221147559583,0.00862041860818863,0.009373931214213371,0.011540919542312622,passive,0
0.8805,rehab,large_fast,56.31507481198816,-666.6355948833974,281.33538120469484,-177.65334405811458,0.29311641264176197,-149.85016878823907,-49.9701,0.0646,29.0176,12.4544,0.8059,-37.1614,82.33543849227452,28.718526859094602,84.5620055245881,-24.986529880099827,-89.0599144829644,-37.8826649983724,-4.353339318001624,-2.067836346012531,-1.8028591647006498,3.9800262451171875,0.06785074869791667,-4.274732801649305,-2.8381,-1.4216,-0.7108,-0.01979,-0.00356,0.04819,0.0010910879354923964,0.0010002502240240574,0.0010595330968499184,0.0006061547319404781,0.000499522837344557,0.00041809221147559583,0.00862041860818863,0.009373931214213371,0.011540919542312622,passive,0
0.901,rehab,large_fast,55.10514476601756,-666.6336229894994,282.0473734066429,-177.65161233637494,0.29177229261383986,-149.8509777719925,-49.32,0.0947,28.415,15.3083,-0.0203,-32.5559,82.22959990548615,28.667993828801826,84.51968504650758,-24.892823961046005,-89.05715942382812,-37.98661973741319,-4.462176030225093,-2.0134145906656093,-1.706375273147432,3.8256666395399304,0.13570149739583334,-4.206882052951388,-2.9886,-1.4414,-1.0797,-0.03416,-0.00205,0.04896,0.0010910879354923964,0.0010002502240240574,0.0010595330968499184,0.0006061547319404781,0.000499522837344557,0.00041809221147559583,0.00862041860818863,0.009373931214213371,0.011540919542312622,passive,0
0.9208,rehab,large_fast,54.303134528097964,-666.6296278965799,282.51768327610966,-177.65053478747274,0.29088505988654717,-149.85069082598488,-50.1058,0.0563,28.6223,7.3429,-1.04,-23.7101,82.15941929581142,28.634477369856125,84.49192689196899,-24.83089870876736,-89.05534532335069,-38.05637783474392,-4.298924361125077,-2.067836346012531,-1.740639563834313,3.985909356011285,0.20355224609375,-4.342592027452257,-2.8191,-1.314,-0.5038,-0.00123,-0.01427,0.05912,0.0010910879354923964,0.0010002502240240574,0.0010595330968499184,0.0006061547319404781,0.000499522837344557,0.00041809221147559583,0.00862041860818863,0.009373931214213371,0.011540919542312622,passive,0
0.9409,rehab,large_fast,53.1023281380678,-666.62612693006,283.1999794351604,-177.64989350624728,0.29045776258737865,-149.8519722441293,-50.0263,0.0076,28.1762,9.4539,-1.7627,-20.538,82.05436933158647,28.58622182713877,84.45059899056312,-24.739066229926216,-89.05256483289931,-38.159094916449654,-4.4077542748781715,-2.0134145906656093,-1.7230995102684097,3.747406005859375,0.13570149739583334,-4.342592027452257,-2.7303,-1.4853,-1.2705,0.00166,-0.00449,0.05143,0.0010910879354923964,0.0010002502240240574,0.0010595330968499184,0.0006061547319404781,0.000499522837344557,0.00041809221147559583,0.00862041860818863,0.009373931214213371,0.011540919542312622,passive,0
0.9607,rehab,large_fast,52.11093605431353,-666.6269886851419,283.7517311474896,-177.6500702661471,0.29062230531649,-149.85121069997672,-49.6099,-0.036,27.4973,9.2301,-1.7401,-18.021,81.96768883431312,28.547858058816136,84.41577042683517,-24.6630859375,-89.05025058322482,-38.24567159016927,-4.353339318001624,-1.795747964689047,-1.735819448338877,3.7677849663628473,0.13570149739583334,-4.410442776150173,-3.0763,-1.3864,-1.2504,-0.02478,-0.01066,0.0551,0.0010910879354923964,0.0010002502240240574,0.0010595330968499184,0.0006061547319404781,0.000499522837344557,0.00041809221147559583,0.00862041860818863,0.009373931214213371,0.011540919542312622,passive,0
0.981,rehab,large_fast,51.32536580709142,-666.6284892653355,284.1848365330894,-177.65068274451974,0.2911236555949535,-149.85019805901706,-49.1905,-0.083,26.8971,-9.3737,-0.9674,-6.2125,81.89901748506149,28.518033169283726,84.38774033348159,-24.602406819661457,-89.0484110514323,-38.314666748046875,-4.353339318001624,-1.9589996337890625,-1.7808865084506498,3.7120734320746527,0.06785074869791667,-4.410442776150173,-2.8539,-1.3301,-1.2733,-0.00597,0.00283,0.05954,0.0010910879354923964,0.0010002502240240574,0.0010595330968499184,0.0006061547319404781,0.000499522837344557,0.00041809221147559583,0.00862041860818863,0.009373931214213371,0.011540919542312622,passive,0
1.001,rehab,large_fast,50.135498706544254,-666.6351175442913,284.8255719620425,-177.65202336517808,0.29213702528198776,-149.8489554298586,-50.2053,-0.1091,27.2468,-19.8017,0.2686,3.2494,81.79508246997796,28.47457734665068,84.34499835023786,-24.511455959743923,-89.04569837782118,-38.41881646050347,-4.244502605778156,-1.7413330078125,-1.7354387339979116,3.821419609917535,0.06785074869791667,-4.47829352484809,-2.9452,-1.2805,-0.973,0.0012,-0.00438,0.05378,0.0010910879354923964,0.0010002502240240574,0.0010595330968499184,0.0006061547319404781,0.000499522837344557,0.00041809221147559583,0.00862041860818863,0.009373931214213371,0.011540919542312622,passive,0
1.0205,rehab,large_fast,49.33139093184286,-666.6368614375222,285.2555259285425,-177.65288201242842,0.29281582589519806,-149.84925379742617,-49.7741,-0.0864,27.0021,-25.1193,1.3091,12.1046,81.72482027865873,28.445228350044477,84.31664872877668,-24.45061577690972,-89.04387580023871,-38.48809136284722,-4.571005943978187,-1.8501697200359684,-1.7803426308206993,3.846910264756944,0.13570149739583334,-4.410442776150173,-2.9743,-1.4483,-0.9759,0.00226,-0.00979,0.05803,0.0010910879354923964,0.0010002502240240574,0.0010595330968499184,0.0006061547319404781,0.000499522837344557,0.00041809221147559583,0.00862041860818863,0.009373931214213371,0.011540919542312622,passive,0
1.0406,rehab,large_fast,48.12767261006885,-666.6374959965488,285.90574467048344,-177.65351452832462,0.2933664788787343,-149.8493722875321,-48.7884,-0.0193,26.5251,-24.2243,1.8064,16.9937,81.61962074808555,28.400936315555384,84.27394073788483,-24.359698825412327,-89.04110378689236,-38.592139350043404,-4.516590987101639,-1.9045846769125154,-1.7548959562093904,3.800235324435764,0.13570149739583334,-4.342592027452257,-3.1069,-1.5333,-1.3787,-0.0246,0.00223,0.05576,0.0010910879354923964,0.0010002502240240574,0.0010595330968499184,0.0006061547319404781,0.000499522837344557,0.00041809221147559583,0.00862041860818863,0.009373931214213371,0.011540919542312622,passive,0
1.0611,rehab,large_fast,47.3163458173806,-666.6377226532087,286.35347673949735,-177.65287652058686,0.29289310945917607,-149.85043344991342,-52.0837,0.0383,28.4299,-13.3466,1.7404,14.0155,81.54872629902151,28.370635533096767,84.24474130762685,-24.29894341362847,-89.03926425509982,-38.661278618706596,-4.516590987101639,-1.9589996337890625,-1.8385851265180229,3.809534708658854,0.13570149739583334,-4.410442776150173,-3.2259,-1.5516,-0.8683,-0.02857,-0.00039,0.05643,0.0010910879354923964,0.0010002502240240574,0.0010595330968499184,0.0006061547319404781,0.000499522837344557,0.00041809221147559583,0.00862041860818863,0.009373931214213371,0.011540919542312622,passive,0
1.0804,rehab,large_fast,46.09977877757306,-666.6337279666999,287.0290504551121,-177.65204662104964,0.2922656175679594,-149.8519062778493,-53.2462,0.0754,29.2368,-4.9435,0.9352,9.4686,81.44237782695505,28.32478664889194,84.20085038288985,-24.207161797417534,-89.03651767306857,-38.765106201171875,-4.353339318001624,-1.9045846769125154,-1.860741341468131,3.9177364773220487,0.13570149739583334,-4.342592027452257,-3.036,-1.5015,-1.3206,0.00106,-0.005,0.05926,0.0010910879354923964,0.0010002502240240574,0.0010595330968499184,0.0006061547319404781,0.000499522837344557,0.00041809221147559583,0.00862041860818863,0.009373931214213371,0.011540919542312622,passive,0
1.1008,rehab,large_fast,45.288263079113314,-666.6327207692696,287.4760604404508,-177.6516958457391,0.2919871872905546,-149.85280716332272,-51.5537,0.0815,28.5074,0.0989,-0.4739,4.9209,81.37146978095026,28.29485298383354,84.17107308265007,-24.145838419596352,-89.03470357259114,-38.83441501193576,-4.353339318001624,-1.8501697200359684,-1.8656702324895575,3.7360297309027777,0.13570149739583334,-4.342592027452257,-3.1231,-1.4815,-0.3081,-0.0175,0.00143,0.05321,0.0010910879354923964,0.0010002502240240574,0.0010595330968499184,0.0006061547319404781,0.000499522837344557,0.00041809221147559583,0.00862041860818863,0.009373931214213371,0.011540919542312622,passive,0
1.1207,rehab,large_fast,44.078189745551114,-666.628892690162,288.14064570103943,-177.6517559147798,0.2919520212536355,-149.8536942365939,-51.0331,0.0534,28.3135,10.0863,-1.7076,-2.5552,81.26572637274714,28.250438576877706,84.12641393076075,-24.05364990234375,-89.03205871582031,-38.93822564019097,-4.353339318001624,-1.686918050935953,-1.8772956168297494,3.906606038411458,0.13570149739583334,-4.410442776150173,-3.193,-1.5801,-0.7155,-0.01962,-0.00991,0.05448,0.0010910879354923964,0.0010002502240240574,0.0010595330968499184,0.0006061547319404781,0.000499522837344557,0.00041809221147559583,0.00862041860818863,0.009373931214213371,0.011540919542312622,passive,0
1.1409,rehab,large_fast,43.068157996515176,-666.6305883802721,288.693638674686,-177.65125934655262,0.2915486095799938,-149.85469405176417,-49.5104,0.0055,27.4775,40.3686,-2.2103,-21.3112,81.17753661505067,28.214304706837872,84.08817933337524,-23.977347479926216,-89.02981228298611,-39.024548000759545,-4.4077542748781715,-1.795747964689047,-1.9482444536567916,3.8251749674479165,0.06785074869791667,-4.206882052951388,-3.1861,-1.6519,-0.8708,-0.02196,-0.00481,0.05661,0.0010910879354923964,0.0010002502240240574,0.0010595330968499184,0.0006061547319404781,0.000499522837344557,0.00041809221147559583,0.00862041860818863,0.009373931214213371,0.011540919542312622,passive,0
1.1615,rehab,large_fast,41.88473089652313,-666.6319499459423,289.3533948367401,-177.6512461750693,0.2916175946447932,-149.85303070024668,-50.0763,-0.0723,27.739,48.7817,-1.8895,-26.9023,81.07418626841933,28.17173948382387,84.04140585719949,-23.88487074110243,-89.0270487467448,-39.12851121690538,-4.244502605778156,-1.795747964689047,-1.9347154976117729,3.722279866536458,0.13570149739583334,-4.206882052951388,-3.2012,-1.7106,-1.311,-0.01048,-0.01013,0.06054,0.0010910879354923964,0.0010002502240240574,0.0010595330968499184,0.0006061547319404781,0.000499522837344557,0.00041809221147559583,0.00862041860818863,0.009373931214213371,0.011540919542312622,passive,0
1.1808,rehab,large_fast,41.09727270890116,-666.6325081453152,289.8018578116151,-177.65092732060037,0.2913648135377426,-149.85189224119412,-50.2211,-0.1255,27.7866,15.2601,-0.9524,-6.9854,81.00542653905283,28.14306353578473,84.00937826326577,-23.82250467936198,-89.02525160047743,-39.197701348198784,-4.516590987101639,-1.795747964689047,-2.0526349662554146,3.958180745442708,0.06785074869791667,-4.206882052951388,-3.1995,-1.652,-1.2067,-0.00923,-0.01165,0.06188,0.0010910879354923964,0.0010002502240240574,0.0010595330968499184,0.0006061547319404781,0.000499522837344557,0.00041809221147559583,0.00862041860818863,0.009373931214213371,0.011540919542312622,passive,0
1.2008,rehab,large_fast,40.29603708410737,-666.6342685170983,290.2464728109553,-177.65096455648742,0.29146034012831584,-149.85253749139062,-49.1042,-0.1325,27.2339,-8.674,0.4723,10.6594,80.93549067431157,28.114856682201424,83.97709912592822,-23.759875827365452,-89.02342902289496,-39.26628112792969,-4.353339318001624,-1.7413330078125,-2.0664562565265316,3.9823235405815973,0.06785074869791667,-4.274732801649305,-3.1805,-1.6987,-1.374,0.00238,0.00879,0.06444,0.0010910879354923964,0.0010002502240240574,0.0010595330968499184,0.0006061547319404781,0.000499522837344557,0.00041809221147559583,0.00862041860818863,0.009373931214213371,0.011540919542312622,passive,0
1.2205,rehab,large_fast,39.07508935119338,-666.6380157002136,290.91857234863073,-177.65121364553562,0.2915875478559099,-149.85438484128204,-48.0013,-0.094,26.7082,-12.9764,1.8012,18.7461,80.82897903895613,28.072644979646892,83.92758586619159,-23.664771185980904,-89.02081807454427,-39.369871351453995,-4.571005943978187,-1.6325030940594059,-2.0673468561455755,4.03047349717882,0.13570149739583334,-4.342592027452257,-3.3248,-1.7706,-1.8775,-0.02059,-0.00201,0.06487,0.0010910879354923964,0.0010002502240240574,0.0010595330968499184,0.0006061547319404781,0.000499522837344557,0.00041809221147559583,0.00862041860818863,0.009373931214213371,0.011540919542312622,passive,0
1.2406,rehab,large_fast,38.267323603808556,-666.641775712288,291.36655929203374,-177.65163087729377,0.2918643372093027,-149.855132178399,-47.5866,-0.0221,26.7043,-11.2812,2.6199,22.5596,80.75854008740718,28.044982003693534,83.8937226852568,-23.600675794813366,-89.01909722222221,-39.438841078016495,-4.516590987101639,-1.795747964689047,-2.157562558013614,4.100028143988715,0.13570149739583334,-4.206882052951388,-3.292,-1.7056,-1.5838,-0.01742,-0.00121,0.06675,0.0010910879354923964,0.0010002502240240574,0.0010595330968499184,0.0006061547319404781,0.000499522837344557,0.00041809221147559583,0.00862041860818863,0.009373931214213371,0.011540919542312622,passive,0
1.2611,rehab,large_fast,37.068549536805634,-666.6433467495802,292.0305534837511,-177.65301564185242,0.2930330733843102,-149.8544624234724,-51.3171,0.0472,29.2464,-11.2021,2.5692,25.3285,80.65393882222695,28.00391924263227,83.84324404272702,-23.50418938530816,-89.01640150282118,-39.54302469889323,-4.298924361125077,-1.7413330078125,-2.187523416953512,4.0602874755859375,-0.0,-4.410442776150173,-3.3273,-1.7961,-1.1969,-0.02574,0.0028,0.06046,0.0010910879354923964,0.0010002502240240574,0.0010595330968499184,0.0006061547319404781,0.000499522837344557,0.00041809221147559583,0.00862041860818863,0.009373931214213371,0.011540919542312622,passive,0
1.2806,rehab,large_fast,36.27635570978848,-666.6396822777716,292.4895515706568,-177.6529472503605,0.29300804781852474,-149.85421286499786,-51.9408,0.1022,30.0864,-14.7806,1.6248,25.9874,80.58475758769724,27.975250093063504,83.80932647402923,-23.43960232204861,-89.01462131076389,-39.61172315809462,-4.298924361125077,-1.7413330078125,-2.102991236318456,4.102867974175347,0.13570149739583334,-4.274732801649305,-3.3596,-1.8283,-1.4374,-0.02706,-0.00139,0.06133,0.0010910879354923964,0.0010002502240240574,0.0010595330968499184,0.0006061547319404781,0.000499522837344557,0.00041809221147559583,0.00862041860818863,0.009373931214213371,0.011540919542312622,passive,0
1.3009,rehab,large_fast,35.090670407871826,-666.634914023644,293.18215454980566,-177.65260449238988,0.2926988622582495,-149.85289091528094,-50.0578,0.134,29.5169,-9.1288,0.2475,18.4309,80.48124407777692,27.932453722056774,83.75754932365795,-23.342361450195312,-89.01199340820312,-39.71545749240451,-4.298924361125077,-1.795747964689047,-2.216280946637144,4.108488294813368,0.13570149739583334,-4.546152750651042,-3.4973,-1.843,-1.48,-0.02059,-0.00237,0.0664,0.0010910879354923964,0.0010002502240240574,0.0010595330968499184,0.0006061547319404781,0.000499522837344557,0.00041809221147559583,0.00862041860818863,0.009373931214213371,0.011540919542312622,passive,0
1.3207,rehab,large_fast,34.301137275996176,-666.630814157834,293.6551813502415,-177.65171084612973,0.2919278575954171,-149.85195749397616,-49.8115,0.1216,29.6145,6.8858,-0.8929,4.4982,80.41231438665106,27.903376664265547,83.72228565782603,-23.277113172743054,-89.010255601671,-39.784579806857636,-4.190087648901609,-1.795747964689047,-2.25637152643487,4.052649603949653,0.20355224609375,-4.47829352484809,-3.4437,-1.8088,-2.0954,-0.01363,-0.00106,0.06799,0.0010910879354923964,0.0010002502240240574,0.0010595330968499184,0.0006061547319404781,0.000499522837344557,0.00041809221147559583,0.00862041860818863,0.009373931214213371,0.011540919542312622,passive,0
1.3409,rehab,large_fast,32.9204708188592,-666.6276969272475,294.4934922961461,-177.65006191716694,0.29050172209123304,-149.84965990201098,-49.7698,0.0683,29.6747,27.3561,-1.5446,-10.7397,80.2918522900874,27.85293201408764,83.65812169443262,-23.1610107421875,-89.00721232096355,-39.90602281358507,-4.353339318001624,-1.686918050935953,-2.3383814745610305,4.305809868706597,0.13570149739583334,-4.410442776150173,-3.3537,-1.7305,-1.7218,-0.00611,-0.01307,0.06685,0.0010910879354923964,0.0010002502240240574,0.0010595330968499184,0.0006061547319404781,0.000499522837344557,0.00041809221147559583,0.00862041860818863,0.009373931214213371,0.011540919542312622,passive,0
1.3606,rehab,large_fast,32.1275005833217,-666.6282578746501,294.9679069105341,-177.64971491419803,0.2902279676904828,-149.8491984951938,-49.8125,0.002,29.5819,22.9728,-1.517,-8.0071,80.22271184637995,27.82495630849706,83.62062813031791,-23.093897501627605,-89.00545756022136,-39.974865383572045,-4.462176030225093,-1.7413330078125,-2.3961140849802756,4.263551500108507,0.06785074869791667,-4.206882052951388,-3.4961,-1.8993,-1.5476,-0.02871,-0.00516,0.06446,0.0010910879354923964,0.0010002502240240574,0.0010595330968499184,0.0006061547319404781,0.000499522837344557,0.00041809221147559583,0.00862041860818863,0.009373931214213371,0.011540919542312622,passive,0
1.3807,rehab,large_fast,31.326368461573427,-666.6303259746562,295.44648051968204,-177.6496381083094,0.2901542329144781,-149.84938102556757,-49.0797,-0.0307,29.0994,0.1931,-0.9396,9.7201,80.15289835410543,27.79715056466584,83.58204001247293,-23.025521172417534,-89.00372823079427,-40.043724907769096,-4.4077542748781715,-1.686918050935953,-2.3284081185218133,4.386817084418403,0.06785074869791667,-4.47829352484809,-3.5615,-1.8054,-1.5638,-0.02335,-0.00179,0.06955,0.0010910879354923964,0.0010002502240240574,0.0010595330968499184,0.0006061547319404781,0.000499522837344557,0.00041809221147559583,0.00862041860818863,0.009373931214213371,0.011540919542312622,passive,0
1.4009,rehab,large_fast,30.118777378672775,-666.6328929510888,296.146725399438,-177.6515240993463,0.2917601707316854,-149.84991885765686,-49.0806,-0.0289,29.3314,-8.515,-0.0342,23.3176,80.04767162965075,27.756869627697633,83.52398787394608,-22.921566433376736,-89.00110880533855,-40.147247314453125,-4.298924361125077,-1.686918050935953,-2.4576538388091738,4.3498992919921875,0.13570149739583334,-4.274732801649305,-3.5367,-1.6759,-2.2207,-0.00106,-0.00758,0.07439,0.0010910879354923964,0.0010002502240240574,0.0010595330968499184,0.0006061547319404781,0.000499522837344557,0.00041809221147559583,0.00862041860818863,0.009373931214213371,0.011540919542312622,passive,0
1.4208,rehab,large_fast,29.310338076690492,-666.6341843745341,296.6255179929423,-177.65236902559562,0.2924005903608034,-149.85062084998808,-48.9941,-0.0107,29.7657,-9.9032,0.7624,32.7102,79.97724627504255,27.729532978322247,83.4842304191967,-22.85131666395399,-88.9994388156467,-40.21618313259548,-4.462176030225093,-1.7413330078125,-2.449855993289759,4.364005194769965,0.13570149739583334,-4.342592027452257,-3.6534,-1.6171,-0.9297,-0.02363,-0.00485,0.06595,0.0010910879354923964,0.0010002502240240574,0.0010595330968499184,0.0006061547319404781,0.000499522837344557,0.00041809221147559583,0.00862041860818863,0.009373931214213371,0.011540919542312622,passive,0
1.4408,rehab,large_fast,28.098744640035754,-666.6329347234926,297.35811684963494,-177.65344069826116,0.29333686203981124,-149.8511900507179,-49.8048,0.0258,31.0596,-10.8483,0.9262,39.0046,79.87165243318765,27.687769974812422,83.4234113032275,-22.744149102105034,-88.996827867296,-40.32000223795573,-4.353339318001624,-1.795747964689047,-2.6186620126856437,4.55473158094618,0.06785074869791667,-4.410442776150173,-3.4806,-1.6939,-1.4564,-0.01988,-0.01649,0.06779,0.0010910879354923964,0.0010002502240240574,0.0010595330968499184,0.0006061547319404781,0.000499522837344557,0.00041809221147559583,0.00862041860818863,0.009373931214213371,0.011540919542312622,passive,0
1.4606,rehab,large_fast,27.297170548527,-666.6304472337845,297.86296367322007,-177.65385691199486,0.2937396345782714,-149.8522018856907,-50.4365,0.0538,32.2443,-12.0513,0.2612,41.2372,79.80177775467976,27.659155213006652,83.38143754713606,-22.670906914605034,-88.99510701497395,-40.38803948296441,-4.298924361125077,-1.7413330078125,-2.6277175752243194,4.637654622395833,0.13570149739583334,-4.342592027452257,-3.734,-1.6176,-1.1737,-0.0328,0.00336,0.07014,0.0010910879354923964,0.0010002502240240574,0.0010595330968499184,0.0006061547319404781,0.000499522837344557,0.00041809221147559583,0.00862041860818863,0.009373931214213371,0.011540919542312622,passive,0
1.4809,rehab,large_fast,26.1056177696252,-666.6267256222366,298.65480863986903,-177.6528596225713,0.2928571074102235,-149.85189750785833,-50.4165,0.0641,33.11,-14.0379,-0.8118,41.1788,79.69793111971109,27.614747604521195,83.31571673402692,-22.55896674262153,-88.99259779188368,-40.490926106770836,-4.353339318001624,-1.8501697200359684,-2.7668006821434097,4.748128255208333,-0.0,-4.342592027452257,-3.7111,-1.7538,-1.8015,-0.02515,-0.00529,0.07004,0.0010910879354923964,0.0010002502240240574,0.0010595330968499184,0.0006061547319404781,0.000499522837344557,0.00041809221147559583,0.00862041860818863,0.009373931214213371,0.011540919542312622,passive,0
1.5008,rehab,large_fast,25.312064162160226,-666.6287724581421,299.1943084357914,-177.6516768413737,0.2918561568622067,-149.85160727393287,-50.5697,0.0451,33.7446,-13.0486,-1.5159,39.7731,79.628851862237,27.58535101862237,83.2698406559406,-22.48314751519097,-88.99091084798177,-40.55943806966146,-4.353339318001624,-1.9045846769125154,-2.776400122312036,4.802669949001736,0.06785074869791667,-4.274732801649305,-3.6543,-1.6237,-1.8778,-0.02843,-0.0053,0.07235,0.0010910879354923964,0.0010002502240240574,0.0010595330968499184,0.0006061547319404781,0.000499522837344557,0.00041809221147559583,0.00862041860818863,0.009373931214213371,0.011540919542312622,passive,0
1.5209,rehab,large_fast,24.10300639375837,-666.62716107151,300.01487795342405,-177.6502366727417,0.2906666277876154,-149.8521268569488,-50.3977,-0.0144,34.0973,-5.483,-1.583,36.4538,79.52355035460822,27.54047431568108,83.20019712542543,-22.367324829101562,-88.98834228515625,-40.66290961371528,-4.4077542748781715,-1.8501697200359684,-2.8801787725769645,4.973670111762153,0.20355224609375,-4.139031304253472,-3.7767,-1.6111,-1.6755,-0.03044,0.00108,0.07134,0.0010910879354923964,0.0010002502240240574,0.0010595330968499184,0.0006061547319404781,0.000499522837344557,0.00041809221147559583,0.00862041860818863,0.009373931214213371,0.011540919542312622,passive,0
1.5409,rehab,large_fast,23.292759528981026,-666.6289307699822,300.56781553967727,-177.64972132900343,0.2902606997698297,-149.85298187114392,-50.1858,-0.0868,34.4525,4.4813,-1.0519,36.4415,79.4530434183555,27.510968954256267,83.15192118729695,-22.288089328342014,-88.98663838704427,-40.73166741265191,-4.4077542748781715,-1.7413330078125,-3.0010011880704672,5.035196940104167,0.20355224609375,-4.206882052951388,-3.8293,-1.6224,-1.7639,-0.02969,0.0073,0.07637,0.0010910879354923964,0.0010002502240240574,0.0010595330968499184,0.0006061547319404781,0.000499522837344557,0.00041809221147559583,0.00862041860818863,0.009373931214213371,0.011540919542312622,passive,0
1.5612,rehab,large_fast,22.077075435479447,-666.6293367254539,301.38399470041105,-177.65181520209964,0.2920031480429357,-149.8544931847196,-50.8366,-0.128,35.6692,10.7191,-0.1355,45.1803,79.34725242085976,27.467921039845685,83.07857249042776,-22.165807088216145,-88.98418850368924,-40.83457946777344,-4.298924361125077,-1.7413330078125,-3.1504995516031093,5.104259914822048,0.13570149739583334,-4.274732801649305,-3.7448,-1.5675,-1.901,-0.02107,-0.00325,0.07541,0.0010910879354923964,0.0010002502240240574,0.0010595330968499184,0.0006061547319404781,0.000499522837344557,0.00041809221147559583,0.00862041860818863,0.009373931214213371,0.011540919542312622,passive,0
1.5807,rehab,large_fast,21.075345840291345,-666.6316961951957,302.0902968840444,-177.6534491684957,0.29338086158856935,-149.85464192055895,-50.9879,-0.0999,36.8824,17.9074,0.9432,52.7592,79.26012322454169,27.43149483557975,83.01393943257851,-22.05997043185764,-88.9821539984809,-40.92037624782986,-4.244502605778156,-1.795747964689047,-3.299909535020885,5.272021823459201,0.13570149739583334,-4.410442776150173,-3.801,-1.5656,-1.9267,-0.0228,-0.0036,0.07526,0.0010910879354923964,0.0010002502240240574,0.0010595330968499184,0.0006061547319404781,0.000499522837344557,0.00041809221147559583,0.00862041860818863,0.009373931214213371,0.011540919542312622,passive,0
1.6007,rehab,large_fast,20.270283965410265,-666.6352943893482,302.6751037817969,-177.6546104748152,0.2944193717422821,-149.85459713995888,-50.1862,-0.0278,37.8982,22.8765,2.0749,59.0514,79.19013297203743,27.40187390015857,82.95969443746132,-21.97241889105903,-88.98048400878906,-40.98943074544271,-4.4077542748781715,-2.067836346012531,-3.5472378872408723,5.548036363389757,0.06785074869791667,-4.139031304253472,-3.7791,-1.6122,-1.5682,-0.01722,0.00225,0.07571,0.0010910879354923964,0.0010002502240240574,0.0010595330968499184,0.0006061547319404781,0.000499522837344557,0.00041809221147559583,0.00862041860818863,0.009373931214213371,0.011540919542312622,passive,0
1.6204,rehab,large_fast,19.06975525117482,-666.6393802926401,303.60887871195206,-177.65425892875962,0.29410595277517987,-149.85451577161487,-49.0025,0.0387,38.7855,22.7119,2.4699,62.9769,79.08576965332031,27.35476050046411,82.87397252451075,-21.836878458658855,-88.97805955674913,-41.09235127766927,-4.462176030225093,-2.067836346012531,-3.651546818195003,5.7089487711588545,0.13570149739583334,-4.206882052951388,-3.761,-1.4919,-1.2134,-0.00829,-0.00619,0.07869,0.0010910879354923964,0.0010002502240240574,0.0010595330968499184,0.0006061547319404781,0.000499522837344557,0.00041809221147559583,0.00862041860818863,0.009373931214213371,0.011540919542312622,passive,0
1.6409,rehab,large_fast,18.277052507991396,-666.637710445981,304.25654018034254,-177.6534335754419,0.29332673897911665,-149.85443300730557,-48.4671,0.078,40.3242,27.6581,1.6627,56.1947,79.0168059698426,27.32184910538173,82.81524733741685,-21.744274563259548,-88.97650824652777,-41.16035461425781,-4.190087648901609,-2.067836346012531,-3.5640776983582145,5.735821194118923,0.06785074869791667,-4.274732801649305,-3.6116,-1.5255,-1.3374,-0.01066,-0.02312,0.07596,0.0010910879354923964,0.0010002502240240574,0.0010595330968499184,0.0006061547319404781,0.000499522837344557,0.00041809221147559583,0.00862041860818863,0.009373931214213371,0.011540919542312622,passive,0
1.6605,rehab,large_fast,17.11221721299161,-666.632046336418,305.25291434552446,-177.65221845617734,0.29227112555906964,-149.85369524053385,-47.9748,0.0935,41.4383,33.3461,0.0544,42.6544,78.91541358267907,27.271486036848312,82.72453534721147,-21.601698133680554,-88.97416008843315,-41.260876125759545,-4.026835979801594,-2.176666259765625,-3.8485664896445697,6.009919908311632,0.13570149739583334,-4.206882052951388,-3.8401,-1.4127,-1.7759,-0.01742,-0.00163,0.08301,0.0010910879354923964,0.0010002502240240574,0.0010595330968499184,0.0006061547319404781,0.000499522837344557,0.00041809221147559583,0.00862041860818863,0.009373931214213371,0.011540919542312622,passive,0
1.6809,rehab,large_fast,16.353985823421432,-666.6254631695275,305.9205471433127,-177.65235397219791,0.29246874533642797,-149.85242887274538,-47.4894,0.1074,42.0498,32.3773,-1.6101,30.8159,78.84935964452158,27.237928787080367,82.6630431826752,-21.504364013671875,-88.97256639268663,-41.327099270290795,-3.9724210229250465,-2.067836346012531,-3.955275280640857,5.9503428141276045,0.06785074869791667,-4.139031304253472,-3.8817,-1.473,-1.4855,-0.02233,0.00078,0.07948,0.0010910879354923964,0.0010002502240240574,0.0010595330968499184,0.0006061547319404781,0.000499522837344557,0.00041809221147559583,0.00862041860818863,0.009373931214213371,0.011540919542312622,passive,0
1.7008,rehab,large_fast,15.222371183741997,-666.6233339362694,306.9484918210993,-177.650635434514,0.2909997667713974,-149.85114745675713,-47.5292,0.0701,43.1521,35.3388,-2.3796,19.6126,78.75094498738204,27.18754532313583,82.56736830909654,-21.357523600260418,-88.97027757432726,-41.42513699001736,-4.135672692025062,-1.9589996337890625,-4.055953828415068,6.1402130126953125,0.13570149739583334,-3.8676198323567705,-3.8436,-1.472,-1.961,-0.02073,0.00261,0.08231,0.0010910879354923964,0.0010002502240240574,0.0010595330968499184,0.0006061547319404781,0.000499522837344557,0.00041809221147559583,0.00862041860818863,0.009373931214213371,0.011540919542312622,passive,0
1.7207,rehab,large_fast,14.468401925405042,-666.6269420672164,307.6392399590898,-177.64939460113303,0.28990397528085954,-149.8525451777819,-46.5934,-0.0303,43.102,50.1638,-2.231,2.584,78.6854893146175,27.154661121934947,82.50166789139851,-21.25863817003038,-88.96884494357639,-41.48807949490017,-3.9724210229250465,-2.067836346012531,-4.187449842396349,6.129769219292535,0.06785074869791667,-3.8676198323567705,-3.7709,-1.4868,-2.322,-0.00904,0.01029,0.08692,0.0010910879354923964,0.0010002502240240574,0.0010595330968499184,0.0006061547319404781,0.000499522837344557,0.00041809221147559583,0.00862041860818863,0.009373931214213371,0.011540919542312622,passive,0
1.7405,rehab,large_fast,13.371363467326058,-666.6307302665314,308.6563247084657,-177.64955938150067,0.2899825963506124,-149.8534249110263,-44.7052,-0.1249,42.214,67.5115,-1.579,-11.39,78.59024274467241,27.106895069084544,82.40304248167736,-21.10918680826823,-88.96679348415799,-41.58076816134982,-3.809169353825031,-1.9589996337890625,-4.065641648698561,6.196679009331597,0.06785074869791667,-3.8676198323567705,-3.8653,-1.4904,-1.4727,-0.02832,4e-05,0.08011,0.0010910879354923964,0.0010002502240240574,0.0010595330968499184,0.0006061547319404781,0.000499522837344557,0.00041809221147559583,0.00862041860818863,0.009373931214213371,0.011540919542312622,passive,0
1.761,rehab,large_fast,12.666195133784976,-666.6305181199845,309.32069736688334,-177.65063900678157,0.2909516717215174,-149.85376285430567,-43.3699,-0.1517,42.1077,83.7904,-0.7135,-19.1472,78.52897492965849,27.075846454884747,82.33796072478341,-21.009741889105904,-88.96543714735243,-41.64058261447482,-3.8635911091719524,-1.795747964689047,-4.066063153861773,6.156853569878472,0.13570149739583334,-3.596208360460069,-3.8316,-1.5803,-2.3701,-0.03315,-0.00131,0.0802,0.0010910879354923964,0.0010002502240240574,0.0010595330968499184,0.0006061547319404781,0.000499522837344557,0.00041809221147559583,0.00862041860818863,0.009373931214213371,0.011540919542312622,passive,0
1.7806,rehab,large_fast,11.65234276238036,-666.6333010674884,310.30984609825134,-177.65250945815745,0.29264508851006793,-149.85303452978607,-42.0946,-0.1086,42.2095,99.5693,0.4676,-27.61,78.44094833525101,27.03058903760249,82.23949847835125,-20.860782199435764,-88.96347045898438,-41.72766791449653,-3.428251058748453,-1.9589996337890625,-4.205057880665996,6.282925075954861,0.06785074869791667,-3.664059109157986,-3.8412,-1.4429,-2.172,-0.01348,0.00365,0.08118,0.0010910879354923964,0.0010002502240240574,0.0010595330968499184,0.0006061547319404781,0.000499522837344557,0.00041809221147559583,0.00862041860818863,0.009373931214213371,0.011540919542312622,passive,0
1.8005,rehab,large_fast,10.842078532917226,-666.639469671728,311.13940049330745,-177.65288219296895,0.2929954865279747,-149.85287784109033,-39.541,-0.046,41.2628,105.3708,1.7312,-32.0549,78.37068614393178,26.993387807713876,82.15640757343557,-20.737821790907116,-88.96193610297308,-41.79670545789931,-3.5370877709719215,-1.8501697200359684,-4.095745275516321,6.025814480251736,0.06785074869791667,-3.1890869140625,-3.7039,-1.5268,-1.7866,-0.02434,-0.01492,0.07364,0.0010910879354923964,0.0010002502240240574,0.0010595330968499184,0.0006061547319404781,0.000499522837344557,0.00041809221147559583,0.00862041860818863,0.009373931214213371,0.011540919542312622,passive,0
1.8205,rehab,large_fast,10.221995490231745,-666.639868932407,311.8077385477388,-177.65230492564356,0.292489888942178,-149.8531728463358,-37.1102,-0.005,40.4494,103.9542,2.1318,-32.1884,78.31684905703705,26.96296465278852,82.0906663649153,-20.640784369574654,-88.96078321668837,-41.84915330674913,-3.319421144995359,-1.8501697200359684,-4.050358687296952,5.9196726481119795,0.13570149739583334,-3.2569376627604165,-3.5712,-1.4096,-1.5523,-0.00764,-0.00894,0.07677,0.0010910879354923964,0.0010002502240240574,0.0010595330968499184,0.0006061547319404781,0.000499522837344557,0.00041809221147559583,0.00862041860818863,0.009373931214213371,0.011540919542312622,passive,0
1.8407,rehab,large_fast,9.35410434165462,-666.6369307854668,312.783788689053,-177.6519685692788,0.2921405118011354,-149.8519542380669,-35.1381,0.0087,39.9829,109.4429,1.444,-40.9989,78.24144042364442,26.918611432066058,81.99439322594368,-20.498292711046005,-88.95918952094183,-41.92417568630642,-2.938502849918781,-1.8501697200359684,-4.022546144995359,5.753368801540798,0.06785074869791667,-3.0533854166666665,-3.6938,-1.5637,-1.5071,-0.02995,-0.0137,0.07227,0.0010910879354923964,0.0010002502240240574,0.0010595330968499184,0.0006061547319404781,0.000499522837344557,0.00041809221147559583,0.00862041860818863,0.009373931214213371,0.011540919542312622,passive,0
1.8606,rehab,large_fast,8.814683915933422,-666.6324053843356,313.41584359186203,-177.65230436132995,0.29247883359922106,-149.85129588288197,-32.991,0.0323,39.135,116.6302,0.2625,-52.9102,78.19451738112043,26.88992188708617,81.93178611226601,-20.40506150987413,-88.95816379123264,-41.97070651584201,-2.938502849918781,-1.7413330078125,-3.899487032748685,5.8904774983723955,0.06785074869791667,-2.714114718967014,-3.9079,-1.5682,-1.9011,-0.03769,-0.00712,0.07609,0.0010910879354923964,0.0010002502240240574,0.0010595330968499184,0.0006061547319404781,0.000499522837344557,0.00041809221147559583,0.00862041860818863,0.009373931214213371,0.011540919542312622,passive,0
1.8807,rehab,large_fast,8.046532814289199,-666.633523386061,314.35043127946636,-177.65146727701273,0.29174860576445183,-149.8511292716918,-30.4735,0.0602,37.6862,119.932,-0.652,-59.8631,78.12785158062925,26.8486483734433,81.83814398132928,-20.269207424587673,-88.9567650689019,-42.03600565592448,-2.6664212670656715,-1.6325030940594059,-3.875196098101021,5.611835055881076,-0.0,-2.510553995768229,-3.6608,-1.6482,-1.0617,-0.0293,-0.00846,0.07094,0.0010910879354923964,0.0010002502240240574,0.0010595330968499184,0.0006061547319404781,0.000499522837344557,0.00041809221147559583,0.00862041860818863,0.009373931214213371,0.011540919542312622,passive,0
1.9007,rehab,large_fast,7.562221974447864,-666.635146887584,314.9548572178474,-177.65068703015746,0.29109383465585337,-149.8523564677967,-28.6753,0.0292,36.8269,129.7308,-0.9545,-70.3308,78.08584383218596,26.82224991297958,81.7772908730082,-20.18172370062934,-88.95590040418837,-42.075797186957466,-2.503169597965656,-1.6325030940594059,-3.704051404896349,5.2567799886067705,0.06785074869791667,-2.374852498372396,-3.7009,-1.4432,-1.1318,-0.01319,-0.01645,0.07659,0.0010910879354923964,0.0010002502240240574,0.0010595330968499184,0.0006061547319404781,0.000499522837344557,0.00041809221147559583,0.00862041860818863,0.009373931214213371,0.011540919542312622,passive,0
1.9206,rehab,large_fast,6.897470999262072,-666.6347974963501,315.82973398921933,-177.64952383730295,0.2900338100177607,-149.8547917781226,-25.6123,-0.0281,35.2021,146.8584,-0.8861,-83.6704,78.02815201258895,26.783994920182938,81.68940704647858,-20.055465698242188,-88.95480685763889,-42.12962680392795,-2.122251302889078,-1.4692514249593904,-3.6397650690362005,5.173890855577257,0.06785074869791667,-2.171291775173611,-3.5835,-1.4755,-1.1274,0.00292,-0.00267,0.07576,0.0010910879354923964,0.0010002502240240574,0.0010595330968499184,0.0006061547319404781,0.000499522837344557,0.00041809221147559583,0.00862041860818863,0.009373931214213371,0.011540919542312622,passive,0
1.9407,rehab,large_fast,6.511836052852363,-666.6353624227166,316.3656605450136,-177.65029367659992,0.2906797351374593,-149.85607416803535,-22.4064,-0.0675,33.1349,163.5868,-0.7049,-92.4727,77.99469673987663,26.761124865843517,81.63404710221998,-19.97524685329861,-88.9542219373915,-42.16089884440104,-1.9589996337890625,-1.4148296696124691,-3.4996961839128247,4.871131049262153,-0.0,-1.832029554578993,-3.5395,-1.6907,-0.9402,-0.03099,-0.00837,0.06314,0.0010910879354923964,0.0010002502240240574,0.0010595330968499184,0.0006061547319404781,0.000499522837344557,0.00041809221147559583,0.00862041860818863,0.009373931214213371,0.011540919542312622,passive,0
1.9609,rehab,large_fast,6.0235277974271515,-666.6340918676752,317.1283163714594,-177.65147439908816,0.2917341837925985,-149.8565395501542,-19.0883,-0.0671,31.3486,181.5653,-0.3768,-101.5079,77.95227428474048,26.728594185102104,81.55527322599204,-19.86107720269097,-88.95345052083333,-42.201571994357636,-1.5236663818359375,-1.251584798982828,-3.1582973971225248,4.671385023328993,-0.0,-1.5606180826822915,-3.5563,-1.5261,-0.6994,-0.01026,-0.00912,0.06656,0.0010910879354923964,0.0010002502240240574,0.0010595330968499184,0.0006061547319404781,0.000499522837344557,0.00041809221147559583,0.00862041860818863,0.009373931214213371,0.011540919542312622,passive,0
1.9806,rehab,large_fast,5.74884492792579,-666.6367949442698,317.599987127408,-177.65237913421737,0.29256596321852074,-149.85713462525266,-15.3078,-0.0383,29.198,194.4437,0.2512,-111.3216,77.9284660414894,26.709109769009128,81.50552881826269,-19.78991190592448,-88.95303514268663,-42.22398546006944,-1.360414712735922,-1.1971630436359066,-3.035292672638846,4.276343451605903,-0.0,-1.2892066107855902,-3.4149,-1.4226,-0.7824,0.00279,0.00511,0.07252,0.0010910879354923964,0.0010002502240240574,0.0010595330968499184,0.0006061547319404781,0.000499522837344557,0.00041809221147559583,0.00862041860818863,0.009373931214213371,0.011540919542312622,passive,0
2.0008,rehab,large_fast,5.43733089162899,-666.6398623035114,318.2779564335461,-177.65202585216974,0.2922784590611561,-149.85641251875077,-11.0417,-0.017,26.6383,200.7181,0.9208,-121.2173,77.90143532328086,26.68090291542582,81.43521223918046,-19.69100104437934,-88.95256890190971,-42.25062052408854,-0.87066650390625,-1.1427480867593596,-2.7244054208887687,4.0391794840494795,-0.0,-0.9499359130859375,-3.5015,-1.6308,-1.0342,-0.02536,-0.01918,0.06446,0.0010910879354923964,0.0010002502240240574,0.0010595330968499184,0.0006061547319404781,0.000499522837344557,0.00041809221147559583,0.00862041860818863,0.009373931214213371,0.011540919542312622,passive,0
2.0207,rehab,large_fast,5.249545346375173,-666.6397768232437,318.79536243449985,-177.65155524219654,0.29183703652650034,-149.8566010759174,-6.9729,-0.0078,24.5345,205.8707,1.0662,-130.7198,77.88509180050085,26.659161407168547,81.38206859626392,-19.616275363498264,-88.95237392849393,-42.26593017578125,-0.6529998779296875,-1.0339181730062654,-2.508989088606126,3.5947757297092013,-0.0,-0.6106736924913194,-3.4096,-1.5272,-0.703,-0.03177,-0.00099,0.05769,0.0010910879354923964,0.0010002502240240574,0.0010595330968499184,0.0006061547319404781,0.000499522837344557,0.00041809221147559583,0.00862041860818863,0.009373931214213371,0.011540919542312622,passive,0
2.0405,rehab,large_fast,5.15261580142014,-666.6405305212659,319.1659671152105,-177.65144350881067,0.2917526994382447,-149.85716994423726,-2.8988,0.0053,21.8838,204.1436,0.6514,-139.0238,77.87664810029587,26.643824058003943,81.34357565700418,-19.562352498372395,-88.95231458875868,-42.273195054796005,-0.435333251953125,-0.979496417659344,-2.352019206132039,3.185696072048611,-0.0,-0.339262220594618,-3.5258,-1.4436,-1.1992,-0.01718,0.00764,0.0681,0.0010910879354923964,0.0010002502240240574,0.0010595330968499184,0.0006061547319404781,0.000499522837344557,0.00041809221147559583,0.00862041860818863,0.009373931214213371,0.011540919542312622,passive,0
2.0606,rehab,large_fast,5.15785945177856,-666.6366811567433,319.65316145344514,-177.65179072206772,0.2922091772626995,-149.853088798595,1.0513,0.018,18.8657,193.7828,0.0397,-145.6951,77.87689284522935,26.623306274414062,81.29335535634863,-19.49094984266493,-88.95232306586371,-42.276221381293404,0.2176666259765625,-0.8162515470297029,-1.9261494249400526,2.7330864800347223,-0.0,-0.0,-3.3506,-1.505,-1.7829,-0.01745,-3e-05,0.07071,0.0010910879354923964,0.0010002502240240574,0.0010595330968499184,0.0006061547319404781,0.000499522837344557,0.00041809221147559583,0.00862041860818863,0.009373931214213371,0.011540919542312622,passive,0
2.081,rehab,large_fast,5.210066061848206,-666.6355821358832,319.9336913575916,-177.65190803956605,0.29243224267576184,-149.8494636395378,4.7426,0.032,15.8065,185.9739,-0.3282,-153.526,77.88129825403195,26.611701285484994,81.26418311997216,-19.449971516927082,-88.95238240559895,-42.274975246853295,0.435333251953125,-0.7074148348062346,-1.654958441705987,2.4041239420572915,-0.06785074869791667,0.20355224609375,-3.3692,-1.5856,-1.6455,-0.01168,0.00196,0.06661,0.0010910879354923964,0.0010002502240240574,0.0010595330968499184,0.0006061547319404781,0.000499522837344557,0.00041809221147559583,0.00862041860818863,0.009373931214213371,0.011540919542312622,passive,0
2.1007,rehab,large_fast,5.38491438429678,-666.6359345864621,320.28215929647354,-177.6516422960633,0.2926175591009365,-149.84647587970915,8.8571,0.0261,12.3631,179.6541,-0.2083,-160.3754,77.89628888120745,26.597567265576654,81.22776371417659,-19.39988030327691,-88.95254347059462,-42.26239522298177,0.7618297916827815,-0.544163165706219,-1.4237288673325341,1.8399386935763888,0.06785074869791667,0.8820851643880208,-3.2576,-1.4965,-1.4357,0.00351,0.0015,0.07203,0.0010910879354923964,0.0010002502240240574,0.0010595330968499184,0.0006061547319404781,0.000499522837344557,0.00041809221147559583,0.00862041860818863,0.009373931214213371,0.011540919542312622,passive,0
2.1209,rehab,large_fast,5.545412010524006,-666.6382939459592,320.47039960859604,-177.6507384472354,0.2921826234515015,-149.8480942674363,12.1879,-0.0052,9.4649,174.4584,0.1668,-165.6878,77.91013736536007,26.59014333592783,81.20818411949837,-19.374330308702255,-88.95275539822049,-42.24662780761719,0.979496417659344,-0.435333251953125,-1.035033122147664,1.412904527452257,-0.0,1.153496636284722,-3.1835,-1.4385,-1.3122,-0.00051,-0.00021,0.07099,0.0010910879354923964,0.0010002502240240574,0.0010595330968499184,0.0006061547319404781,0.000499522837344557,0.00041809221147559583,0.00862041860818863,0.009373931214213371,0.011540919542312622,passive,0
2.1405,rehab,large_fast,5.851783674447674,-666.636346540759,320.6597473709162,-177.6505640266542,0.29249298551068126,-149.85233206809497,15.2772,-0.0215,6.0406,171.0034,0.514,-168.3577,77.93652222888305,26.58238628123066,81.18874049422764,-19.34801737467448,-88.95331488715277,-42.21569485134548,1.251584798982828,-0.2720815828531095,-0.6014538755511293,0.7802836100260416,-0.06785074869791667,1.4249081081814237,-3.1537,-1.4133,-1.1218,0.01075,-0.01343,0.06735,0.0010910879354923964,0.0010002502240240574,0.0010595330968499184,0.0006061547319404781,0.000499522837344557,0.00041809221147559583,0.00862041860818863,0.009373931214213371,0.011540919542312622,passive,0
2.1609,rehab,large_fast,6.119858547247408,-666.6390987275059,320.7251524208786,-177.65058017662878,0.29268529552194955,-149.853947225649,18.5439,-0.0103,2.6885,167.502,0.7756,-171.5238,77.95973220674118,26.580333143177597,81.18116019976021,-19.33902316623264,-88.95388285319011,-42.19076368543837,1.6325030940594059,0.05441495687654703,-0.33431478066019493,0.3693135579427083,-0.13570149739583334,1.696319580078125,-3.2971,-1.4846,-1.1985,-0.01719,-0.01101,0.06723,0.0010910879354923964,0.0010002502240240574,0.0010595330968499184,0.0006061547319404781,0.000499522837344557,0.00041809221147559583,0.00862041860818863,0.009373931214213371,0.011540919542312622,passive,0
2.1807,rehab,large_fast,6.609990916835156,-666.634670483397,320.69971403533236,-177.65398672340817,0.29581536531332575,-149.85604125372132,22.0413,0.039,-0.6806,160.9594,0.8758,-175.3589,78.00204588635133,26.581930783715578,81.18180605444577,-19.338031344943577,-88.95504421657986,-42.14635213216146,1.9589996337890625,0.05441495687654703,0.09999870073677289,-0.20281473795572916,-0.06785074869791667,2.0355902777777777,-3.2971,-1.6341,-1.0522,-0.01653,-0.01192,0.06267,0.0010910879354923964,0.0010002502240240574,0.0010595330968499184,0.0006061547319404781,0.000499522837344557,0.00041809221147559583,0.00862041860818863,0.009373931214213371,0.011540919542312622,passive,0
2.2007,rehab,large_fast,7.093545557656646,-666.6382963292345,320.66223354811797,-177.65168519560214,0.2936011319241927,-149.8569560934848,25.2896,0.0925,-4.3035,150.0368,0.8634,-176.475,78.04398565009089,26.58401111565014,81.18643581277072,-19.349271986219616,-88.95627339680989,-42.10361904568142,2.122251302889078,0.10882991375309406,0.47597450785117573,-0.9051598442925347,-0.06785074869791667,2.307001749674479,-3.0778,-1.5002,-0.9754,0.00617,-0.01214,0.06281,0.0010910879354923964,0.0010002502240240574,0.0010595330968499184,0.0006061547319404781,0.000499522837344557,0.00041809221147559583,0.00862041860818863,0.009373931214213371,0.011540919542312622,passive,0
2.2209,rehab,large_fast,7.521526687860917,-666.635974169903,320.58361995102155,-177.64890807301418,0.29075780598739676,-149.8582527546071,28.5732,0.0991,-8.0631,148.4967,0.5206,-184.9623,78.08105091057202,26.586859674737006,81.19700743420289,-19.36785380045573,-88.95751105414496,-42.065463595920136,2.503169597965656,0.2720815828531095,0.7995205114383509,-1.3714938693576388,-0.13570149739583334,2.4427032470703125,-3.1623,-1.4953,-0.8477,-0.02896,-0.01322,0.06167,0.0010910879354923964,0.0010002502240240574,0.0010595330968499184,0.0006061547319404781,0.000499522837344557,0.00041809221147559583,0.00862041860818863,0.009373931214213371,0.011540919542312622,passive,0
2.2409,rehab,large_fast,8.248276517832446,-666.6324350058989,320.3760674990225,-177.64485803165124,0.2866701563786599,-149.85833828141446,31.6297,0.0885,-11.8396,148.6807,-0.2275,-195.895,78.14399794776841,26.595017839186262,81.221869440362,-19.408577813042534,-88.95943535698784,-42.00288560655382,2.7208362239422184,0.435333251953125,1.2649505917388615,-2.035183376736111,-0.06785074869791667,2.781973944769965,-3.1614,-1.5494,-1.7079,-0.0293,-0.00691,0.06726,0.0010910879354923964,0.0010002502240240574,0.0010595330968499184,0.0006061547319404781,0.000499522837344557,0.00041809221147559583,0.00862041860818863,0.009373931214213371,0.011540919542312622,passive,0
2.2608,rehab,large_fast,8.779818723523158,-666.6293671840855,320.1479401860353,-177.64470101451846,0.2863986505757677,-149.85771539915498,33.8025,0.0573,-15.2799,139.3391,-1.0754,-197.2971,78.1900167937326,26.60468526405863,81.24575246678721,-19.443834092881943,-88.96066453721788,-41.95788913302951,3.047339562142249,0.6529998779296875,1.7077417656926825,-2.398562961154514,-0.13570149739583334,2.9176754421657987,-3.2309,-1.439,-1.7394,-0.03005,0.00773,0.06246,0.0010910879354923964,0.0010002502240240574,0.0010595330968499184,0.0006061547319404781,0.000499522837344557,0.00041809221147559583,0.00862041860818863,0.009373931214213371,0.011540919542312622,passive,0
2.2806,rehab,large_fast,9.649370990364472,-666.6256469445042,319.70700632835764,-177.6460600562393,0.28748363813569777,-149.85512811560216,35.9751,0.0342,-19.054,125.6659,-1.5398,-188.1447,78.26533024854,26.62393853215888,81.29007169515779,-19.507921006944443,-88.96255493164062,-41.88589307996962,3.319421144995359,0.87066650390625,1.963520616588026,-2.9314422607421875,-0.06785074869791667,3.121236165364583,-2.9807,-1.405,-0.8548,-0.00606,-0.00186,0.06254,0.0010910879354923964,0.0010002502240240574,0.0010595330968499184,0.0006061547319404781,0.000499522837344557,0.00041809221147559583,0.00862041860818863,0.009373931214213371,0.011540919542312622,passive,0
2.3006,rehab,large_fast,10.249183396958207,-666.6276244553769,319.3552465751851,-177.64731675536123,0.28859293316681756,-149.85475822597667,38.9098,0.0197,-23.1721,110.9078,-1.2728,-172.2233,78.31737933772625,26.63996932530167,81.32422041184832,-19.558020697699654,-88.96382649739583,-41.83478461371528,3.319421144995359,1.1427480867593596,2.245120057965269,-3.294101291232639,-0.06785074869791667,3.324796888563368,-2.9697,-1.5582,-1.5033,0.00593,-0.01711,0.06419,0.0010910879354923964,0.0010002502240240574,0.0010595330968499184,0.0006061547319404781,0.000499522837344557,0.00041809221147559583,0.00862041860818863,0.009373931214213371,0.011540919542312622,passive,0
2.3208,rehab,large_fast,11.176897474277812,-666.6315152678461,318.7679898347479,-177.64800818741432,0.28913961696258156,-149.85589280216996,42.3049,-0.0211,-27.684,99.6333,-0.6597,-158.3182,78.39794121166267,26.666632926109994,81.38202780544168,-19.64413113064236,-88.96585252549913,-41.754065619574654,3.428251058748453,1.1971630436359066,2.6056973296816985,-3.8903299967447915,-0.13570149739583334,3.596208360460069,-3.1488,-1.4137,-0.8442,-0.01203,-0.00659,0.05639,0.0010910879354923964,0.0010002502240240574,0.0010595330968499184,0.0006061547319404781,0.000499522837344557,0.00041809221147559583,0.00862041860818863,0.009373931214213371,0.011540919542312622,passive,0
2.3405,rehab,large_fast,11.82176495914489,-666.6308321097987,318.3397084342239,-177.64781341519506,0.28887386084350924,-149.85689243629193,43.4206,-0.0448,-29.9149,86.3587,-0.179,-141.3535,78.45390621978457,26.68558706151377,81.42527967396349,-19.70841301812066,-88.96728515625,-41.69782850477431,3.5915027278484684,1.305999755859375,2.7784260664836014,-4.33534410264757,-0.13570149739583334,3.528349134657118,-3.1762,-1.4373,-1.1027,-0.0359,0.00119,0.05913,0.0010910879354923964,0.0010002502240240574,0.0010595330968499184,0.0006061547319404781,0.000499522837344557,0.00041809221147559583,0.00862041860818863,0.009373931214213371,0.011540919542312622,passive,0
2.3607,rehab,large_fast,12.843113130730636,-666.6326568644935,317.6231438323178,-177.64777309121484,0.28875628187087754,-149.8578491010885,44.2187,-0.0479,-31.7691,60.5076,-0.0918,-115.0278,78.5426126612295,26.717934183555073,81.49647325572401,-19.81481764051649,-88.969480726454,-41.60936991373698,3.809169353825031,1.360414712735922,3.2006110767326734,-4.6926116943359375,-0.06785074869791667,3.799769083658854,-3.01,-1.4619,-1.5278,-0.00917,0.00412,0.064,0.0010910879354923964,0.0010002502240240574,0.0010595330968499184,0.0006061547319404781,0.000499522837344557,0.00041809221147559583,0.00862041860818863,0.009373931214213371,0.011540919542312622,passive,0
2.3806,rehab,large_fast,13.740215752943962,-666.6290487601282,316.9699861499165,-177.64823220743773,0.28906541722088575,-149.8566779109458,45.5269,-0.0171,-33.9569,33.7469,-0.3,-92.4663,78.60469629268835,26.7410149904761,81.54816202598043,-19.89123026529948,-88.97096421983507,-41.54911465115017,3.918006066048499,1.5780813387124846,3.375542517935876,-4.697214762369792,-0.13570149739583334,3.799769083658854,-3.0782,-1.4289,-1.6178,-0.02843,-0.00165,0.05713,0.0010910879354923964,0.0010002502240240574,0.0010595330968499184,0.0006061547319404781,0.000499522837344557,0.00041809221147559583,0.00862041860818863,0.009373931214213371,0.011540919542312622,passive,0
2.4006,rehab,large_fast,14.849622885317574,-666.6308654272357,316.1173132231104,-177.64876057601663,0.28949375306299185,-149.85581015744052,46.3554,0.0116,-35.8728,17.9727,-0.1964,-79.675,78.70070429131536,26.779616705261834,81.63092660431815,-20.014351738823784,-88.97326151529948,-41.45540873209635,4.081257735148514,1.6325030940594059,3.622558140518642,-5.408011542426215,-0.06785074869791667,3.9354705810546875,-3.0724,-1.4246,-1.2485,-0.02117,-0.01132,0.0514,0.0010910879354923964,0.0010002502240240574,0.0010595330968499184,0.0006061547319404781,0.000499522837344557,0.00041809221147559583,0.00862041860818863,0.009373931214213371,0.011540919542312622,passive,0
2.4206,rehab,large_fast,15.60579823219303,-666.6319997817784,315.5262866691346,-177.6480288541627,0.28882101328945287,-149.8548876240245,47.0754,-0.0028,-37.9262,24.7418,0.0822,-85.5183,78.7661599640799,26.806321096892404,81.68872719944113,-20.101674397786457,-88.97477043999565,-41.39199998643663,4.026835979801594,1.795747964689047,3.7651832505027847,-5.43625725640191,-0.06785074869791667,4.139031304253472,-3.0483,-1.2725,-1.2749,-0.00965,0.00253,0.05894,0.0010910879354923964,0.0010002502240240574,0.0010595330968499184,0.0006061547319404781,0.000499522837344557,0.00041809221147559583,0.00862041860818863,0.009373931214213371,0.011540919542312622,passive,0
2.4405,rehab,large_fast,16.375579615290857,-666.6329980691748,314.89636894426764,-177.64851208935232,0.2892377305847983,-149.8549197906919,46.4341,-0.0379,-38.8469,40.1934,0.1518,-97.4986,78.83285295845258,26.8352213944539,81.74907722095452,-20.192701551649304,-88.97633022732205,-41.32655673556857,4.298924361125077,1.795747964689047,3.957579962097772,-5.900726318359375,-0.06785074869791667,4.206882052951388,-3.0371,-1.2263,-0.8407,0.00131,0.00103,0.06252,0.0010910879354923964,0.0010002502240240574,0.0010595330968499184,0.0006061547319404781,0.000499522837344557,0.00041809221147559583,0.00862041860818863,0.009373931214213371,0.011540919542312622,passive,0
2.4612,rehab,large_fast,17.55165519636097,-666.6314534822553,313.90042699579215,-177.64973542138154,0.29024944455222323,-149.85427775763213,46.5466,-0.0769,-40.3631,46.8956,0.2267,-102.3009,78.93459886607558,26.880777944432626,81.84436458172185,-20.33551534016927,-88.97872077094183,-41.2266116672092,4.298924361125077,2.0134145906656093,4.058985946202042,-6.19415283203125,-0.06785074869791667,4.206882052951388,-2.9501,-1.3209,-1.5104,-0.00836,-0.01689,0.05393,0.0010910879354923964,0.0010002502240240574,0.0010595330968499184,0.0006061547319404781,0.000499522837344557,0.00041809221147559583,0.00862041860818863,0.009373931214213371,0.011540919542312622,passive,0
2.4806,rehab,large_fast,18.339962188701975,-666.6319171472213,313.20554930849744,-177.65063623100502,0.29106944259968953,-149.85413076894773,48.3142,-0.048,-42.9651,51.7699,0.5783,-103.2133,79.02030038361502,26.921731929967898,81.9270135860632,-20.45995924207899,-88.98068745930989,-41.14270528157552,4.298924361125077,2.0134145906656093,4.131811160852413,-6.348351372612847,-0.13570149739583334,4.274732801649305,-3.0476,-1.28,-1.2554,-0.02168,-0.00391,0.05485,0.0010910879354923964,0.0010002502240240574,0.0010595330968499184,0.0006061547319404781,0.000499522837344557,0.00041809221147559583,0.00862041860818863,0.009373931214213371,0.011540919542312622,passive,0
2.5005,rehab,large_fast,19.51633837247074,-666.6341425611103,312.1324802875646,-177.65153100125005,0.2919405354578652,-149.855900863807,49.9696,0.0167,-45.3025,52.2767,1.0182,-96.4267,79.10565517916538,26.964256362159652,82.01178371316135,-20.588734944661457,-88.98262023925781,-41.05734083387587,4.4077542748781715,2.067836346012531,4.261852302173577,-6.455451117621528,-0.0,4.614003499348958,-3.062,-1.3196,-1.0234,-0.01467,-0.00315,0.0581,0.0010910879354923964,0.0010002502240240574,0.0010595330968499184,0.0006061547319404781,0.000499522837344557,0.00041809221147559583,0.00862041860818863,0.009373931214213371,0.011540919542312622,passive,0
2.5206,rehab,large_fast,20.299215980023355,-666.6367370227996,311.40910875194066,-177.65108363361676,0.2915411395772779,-149.85704993111733,52.0588,0.0329,-48.0494,44.6094,1.0122,-85.4035,79.17383024007967,26.99856144366878,82.08051624864635,-20.694385104709202,-88.98420545789931,-40.98916795518663,4.298924361125077,2.2855029719890934,4.336173180306312,-6.58064948187934,-0.13570149739583334,4.546152750651042,-2.9499,-1.1797,-0.9418,-0.00401,-0.00375,0.06249,0.0010910879354923964,0.0010002502240240574,0.0010595330968499184,0.0006061547319404781,0.000499522837344557,0.00041809221147559583,0.00862041860818863,0.009373931214213371,0.011540919542312622,passive,0
2.5404,rehab,large_fast,21.490071721832333,-666.6376212532796,310.30139144042437,-177.6498903176608,0.29042652623497217,-149.8583758223151,52.166,0.0371,-49.2493,23.2222,0.4173,-65.64,79.27712619894803,27.051671094233445,82.18606250120861,-20.85781521267361,-88.98663838704427,-40.885984632703995,4.4077542748781715,2.2310880151125465,4.443201499410195,-7.0722707112630205,-0.13570149739583334,4.410442776150173,-3.1197,-1.3664,-1.3527,-0.02562,0.00179,0.0674,0.0010910879354923964,0.0010002502240240574,0.0010595330968499184,0.0006061547319404781,0.000499522837344557,0.00041809221147559583,0.00862041860818863,0.009373931214213371,0.011540919542312622,passive,0
2.5609,rehab,large_fast,22.29890231866744,-666.6329811250015,309.5474220732801,-177.6492244366519,0.28981925983642903,-149.85722400404413,51.6661,0.0549,-49.6186,-16.7396,-0.6752,-33.34,79.347293211682,27.087764173451035,82.25822826423267,-20.968577067057293,-88.9882575141059,-40.817905002170136,4.4077542748781715,2.2855029719890934,4.464045609578047,-6.880713568793403,-0.06785074869791667,4.342592027452257,-3.1505,-1.2796,-1.173,-0.02648,0.00489,0.06195,0.0010910879354923964,0.0010002502240240574,0.0010595330968499184,0.0006061547319404781,0.000499522837344557,0.00041809221147559583,0.00862041860818863,0.009373931214213371,0.011540919542312622,passive,0
2.5806,rehab,large_fast,23.71195721886037,-666.6254596552415,308.19364099881875,-177.64903091089482,0.289671350857949,-149.85521260703354,51.4516,0.0473,-50.3176,-54.0942,-1.5116,-3.818,79.4703727193398,27.152492409885518,82.38646781090462,-21.16562737358941,-88.99099561903212,-40.699217054578995,4.4077542748781715,2.3943328857421875,4.612082301980198,-7.247916327582465,-0.13570149739583334,4.139031304253472,-3.2044,-1.2934,-1.4356,-0.02937,-0.00759,0.06238,0.0010910879354923964,0.0010002502240240574,0.0010595330968499184,0.0006061547319404781,0.000499522837344557,0.00041809221147559583,0.00862041860818863,0.009373931214213371,0.011540919542312622,passive,0
2.6006,rehab,large_fast,24.510689459884645,-666.6295862958239,307.4026961683365,-177.64890556556387,0.2895197753534935,-149.85366709024802,49.8553,-0.0124,-49.9223,-79.1404,-1.4453,18.745,79.54023380090695,27.191400055838102,82.45912986226601,-21.279991997612846,-88.99254692925346,-40.63228183322482,4.353339318001624,2.557584554842203,4.595024939810876,-7.047356499565972,-0.06785074869791667,4.071180555555555,-3.1817,-1.3705,-1.7326,-0.03513,-0.0051,0.0584,0.0010910879354923964,0.0010002502240240574,0.0010595330968499184,0.0006061547319404781,0.000499522837344557,0.00041809221147559583,0.00862041860818863,0.009373931214213371,0.011540919542312622,passive,0
2.6206,rehab,large_fast,25.683492301742152,-666.6317469883998,306.18325340660476,-177.65090213742758,0.2912691951999797,-149.8527362803029,48.2646,-0.0715,-49.7205,-89.8781,-0.8966,30.5503,79.64263236168587,27.252293954981436,82.56957101349784,-21.45233154296875,-88.99481031629774,-40.53248935275607,4.353339318001624,2.7752511808187657,4.7542791083307545,-7.101542154947916,-0.06785074869791667,4.0033213297526045,-3.0756,-1.2629,-1.1807,-0.0207,-0.00168,0.06144,0.0010910879354923964,0.0010002502240240574,0.0010595330968499184,0.0006061547319404781,0.000499522837344557,0.00041809221147559583,0.00862041860818863,0.009373931214213371,0.011540919542312622,passive,0
2.6405,rehab,large_fast,26.466443816019094,-666.6319831939215,305.3690978195969,-177.65198949587196,0.2922475849784476,-149.8503498670037,46.1285,-0.0987,-48.9648,-84.0275,-0.3117,25.2455,79.71104536906327,27.293370312983445,82.64385110080832,-21.567789713541668,-88.99625142415364,-40.467614067925346,4.4077542748781715,2.61199951171875,4.642117944094214,-7.2144317626953125,-0.06785074869791667,4.071180555555555,-3.2296,-1.3244,-1.3524,-0.04593,-0.00918,0.0604,0.0010910879354923964,0.0010002502240240574,0.0010595330968499184,0.0006061547319404781,0.000499522837344557,0.00041809221147559583,0.00862041860818863,0.009373931214213371,0.011540919542312622,passive,0
2.6606,rehab,large_fast,27.224908020415448,-666.6346469581401,304.5543433702839,-177.65299734660294,0.2930769746350665,-149.84878577090896,43.9403,-0.0937,-48.0129,-66.6102,0.4834,6.1227,79.77792192213606,27.335140114963643,82.71745134108137,-21.683391994900173,-88.99771796332465,-40.40382385253906,4.081257735148514,2.503169597965656,4.50104288535543,-7.382761637369791,-0.06785074869791667,4.139031304253472,-3.2257,-1.2244,-0.5617,-0.03213,-0.00078,0.06137,0.0010910879354923964,0.0010002502240240574,0.0010595330968499184,0.0006061547319404781,0.000499522837344557,0.00041809221147559583,0.00862041860818863,0.009373931214213371,0.011540919542312622,passive,0
2.6805,rehab,large_fast,28.308669047562983,-666.6412601606964,303.35878183960443,-177.65246142475561,0.29259732857180537,-149.84936495980588,42.8282,-0.0353,-47.8356,-45.0049,1.2802,-14.5042,79.87331805842938,27.396890621374148,82.82539065521543,-21.856307983398438,-88.99981180826823,-40.31050788031684,3.809169353825031,2.503169597965656,4.493673343469601,-7.351642184787326,-0.06785074869791667,3.8676198323567705,-3.1849,-1.3245,-1.99,-0.03086,0.00949,0.06304,0.0010910879354923964,0.0010002502240240574,0.0010595330968499184,0.0006061547319404781,0.000499522837344557,0.00041809221147559583,0.00862041860818863,0.009373931214213371,0.011540919542312622,passive,0
2.7007,rehab,large_fast,29.00630123801476,-666.6408110325937,302.56751341419084,-177.65182746920044,0.29201768983035686,-149.85015159547854,42.2535,0.02,-48.1087,-25.9292,1.5862,-30.1021,79.94965128379293,27.447117720500078,82.91561315555384,-22.000317043728298,-89.00155809190538,-40.23472256130642,3.7003394400719367,2.448754641089109,4.653376211034189,-7.293650309244791,-0.06785074869791667,3.664059109157986,-3.2091,-1.2653,-1.722,-0.01061,-0.00139,0.06934,0.0010910879354923964,0.0010002502240240574,0.0010595330968499184,0.0006061547319404781,0.000499522837344557,0.00041809221147559583,0.00862041860818863,0.009373931214213371,0.011540919542312622,passive,0
2.7206,rehab,large_fast,30.030834994245872,-666.6351525375355,301.38312031690236,-177.65078161956552,0.2911730837225228,-149.85231757636748,41.9634,0.0353,-49.0077,-15.1856,1.2647,-37.6817,80.0241489221554,27.497140865514773,83.00650190598894,-22.144317626953125,-89.00321960449219,-40.1598866780599,3.809169353825031,2.503169597965656,4.495005843662979,-7.289615207248263,-0.06785074869791667,3.596208360460069,-3.2227,-1.2983,-1.4607,-0.01853,0.0007,0.06702,0.0010910879354923964,0.0010002502240240574,0.0010595330968499184,0.0006061547319404781,0.000499522837344557,0.00041809221147559583,0.00862041860818863,0.009373931214213371,0.011540919542312622,passive,0
2.7408,rehab,large_fast,30.70719250103178,-666.6322250553739,300.59276106430497,-177.65026667996682,0.2907203394570303,-149.85189567996485,43.0037,0.0512,-51.4631,-15.7501,0.5484,-34.6286,80.09796671348043,27.547612709574178,83.0959697761158,-22.287673950195312,-89.00480482313368,-40.087890625,3.64592448319539,2.557584554842203,4.4383541900332615,-7.05839369032118,-0.13570149739583334,3.799769083658854,-3.2239,-1.4332,-1.8885,-0.02713,0.00774,0.06653,0.0010910879354923964,0.0010002502240240574,0.0010595330968499184,0.0006061547319404781,0.000499522837344557,0.00041809221147559583,0.00862041860818863,0.009373931214213371,0.011540919542312622,passive,0
2.7605,rehab,large_fast,31.70359507665739,-666.6332848142339,299.40056077457785,-177.64951973262203,0.2901522587425263,-149.85098825803718,42.6856,0.0566,-52.2934,-25.8907,-0.3046,-22.0975,80.18495994039101,27.60979151961827,83.20245421758973,-22.459835476345486,-89.00661044650607,-40.00373840332031,3.5370877709719215,2.6664212670656715,4.4405025066715655,-7.02376471625434,-0.06785074869791667,3.528349134657118,-3.1517,-1.4121,-1.511,-0.02747,-0.00076,0.06242,0.0010910879354923964,0.0010002502240240574,0.0010595330968499184,0.0006061547319404781,0.000499522837344557,0.00041809221147559583,0.00862041860818863,0.009373931214213371,0.011540919542312622,passive,0
2.7807,rehab,large_fast,32.35237955798755,-666.6325187682183,298.59425188137897,-177.65005112219478,0.29060653235984485,-149.85068133972567,41.2818,0.0344,-51.4935,-38.6604,-0.9178,-4.4701,80.24159799707998,27.652016819113552,83.27376337334661,-22.574344211154514,-89.00780571831596,-39.94869656032986,3.5915027278484684,2.6664212670656715,4.549774320998995,-7.14630126953125,-0.13570149739583334,3.4604983859592013,-3.2023,-1.3281,-1.6693,-0.04154,0.0146,0.05982,0.0010910879354923964,0.0010002502240240574,0.0010595330968499184,0.0006061547319404781,0.000499522837344557,0.00041809221147559583,0.00862041860818863,0.009373931214213371,0.011540919542312622,passive,0
2.8006,rehab,large_fast,33.30131384581279,-666.6341760989435,297.3740999482863,-177.65161688148643,0.29182310462569694,-149.8505156352843,40.2815,0.0076,-51.1885,-50.3578,-0.9191,15.5259,80.31096958878017,27.70593548765277,83.36260578419902,-22.717420789930554,-89.00932312011719,-39.881295098198784,3.5915027278484684,2.7752511808187657,4.43787149863668,-7.154388427734375,-0.06785074869791667,3.392647637261285,-3.2028,-1.3547,-2.1985,-0.02709,0.01498,0.06415,0.0010910879354923964,0.0010002502240240574,0.0010595330968499184,0.0006061547319404781,0.000499522837344557,0.00041809221147559583,0.00862041860818863,0.009373931214213371,0.011540919542312622,passive,0
2.8206,rehab,large_fast,34.08962717969958,-666.6339243791498,296.3628737896485,-177.6526743669191,0.2927675052214724,-149.8501881696631,38.7252,-0.0112,-50.2652,-59.6988,-0.6153,35.0261,80.37961374415029,27.759867753132735,83.45076154954363,-22.85996331108941,-89.01075575086806,-39.814300537109375,3.373836101871906,2.557584554842203,4.428183678353187,-7.0905812581380205,-0.13570149739583334,3.324796888563368,-3.1911,-1.4455,-1.4705,-0.02476,0.00655,0.06246,0.0010910879354923964,0.0010002502240240574,0.0010595330968499184,0.0006061547319404781,0.000499522837344557,0.00041809221147559583,0.00862041860818863,0.009373931214213371,0.011540919542312622,passive,0
2.8408,rehab,large_fast,35.010120373081556,-666.6347596276163,295.1761626113507,-177.65145588423368,0.2917921360242591,-149.850540312806,37.537,-0.0302,-49.5999,-58.4906,-0.2906,41.9103,80.47379975271697,27.83401866950611,83.57214143960783,-23.05976019965278,-89.012697007921,-39.7220950656467,3.373836101871906,2.6664212670656715,4.2501793285407645,-7.053739759657118,-0.13570149739583334,3.2569376627604165,-3.1434,-1.571,-1.5783,-0.02446,0.00811,0.06042,0.0010910879354923964,0.0010002502240240574,0.0010595330968499184,0.0006061547319404781,0.000499522837344557,0.00041809221147559583,0.00862041860818863,0.009373931214213371,0.011540919542312622,passive,0
2.8609,rehab,large_fast,35.60594682026467,-666.6330545584274,294.3901004033267,-177.65051326974387,0.29099219295145773,-149.85162306301527,37.0467,-0.0374,-49.539,-42.5458,0.0367,30.4348,80.51283656960666,27.865570370513613,83.62388459762724,-23.14544677734375,-89.01354471842448,-39.6832275390625,3.319421144995359,2.557584554842203,4.232088598874536,-7.216279771592882,-0.0,3.121236165364583,-3.0961,-1.5149,-1.4577,-0.03627,0.01093,0.05705,0.0010910879354923964,0.0010002502240240574,0.0010595330968499184,0.0006061547319404781,0.000499522837344557,0.00041809221147559583,0.00862041860818863,0.009373931214213371,0.011540919542312622,passive,0
2.8807,rehab,large_fast,36.1923628303542,-666.6316348023189,293.59240802483356,-177.65025947773694,0.2907689340785412,-149.85312123057432,36.327,-0.0153,-48.8907,-18.4699,0.3055,8.8789,80.5771025100557,27.91881599048577,83.71079624289334,-23.287913004557293,-89.01493496365018,-39.61876763237847,3.1017545190187965,2.61199951171875,4.310828482750619,-7.322014702690972,-0.06785074869791667,3.1890869140625,-3.1168,-1.5849,-1.9117,-0.03807,0.00448,0.05891,0.0010910879354923964,0.0010002502240240574,0.0010595330968499184,0.0006061547319404781,0.000499522837344557,0.00041809221147559583,0.00862041860818863,0.009373931214213371,0.011540919542312622,passive,0
2.9008,rehab,large_fast,37.07826963399325,-666.6333320649395,292.3760685349603,-177.65147355474383,0.29175130242522995,-149.85430806564594,35.7068,0.0155,-48.2943,6.7692,0.5635,-14.1526,80.64159959849745,27.974107950040608,83.79702124265161,-23.430252075195312,-89.01631673177083,-39.55470614963107,3.2650061881188117,2.7752511808187657,4.143538522248221,-7.111596001519097,-0.06785074869791667,3.1890869140625,-3.1508,-1.6026,-1.8083,-0.03369,0.00659,0.06153,0.0010910879354923964,0.0010002502240240574,0.0010595330968499184,0.0006061547319404781,0.000499522837344557,0.00041809221147559583,0.00862041860818863,0.009373931214213371,0.011540919542312622,passive,0
2.9205,rehab,large_fast,37.67170639141637,-666.6389665607965,291.5649588660766,-177.6520176442636,0.2922177621949081,-149.85441178617322,35.554,0.0184,-48.1476,21.3847,0.6433,-27.2484,80.69334275651686,28.01920220403388,83.86480879075457,-23.543980916341145,-89.01740180121527,-39.50399610731337,3.482672814095374,2.884087893042234,4.310774094987623,-6.966459486219618,-0.13570149739583334,3.1890869140625,-3.1978,-1.6083,-1.3512,-0.04405,0.00897,0.0559,0.0010910879354923964,0.0010002502240240574,0.0010595330968499184,0.0006061547319404781,0.000499522837344557,0.00041809221147559583,0.00862041860818863,0.009373931214213371,0.011540919542312622,passive,0
2.9407,rehab,large_fast,38.57233764038222,-666.6369640112002,290.35806759668407,-177.65271292008867,0.2927966488459242,-149.85396836534593,36.2251,0.0098,-48.9474,25.2068,0.2817,-31.5721,80.77221860980043,28.086105950988166,83.96667027237392,-23.713929918077255,-89.01899549696181,-39.42761739095052,3.373836101871906,2.7208362239422184,4.2413753094059405,-6.917334662543403,-0.06785074869791667,3.324796888563368,-3.0356,-1.8212,-2.3024,-0.02671,0.00196,0.05517,0.0010910879354923964,0.0010002502240240574,0.0010595330968499184,0.0006061547319404781,0.000499522837344557,0.00041809221147559583,0.00862041860818863,0.009373931214213371,0.011540919542312622,passive,0
2.9608,rehab,large_fast,39.16282396517507,-666.6325202651475,289.5707303976926,-177.65185769855438,0.29206209519196313,-149.8540190523031,37.9046,0.0085,-51.0088,22.4219,-0.2755,-30.8305,80.82374421676786,28.129398610332224,84.03467537152885,-23.82749769422743,-89.02008904351128,-39.37701755099826,3.2650061881188117,2.61199951171875,4.2823972796449565,-7.089402940538195,-0.06785074869791667,3.1890869140625,-3.075,-1.8009,-1.8417,-0.04014,0.01024,0.05299,0.0010910879354923964,0.0010002502240240574,0.0010595330968499184,0.0006061547319404781,0.000499522837344557,0.00041809221147559583,0.00862041860818863,0.009373931214213371,0.011540919542312622,passive,0
2.9809,rehab,large_fast,40.040547080189825,-666.6297422680641,288.39519682368154,-177.65007472764424,0.2905898646535441,-149.85448270273693,38.9726,0.0242,-52.3706,12.1047,-0.4899,-21.0135,80.90099523563197,28.194432777933553,84.13519755448445,-23.997328016493054,-89.02171664767795,-39.30191887749566,3.373836101871906,2.7208362239422184,4.039841453627784,-7.020628187391493,-0.06785074869791667,3.1890869140625,-3.0801,-1.7726,-2.4146,-0.03724,0.00044,0.06132,0.0010910879354923964,0.0010002502240240574,0.0010595330968499184,0.0006061547319404781,0.000499522837344557,0.00041809221147559583,0.00862041860818863,0.009373931214213371,0.011540919542312622,passive,0
3.0005,rehab,large_fast,40.62997432022624,-666.6317166062832,287.6117447488105,-177.648996902489,0.28968730600866577,-149.8541938189079,38.397,0.0284,-51.746,-2.1486,-0.2368,-4.8686,80.95237127625116,28.238704417011526,84.20073480889349,-24.11025153266059,-89.02278476291232,-39.25142923990885,3.2650061881188117,2.8296661376953125,4.075377058274675,-7.139578925238715,-0.06785074869791667,3.1890869140625,-3.1339,-1.6938,-2.2289,-0.03244,0.00537,0.06129,0.0010910879354923964,0.0010002502240240574,0.0010595330968499184,0.0006061547319404781,0.000499522837344557,0.00041809221147559583,0.00862041860818863,0.009373931214213371,0.011540919542312622,passive,0
3.0207,rehab,large_fast,41.513333169343625,-666.6345590623655,286.40288159563715,-177.64936852588892,0.2899754025273142,-149.85311901519506,37.53,-0.012,-50.9779,-18.9699,-0.0317,15.6982,81.04246460565246,28.318980755192218,84.3159008970355,-24.308047824435764,-89.02464972601996,-39.164835611979164,3.2105844327718907,2.938502849918781,4.026971949209081,-7.047992282443576,-0.0,3.0533854166666665,-3.2685,-1.7697,-1.6748,-0.04344,-0.00072,0.05849,0.0010910879354923964,0.0010002502240240574,0.0010595330968499184,0.0006061547319404781,0.000499522837344557,0.00041809221147559583,0.00862041860818863,0.009373931214213371,0.011540919542312622,passive,0
3.0405,rehab,large_fast,42.26497838001046,-666.6337445838798,285.38280380249324,-177.6509280560467,0.2912650752327821,-149.85172184209227,36.9378,-0.0417,-50.5837,-38.8666,-0.1721,41.6754,81.09509836329092,28.3655842696086,84.38192084284113,-24.42074245876736,-89.02570088704427,-39.11455790201823,3.319421144995359,2.8296661376953125,4.2131344634707615,-6.982057359483507,-0.06785074869791667,3.2569376627604165,-3.1676,-1.8158,-2.0688,-0.03637,0.00081,0.05695,0.0010910879354923964,0.0010002502240240574,0.0010595330968499184,0.0006061547319404781,0.000499522837344557,0.00041809221147559583,0.00862041860818863,0.009373931214213371,0.011540919542312622,passive,0
3.0606,rehab,large_fast,43.15202733990805,-666.6343074502264,284.1703207386555,-177.65173476844956,0.29193418486303807,-149.85129971658108,35.9299,-0.0169,-49.4279,-41.4024,-0.2609,47.3888,81.17300203531096,28.435771677753714,84.4804034846844,-24.589979383680554,-89.02727762858073,-39.03912014431423,3.2105844327718907,2.884087893042234,4.131532423567064,-7.023222181532118,-0.06785074869791667,3.0533854166666665,-3.1145,-1.8445,-2.4331,-0.03762,0.01455,0.05758,0.0010910879354923964,0.0010002502240240574,0.0010595330968499184,0.0006061547319404781,0.000499522837344557,0.00041809221147559583,0.00862041860818863,0.009373931214213371,0.011540919542312622,passive,0
3.0809,rehab,large_fast,43.72757531737272,-666.6338159845602,283.37518481199027,-177.65155254658245,0.2917515467720478,-149.85208064305948,35.598,0.0213,-48.9376,-14.3827,-0.0051,17.3302,81.22364384112971,28.482001276299506,84.54474420830755,-24.70227559407552,-89.02835422092014,-38.98951212565104,3.1561694758953434,2.938502849918781,4.009132762946705,-7.122039794921875,-0.06785074869791667,3.121236165364583,-2.9998,-1.7449,-2.3334,-0.02825,0.01452,0.06296,0.0010910879354923964,0.0010002502240240574,0.0010595330968499184,0.0006061547319404781,0.000499522837344557,0.00041809221147559583,0.00862041860818863,0.009373931214213371,0.011540919542312622,passive,0
3.1009,rehab,large_fast,44.29097691985292,-666.6352228216225,282.5858814623737,-177.6508640279173,0.29116617368804104,-149.85367305061402,35.5813,0.0187,-48.7666,12.018,0.368,-9.4142,81.27323188404046,28.52798612991182,84.60879939617497,-24.814732869466145,-89.02943929036458,-38.93949720594618,3.047339562142249,2.8296661376953125,4.063207796304533,-7.138553195529513,-0.06785074869791667,3.121236165364583,-3.2461,-1.7806,-1.9348,-0.04727,0.01421,0.05705,0.0010910879354923964,0.0010002502240240574,0.0010595330968499184,0.0006061547319404781,0.000499522837344557,0.00041809221147559583,0.00862041860818863,0.009373931214213371,0.011540919542312622,passive,0
3.1208,rehab,large_fast,45.15216374040328,-666.6336241184928,281.4002127763579,-177.64986493624932,0.2903556658670839,-149.8553401382189,35.1529,-0.0191,-48.1389,24.1152,0.3485,-18.6611,81.3608981595181,28.608711167137223,84.7204574736038,-25.011071099175346,-89.03131273057726,-38.85203891330295,3.319421144995359,2.992917806795328,3.986092746847927,-7.043668958875868,-0.06785074869791667,3.121236165364583,-3.2181,-1.7444,-1.5539,-0.04218,0.01429,0.06376,0.0010910879354923964,0.0010002502240240574,0.0010595330968499184,0.0006061547319404781,0.000499522837344557,0.00041809221147559583,0.00862041860818863,0.009373931214213371,0.011540919542312622,passive,0
3.1405,rehab,large_fast,45.74069717939811,-666.6310454072683,280.6019095352614,-177.64987202409884,0.2903881783553402,-149.85547427148293,35.096,-0.0224,-47.898,28.3942,-0.0743,-23.3033,81.41237617719291,28.655593418838954,84.78416593948214,-25.123138427734375,-89.03236389160156,-38.801676432291664,3.373836101871906,3.047339562142249,4.020044307897587,-7.118776109483507,-0.13570149739583334,3.1890869140625,-3.2549,-1.7075,-2.0118,-0.04417,0.01516,0.06354,0.0010910879354923964,0.0010002502240240574,0.0010595330968499184,0.0006061547319404781,0.000499522837344557,0.00041809221147559583,0.00862041860818863,0.009373931214213371,0.011540919542312622,passive,0
3.1611,rehab,large_fast,46.65095813991692,-666.6314391574082,279.38608140943086,-177.65095134100773,0.29127510067034657,-149.85274479087047,38.0645,0.012,-51.4417,27.6305,-0.2631,-25.4295,81.49204065303991,28.728289462552212,84.8786714761564,-25.291180080837673,-89.03394063313802,-38.72662014431423,3.2650061881188117,3.2105844327718907,3.863020037660504,-7.118716769748263,-0.13570149739583334,3.121236165364583,-3.2614,-1.6908,-1.931,-0.03299,0.00963,0.05968,0.0010910879354923964,0.0010002502240240574,0.0010595330968499184,0.0006061547319404781,0.000499522837344557,0.00041809221147559583,0.00862041860818863,0.009373931214213371,0.011540919542312622,passive,0
3.1805,rehab,large_fast,47.251223594917775,-666.6355346089647,278.5783220320208,-177.65127801887033,0.2915771154966113,-149.85210332556287,39.2254,0.0227,-52.5035,22.0359,0.0832,-21.3161,81.54463361985613,28.77729283701075,84.94055115350402,-25.403128729926216,-89.03499179416232,-38.67591857910156,3.2650061881188117,3.1561694758953434,3.89811374173306,-7.152362399631076,-0.13570149739583334,3.2569376627604165,-3.236,-1.8076,-2.3715,-0.04173,0.00968,0.06506,0.0010910879354923964,0.0010002502240240574,0.0010595330968499184,0.0006061547319404781,0.000499522837344557,0.00041809221147559583,0.00862041860818863,0.009373931214213371,0.011540919542312622,passive,0
3.2007,rehab,large_fast,48.136633736447024,-666.6380030098754,277.36539092936135,-177.65229454762405,0.2924495736537014,-149.8522724439559,38.0329,0.0034,-50.6184,14.1995,0.4248,-12.6316,81.62217697294632,28.85081149563931,85.0334114603477,-25.570424397786457,-89.03656005859375,-38.600073920355904,3.1017545190187965,3.047339562142249,3.7709415549098857,-7.043033175998263,-0.0,3.1890869140625,-3.1902,-1.8924,-2.3334,-0.02083,0.01285,0.06018,0.0010910879354923964,0.0010002502240240574,0.0010595330968499184,0.0006061547319404781,0.000499522837344557,0.00041809221147559583,0.00862041860818863,0.009373931214213371,0.011540919542312622,passive,0
3.2206,rehab,large_fast,48.72758121733928,-666.6348556502926,276.57681354406606,-177.65128950364067,0.2915629670564688,-149.85238656737508,37.6586,-0.0185,-50.3043,-1.3617,0.1229,6.9373,81.67389293708423,28.898224028030246,85.09528433922493,-25.682551066080727,-89.03770446777344,-38.549491034613716,3.2650061881188117,2.992917806795328,3.8167020589998453,-7.128643459743923,-0.06785074869791667,3.1890869140625,-3.2065,-1.7888,-2.1771,-0.02803,0.01719,0.06172,0.0010910879354923964,0.0010002502240240574,0.0010595330968499184,0.0006061547319404781,0.000499522837344557,0.00041809221147559583,0.00862041860818863,0.009373931214213371,0.011540919542312622,passive,0
3.2409,rehab,large_fast,49.77695835965604,-666.629404404943,275.20305167010355,-177.64954151935004,0.2901241607816873,-149.85245512615447,37.4645,-0.0054,-50.2881,-26.1101,-0.454,38.026,81.765719876431,28.98159367023128,85.20191154857673,-25.87747361924913,-89.0396711561415,-38.45976087782118,3.319421144995359,2.992917806795328,3.758323593895034,-6.908560858832465,-0.06785074869791667,3.2569376627604165,-3.2631,-1.7604,-2.0294,-0.04848,0.01327,0.05934,0.0010910879354923964,0.0010002502240240574,0.0010595330968499184,0.0006061547319404781,0.000499522837344557,0.00041809221147559583,0.00862041860818863,0.009373931214213371,0.011540919542312622,passive,0
3.2606,rehab,large_fast,50.39095791083879,-666.6304537946354,274.4022384784278,-177.64967649223757,0.29025096304954906,-149.85108964511036,37.5818,0.0263,-50.4099,-25.8452,-0.4756,37.7467,81.81948897862198,29.031242899375385,85.26185366186765,-25.98839653862847,-89.04075622558594,-38.408593071831596,3.373836101871906,3.319421144995359,3.648698259108137,-7.044338650173611,-0.06785074869791667,3.121236165364583,-3.188,-1.8275,-2.5288,-0.04888,0.00358,0.05559,0.0010910879354923964,0.0010002502240240574,0.0010595330968499184,0.0006061547319404781,0.000499522837344557,0.00041809221147559583,0.00862041860818863,0.009373931214213371,0.011540919542312622,passive,0
3.2805,rehab,large_fast,50.997518142520406,-666.6350216400291,273.5858204729247,-177.65036729980747,0.29082958592729213,-149.85079141802154,37.2498,0.0249,-49.593,1.9441,-0.059,6.3764,81.8594503874826,29.069559078405398,85.30675076022007,-26.072218153211804,-89.04157002766927,-38.3697255452474,3.2105844327718907,3.2105844327718907,3.8715997072729733,-6.887317233615451,-0.06785074869791667,3.1890869140625,-3.3633,-1.8148,-2.3224,-0.07017,0.01969,0.05349,0.0010910879354923964,0.0010002502240240574,0.0010595330968499184,0.0006061547319404781,0.000499522837344557,0.00041809221147559583,0.00862041860818863,0.009373931214213371,0.011540919542312622,passive,0
3.3005,rehab,large_fast,51.89306719663176,-666.635474864637,272.3494277435091,-177.65353110930408,0.2933464160141786,-149.85221322018936,37.1582,-0.0216,-49.0677,22.6424,0.1332,-10.5957,81.93797951877707,29.146803298799117,85.39717041619933,-26.238572862413193,-89.04323154025607,-38.291965060763886,3.373836101871906,3.2650061881188117,3.808068001624381,-6.942147148980035,-0.0,3.324796888563368,-3.1778,-1.883,-2.0939,-0.03414,0.01481,0.05752,0.0010910879354923964,0.0010002502240240574,0.0010595330968499184,0.0006061547319404781,0.000499522837344557,0.00041809221147559583,0.00862041860818863,0.009373931214213371,0.011540919542312622,passive,0
3.3205,rehab,large_fast,52.48894866496541,-666.6350955027605,271.5446339680463,-177.65388724802068,0.2936352550118991,-149.85322929948325,36.4495,-0.0547,-47.8616,32.2217,-0.0817,-14.286,81.99012378654858,29.197383918384514,85.45686778455678,-26.349224514431423,-89.04433356391058,-38.23997497558594,3.2105844327718907,3.1561694758953434,3.7670528298557393,-6.726337009006076,-0.06785074869791667,3.324796888563368,-3.2612,-1.859,-2.1652,-0.03214,0.01805,0.0592,0.0010910879354923964,0.0010002502240240574,0.0010595330968499184,0.0006061547319404781,0.000499522837344557,0.00041809221147559583,0.00862041860818863,0.009373931214213371,0.011540919542312622,passive,0
3.3409,rehab,large_fast,53.40658749839077,-666.6320447240648,270.36719797767626,-177.65230791828208,0.29242410146069975,-149.8536263780256,37.7597,-0.0234,-49.1781,39.8804,-0.279,-20.5397,82.07014178285505,29.271759184280246,85.54481279731976,-26.515409681532116,-89.04603746202257,-38.16133287217882,3.319421144995359,2.938502849918781,3.4876492944094215,-7.006590101453993,-0.0,3.2569376627604165,-3.131,-1.9065,-2.2301,-0.03431,0.00488,0.05286,0.0010910879354923964,0.0010002502240240574,0.0010595330968499184,0.0006061547319404781,0.000499522837344557,0.00041809221147559583,0.00862041860818863,0.009373931214213371,0.011540919542312622,passive,0
3.3605,rehab,large_fast,54.02888091127407,-666.633263082336,269.58932247958813,-177.65045602086303,0.2909059470969742,-149.8531088511946,40.1468,0.0206,-51.6064,41.4664,0.0013,-24.5288,82.1244479642056,29.321279242487236,85.60228706586479,-26.626001993815102,-89.04719882541232,-38.108435736762154,3.319421144995359,3.2105844327718907,3.5241434833790994,-6.791135999891493,-0.06785074869791667,3.392647637261285,-3.2634,-1.8887,-2.6642,-0.03703,0.01119,0.06336,0.0010910879354923964,0.0010002502240240574,0.0010595330968499184,0.0006061547319404781,0.000499522837344557,0.00041809221147559583,0.00862041860818863,0.009373931214213371,0.011540919542312622,passive,0
3.3807,rehab,large_fast,54.979403784859855,-666.635180905749,268.39520890782285,-177.64987995461874,0.2904562160100801,-149.85154354592578,41.1838,0.0175,-51.9348,37.8251,0.533,-23.5829,82.2077224278214,29.398258322536353,85.6872543486038,-26.791576809353298,-89.04897054036458,-38.02886962890625,3.428251058748453,3.319421144995359,3.502925457340656,-7.027740478515625,-0.06785074869791667,3.2569376627604165,-3.3305,-1.9458,-2.4376,-0.0657,0.01063,0.05536,0.0010910879354923964,0.0010002502240240574,0.0010595330968499184,0.0006061547319404781,0.000499522837344557,0.00041809221147559583,0.00862041860818863,0.009373931214213371,0.011540919542312622,passive,0
3.4005,rehab,large_fast,55.61182692418238,-666.6370656634706,267.58478942605933,-177.65063024944277,0.2910461122789339,-149.85183146386683,41.0953,-0.013,-51.1696,27.1305,0.6259,-11.697,82.26304158125774,29.4504977688931,85.74417114257812,-26.901762220594616,-89.05014038085938,-37.974650065104164,3.373836101871906,3.319421144995359,3.5099278818262687,-6.951641506618923,-0.06785074869791667,3.4604983859592013,-3.1395,-2.0211,-2.4794,-0.05083,0.01209,0.05333,0.0010910879354923964,0.0010002502240240574,0.0010595330968499184,0.0006061547319404781,0.000499522837344557,0.00041809221147559583,0.00862041860818863,0.009373931214213371,0.011540919542312622,passive,0
3.4209,rehab,large_fast,56.56667748415489,-666.6339748578368,266.3671892955011,-177.65218881070493,0.2922735221464839,-149.85227936617588,41.2555,-0.0209,-51.0808,4.8854,0.1461,16.8353,82.36046366172262,29.542555856232596,85.84374833815168,-27.093997531467014,-89.05224270290799,-37.878731621636284,3.5915027278484684,3.1561694758953434,3.532124887598623,-6.9253285725911455,-0.13570149739583334,3.4604983859592013,-3.1896,-1.9453,-2.0724,-0.04025,0.0148,0.05442,0.0010910879354923964,0.0010002502240240574,0.0010595330968499184,0.0006061547319404781,0.000499522837344557,0.00041809221147559583,0.00862041860818863,0.009373931214213371,0.011540919542312622,passive,0
3.4405,rehab,large_fast,57.37761129055006,-666.6324925695181,265.3621088206934,-177.6525898281634,0.2925486667177265,-149.85175276509003,41.0001,0.0067,-50.7059,-13.9765,-0.3437,40.6432,82.41708132300046,29.59540036645266,85.8997609355662,-27.203869289822048,-89.05348883734808,-37.82360500759548,3.5370877709719215,3.319421144995359,3.5727253526744276,-7.02225579155816,-0.13570149739583334,3.324796888563368,-3.0718,-1.9385,-2.2917,-0.02367,0.00489,0.05751,0.0010910879354923964,0.0010002502240240574,0.0010595330968499184,0.0006061547319404781,0.000499522837344557,0.00041809221147559583,0.00862041860818863,0.009373931214213371,0.011540919542312622,passive,0
3.4609,rehab,large_fast,58.365262733282165,-666.6337840661555,264.1764092141384,-177.65165461536222,0.2918123228544558,-149.85156679956444,40.6881,0.0345,-50.0645,-17.2062,-0.4308,43.1985,82.50348308298847,29.674038273273126,85.98183886839611,-27.367833455403645,-89.05536227756076,-37.739410400390625,3.5915027278484684,3.319421144995359,3.3590086379853807,-6.740620930989583,-0.0,3.528349134657118,-2.9313,-2.0324,-2.1405,-0.0224,-0.00031,0.05377,0.0010910879354923964,0.0010002502240240574,0.0010595330968499184,0.0006061547319404781,0.000499522837344557,0.00041809221147559583,0.00862041860818863,0.009373931214213371,0.011540919542312622,passive,0
3.4805,rehab,large_fast,59.03367480602696,-666.6360226290185,263.38401532162277,-177.65078346683774,0.29115984023997776,-149.85059535606362,40.8196,0.0215,-49.5914,-3.5761,-0.2552,28.2712,82.57660063186495,29.740404941067837,86.04887178628752,-27.504908243815102,-89.05693901909721,-37.66883850097656,3.5915027278484684,3.373836101871906,3.336702856687036,-6.8265533447265625,-0.06785074869791667,3.528349134657118,-3.0419,-2.0685,-2.54,-0.02734,0.01557,0.05909,0.0010910879354923964,0.0010002502240240574,0.0010595330968499184,0.0006061547319404781,0.000499522837344557,0.00041809221147559583,0.00862041860818863,0.009373931214213371,0.011540919542312622,passive,0
3.5006,rehab,large_fast,59.69526110462573,-666.6353884810984,262.5810911000351,-177.65109274146556,0.2914179957989701,-149.85174960848988,40.2618,-0.0153,-47.9782,22.0968,-0.2275,6.0775,82.62024681166847,29.780624691802675,86.08973059323755,-27.587085300021702,-89.05792236328125,-37.62540181477865,3.64592448319539,3.373836101871906,3.397555965008122,-6.93589104546441,-0.0,3.8676198323567705,-3.3231,-2.1132,-2.4124,-0.06065,0.02268,0.05337,0.0010910879354923964,0.0010002502240240574,0.0010595330968499184,0.0006061547319404781,0.000499522837344557,0.00041809221147559583,0.00862041860818863,0.009373931214213371,0.011540919542312622,passive,0
3.5208,rehab,large_fast,60.68137377885083,-666.632010913123,261.36656468657714,-177.65264288743728,0.2925466972148565,-149.8548318251239,40.7307,-0.0423,-47.7103,49.9411,-0.3419,-14.4476,82.70641742366375,29.86184601736541,86.17067318151493,-27.750133938259548,-89.05990600585938,-37.53798590766059,3.482672814095374,3.5370877709719215,3.3414617859491025,-6.746826171875,-0.06785074869791667,3.664059109157986,-2.9835,-1.9984,-2.3084,-0.03242,0.01188,0.05029,0.0010910879354923964,0.0010002502240240574,0.0010595330968499184,0.0006061547319404781,0.000499522837344557,0.00041809221147559583,0.00862041860818863,0.009373931214213371,0.011540919542312622,passive,0
3.5406,rehab,large_fast,61.350320012708195,-666.6325733808363,260.56987180807573,-177.65228212175313,0.2922913427698588,-149.85672331489766,41.7238,-0.0451,-48.3555,67.9043,-0.2275,-27.641,82.76474150100557,29.916104609423343,86.22393239842783,-27.85935295952691,-89.061279296875,-37.478646172417534,3.5370877709719215,3.373836101871906,3.2112506828685796,-6.871303982204861,-0.13570149739583334,3.664059109157986,-3.1392,-2.0741,-2.2635,-0.04931,0.01529,0.05017,0.0010910879354923964,0.0010002502240240574,0.0010595330968499184,0.0006061547319404781,0.000499522837344557,0.00041809221147559583,0.00862041860818863,0.009373931214213371,0.011540919542312622,passive,0
3.5605,rehab,large_fast,62.3958671254605,-666.6351306516602,259.39365248422564,-177.65009732361435,0.29069834981778486,-149.8571170874777,43.3551,-0.0184,-49.5832,72.692,0.2171,-32.687,82.85550787897394,29.997516292156558,86.30099985859182,-28.02258809407552,-89.06326293945312,-37.38903469509548,3.9724210229250465,3.428251058748453,3.2431151135133045,-6.788296169704861,-0.06785074869791667,4.0033213297526045,-2.9386,-1.8836,-1.9013,-0.01848,0.00631,0.05018,0.0010910879354923964,0.0010002502240240574,0.0010595330968499184,0.0006061547319404781,0.000499522837344557,0.00041809221147559583,0.00862041860818863,0.009373931214213371,0.011540919542312622,passive,0
3.5806,rehab,large_fast,63.12090657803894,-666.6381944106612,258.6114374296083,-177.64861288640785,0.2895605617742187,-149.85568566562065,46.2041,0.0004,-51.5545,71.0626,0.642,-33.1302,82.91877444427793,30.052019629147974,86.35103660054726,-28.131061130099827,-89.06464470757378,-37.32820298936632,3.918006066048499,3.5915027278484684,3.082997539255879,-6.716096666124132,-0.06785074869791667,3.9354705810546875,-2.9966,-2.0578,-2.2386,-0.03729,0.00903,0.05037,0.0010910879354923964,0.0010002502240240574,0.0010595330968499184,0.0006061547319404781,0.000499522837344557,0.00041809221147559583,0.00862041860818863,0.009373931214213371,0.011540919542312622,passive,0
