t,trajectory_type,trajectory_variant,x,y,z,rx,ry,rz,vx,vy,vz,ax,ay,az,j1,j2,j3,j4,j5,j6,dj1,dj2,dj3,dj4,dj5,dj6,fx,fy,fz,tx,ty,tz,Mx,My,Mz,Bx,By,Bz,Kx,Ky,Kz,mode,comfort
0.0007,rehab,medium,80.22134512540931,-666.6348813172955,262.4758538413242,-177.65185802244497,0.292001138909223,-149.85180710008896,0.7828,0.1378,-0.7233,-29.4451,-4.6865,31.1422,84.42838838785002,30.063780982895654,85.69199968092512,-27.52303229437934,-89.11314222547743,-35.81678602430556,-0.0,0.05441495687654703,-0.007389937296952352,-0.01312255859375,0.06785074869791667,0.06785074869791667,-2.7564,-0.3926,-2.9223,-0.07825,0.03786,0.06178,0.0008361015352420509,0.0009996180888265371,0.0009686237317509949,0.0004270822391845286,0.0004998252261430025,0.00041305404738523066,0.011588635854423046,0.010569712147116661,0.011607937514781952,passive,0
0.0207,rehab,medium,80.2204933226527,-666.6347989747896,262.47614568242057,-177.65184836675317,0.2919941505660338,-149.851881708122,0.4609,0.0839,-0.4334,-26.9794,-4.1542,26.638,84.42831360467589,30.063740192073407,85.69202007633625,-27.523023817274304,-89.11314222547743,-35.81678602430556,-0.05441495687654703,-0.05441495687654703,0.01779159696975557,-0.007103814019097222,-0.0,0.06785074869791667,-2.7264,-0.3188,-3.0404,-0.06299,0.03471,0.06886,0.0008361015352420509,0.0009996180888265371,0.0009686237317509949,0.0004270822391845286,0.0004998252261430025,0.00041305404738523066,0.011588635854423046,0.010569712147116661,0.011607937514781952,passive,0
0.0409,rehab,medium,80.21921440685246,-666.6349186957531,262.4770979602895,-177.65177471382813,0.29193111267319344,-149.85199903828328,-0.1472,-0.0111,0.1092,-22.7224,-3.1205,18.9725,84.4282048291499,30.063672207369663,85.69199968092512,-27.52303229437934,-89.11315070258246,-35.81677754720052,-0.0,0.05441495687654703,-0.00789982257503094,-0.022828843858506944,-0.0,-0.0,-2.6894,-0.3373,-2.3026,-0.08924,0.03262,0.06097,0.0008361015352420509,0.0009996180888265371,0.0009686237317509949,0.0004270822391845286,0.0004998252261430025,0.00041305404738523066,0.011588635854423046,0.010569712147116661,0.011607937514781952,passive,0
0.0609,rehab,medium,80.21843404438926,-666.6349019751652,262.47751225029793,-177.6517471696967,0.2919115993913572,-149.85207536454487,-0.6634,-0.0775,0.5591,-19.4856,-2.1171,13.8324,84.42813684444616,30.063631416547416,85.6920064793955,-27.52303229437934,-89.11315070258246,-35.81676907009548,-0.0,-0.0,0.0016384313602258664,-0.003085666232638889,0.06785074869791667,0.06785074869791667,-2.953,-0.2553,-2.4733,-0.07619,0.03602,0.06488,0.0008361015352420509,0.0009996180888265371,0.0009686237317509949,0.0004270822391845286,0.0004998252261430025,0.00041305404738523066,0.011588635854423046,0.010569712147116661,0.011607937514781952,passive,0
0.0811,rehab,medium,80.21335403302818,-666.6350362096703,262.48065039140147,-177.6515309626597,0.2917667040961989,-149.85251580470347,-1.1122,-0.1181,0.9378,-17.1783,-1.1041,11.035,84.42769494387183,30.063366276202814,85.69198608398438,-27.523006863064236,-89.11314222547743,-35.81676907009548,-0.05441495687654703,-0.0,-0.018566622592435026,-0.006357828776041666,0.06785074869791667,-0.0,-2.8837,-0.4126,-3.0542,-0.08573,0.03426,0.06703,0.0008361015352420509,0.0009996180888265371,0.0009686237317509949,0.0004270822391845286,0.0004998252261430025,0.00041305404738523066,0.011588635854423046,0.010569712147116661,0.011607937514781952,passive,0
0.101,rehab,medium,80.1975793884246,-666.6354527830266,262.492739760726,-177.6506922824145,0.2911535395414411,-149.8538698204108,-1.3086,-0.1149,1.0309,-15.1098,-0.1372,10.407,84.42632845132658,30.062387296468906,85.69185011457688,-27.522930569118923,-89.11315070258246,-35.81677754720052,-0.10882991375309406,-0.10882991375309406,-0.02695593503442141,-0.0,-0.0,-0.06785074869791667,-2.818,-0.3111,-3.2276,-0.06925,0.03389,0.06665,0.0008361015352420509,0.0009996180888265371,0.0009686237317509949,0.0004270822391845286,0.0004998252261430025,0.00041305404738523066,0.011588635854423046,0.010569712147116661,0.011607937514781952,passive,0
0.1218,rehab,medium,80.1394327002953,-666.6408453059728,262.54287601755607,-177.64731129788234,0.28872886316034657,-149.8588238166937,-1.5958,-0.0864,1.1779,-13.1586,1.3094,11.7993,84.42131797866065,30.058899681166846,85.69027966792041,-27.52203199598524,-89.11315070258246,-35.81681145562066,-0.2720815828531095,-0.16324487062964108,-0.10010067779238861,0.1048702663845486,-0.0,-0.0,-2.8724,-0.3882,-2.493,-0.0769,0.02744,0.06256,0.0008361015352420509,0.0009996180888265371,0.0009686237317509949,0.0004270822391845286,0.0004998252261430025,0.00041305404738523066,0.011588635854423046,0.010569712147116661,0.011607937514781952,passive,0
0.1407,rehab,medium,80.10044027577496,-666.6450298130833,262.5759386159782,-177.6458022574038,0.28764439240022505,-149.86188448402828,-1.8812,-0.0697,1.3841,-13.6983,2.4932,16.4525,84.41795953429572,30.05675136452854,85.6886616319713,-27.520116170247395,-89.11315070258246,-35.81708272298177,-0.2176666259765625,-0.10882991375309406,-0.08106496074412128,0.13009813096788195,-0.06785074869791667,-0.06785074869791667,-2.6961,-0.3073,-2.7938,-0.06434,0.03038,0.06852,0.0008361015352420509,0.0009996180888265371,0.0009686237317509949,0.0004270822391845286,0.0004998252261430025,0.00041305404738523066,0.011588635854423046,0.010569712147116661,0.011607937514781952,passive,0
0.1608,rehab,medium,80.06416786778779,-666.6465627421669,262.60527884136434,-177.64537307223276,0.287282378062608,-149.86319971824818,-2.1619,-0.0373,1.7475,-18.3906,2.847,26.2645,84.41481184251238,30.054657435653233,85.68711837919632,-27.516988118489582,-89.11315070258246,-35.81887986924913,-0.16324487062964108,-0.16324487062964108,-0.1006445554223391,0.2705213758680555,-0.0,-0.06785074869791667,-2.8397,-0.3278,-2.8197,-0.05844,0.01437,0.06768,0.0008361015352420509,0.0009996180888265371,0.0009686237317509949,0.0004270822391845286,0.0004998252261430025,0.00041305404738523066,0.011588635854423046,0.010569712147116661,0.011607937514781952,passive,0
0.181,rehab,medium,80.01942159774532,-666.6433166016532,262.63440290549613,-177.64764739490212,0.28880438356549804,-149.86188969434667,-2.7103,0.0307,2.5476,-28.8868,2.6736,41.5472,84.41086872969524,30.052175993966586,85.68500405490988,-27.509511311848957,-89.1131083170573,-35.824059380425346,-0.16324487062964108,-0.10882991375309406,-0.08191476954091893,0.3843010796440972,-0.06785074869791667,-0.339262220594618,-2.7952,-0.3998,-2.5118,-0.06605,0.02507,0.06495,0.0008361015352420509,0.0009996180888265371,0.0009686237317509949,0.0004270822391845286,0.0004998252261430025,0.00041305404738523066,0.011588635854423046,0.010569712147116661,0.011607937514781952,passive,0
0.201,rehab,medium,79.98889818174396,-666.640031448834,262.65845402519517,-177.65001209891815,0.2904079264971143,-149.8598051161497,-3.032,0.123,3.1973,-40.882,2.2001,56.0993,84.40816293848623,30.050204437558012,85.6829033275642,-27.502449883355034,-89.11306593153212,-35.82878112792969,-0.16324487062964108,-0.16324487062964108,-0.14157134707611385,0.4879167344835069,-0.0,-0.339262220594618,-2.7003,-0.3968,-2.1671,-0.05589,0.02329,0.05785,0.0008361015352420509,0.0009996180888265371,0.0009686237317509949,0.0004270822391845286,0.0004998252261430025,0.00041305404738523066,0.011588635854423046,0.010569712147116661,0.011607937514781952,passive,0
0.2216,rehab,medium,79.89686773005269,-666.638598518375,262.7567958215083,-177.65229875430575,0.2919910570029878,-149.8565745469021,-4.0615,0.1895,4.6162,-54.5206,1.5953,69.5067,84.40007275874072,30.043256400835396,85.67583971684522,-27.485343085394966,-89.11283704969618,-35.83992004394531,-0.435333251953125,-0.3809114966062036,-0.3255719477587407,0.7766808403862847,-0.0,-0.4749637179904514,-2.6531,-0.4173,-1.859,-0.05881,0.00892,0.05788,0.0008361015352420509,0.0009996180888265371,0.0009686237317509949,0.0004270822391845286,0.0004998252261430025,0.00041305404738523066,0.011588635854423046,0.010569712147116661,0.011607937514781952,passive,0
0.2409,rehab,medium,79.81927132492413,-666.6380155642329,262.84784156237185,-177.6526887596011,0.2923073679566292,-149.854873546571,-5.4027,0.1791,6.2858,-68.4177,0.7133,79.5077,84.39325389295522,30.036831846331605,85.67007461396774,-27.472415500217014,-89.1125996907552,-35.84829542371962,-0.489748208829672,-0.489748208829672,-0.4130614630066522,0.8484734429253472,-0.0,-0.6106736924913194,-2.6648,-0.5191,-1.8998,-0.063,0.01374,0.05479,0.0008361015352420509,0.0009996180888265371,0.0009686237317509949,0.0004270822391845286,0.0004998252261430025,0.00041305404738523066,0.011588635854423046,0.010569712147116661,0.011607937514781952,passive,0
0.261,rehab,medium,79.6667746561173,-666.6318491908539,263.03464632105636,-177.6524448080463,0.2922234936162517,-149.8523456377171,-7.0774,0.1475,8.1453,-85.5191,-0.6526,88.4287,84.37981331702507,30.023024153001238,85.65977493135055,-27.448111640082466,-89.1121334499783,-35.863986545138886,-0.6529998779296875,-0.6529998779296875,-0.4896394333036819,1.150139702690972,0.06785074869791667,-0.7463751898871528,-2.6422,-0.5332,-2.412,-0.05679,0.02287,0.06102,0.0008361015352420509,0.0009996180888265371,0.0009686237317509949,0.0004270822391845286,0.0004998252261430025,0.00041305404738523066,0.011588635854423046,0.010569712147116661,0.011607937514781952,passive,0
0.2809,rehab,medium,79.53099273185572,-666.6263296147036,263.19325644953375,-177.65188422579232,0.2918376176119684,-149.85111722794855,-9.0895,0.1341,10.1277,-106.3997,-1.9112,99.7374,84.3678616061069,30.01114042678682,85.65147399902344,-27.428241305881077,-89.1117943657769,-35.87693956163194,-0.8162515470297029,-0.8162515470297029,-0.5739608613571318,1.3467746310763888,-0.0,-0.8820851643880208,-2.7246,-0.5518,-1.8401,-0.064,0.01919,0.0557,0.0008361015352420509,0.0009996180888265371,0.0009686237317509949,0.0004270822391845286,0.0004998252261430025,0.00041305404738523066,0.011588635854423046,0.010569712147116661,0.011607937514781952,passive,0
0.3007,rehab,medium,79.36372030815208,-666.6237285550097,263.3803196046102,-177.65094225372584,0.2912074918783186,-149.85047181033954,-10.9228,0.1066,11.7161,-122.8563,-2.4943,107.256,84.35317691009824,29.997482299804688,85.64121510722849,-27.405030992296005,-89.1113789876302,-35.89200337727865,-0.979496417659344,-0.87066650390625,-0.6890113755027847,1.5813191731770833,-0.0,-1.0177951388888888,-2.6061,-0.6389,-2.4052,-0.06788,0.02274,0.05949,0.0008361015352420509,0.0009996180888265371,0.0009686237317509949,0.0004270822391845286,0.0004998252261430025,0.00041305404738523066,0.011588635854423046,0.010569712147116661,0.011607937514781952,passive,0
0.321,rehab,medium,79.05739231945692,-666.6259961804814,263.6997265198429,-177.65012390648943,0.29060402923442186,-149.8501318511347,-13.3266,0.0577,13.7361,-137.0637,-2.3838,114.7582,84.32636374294168,29.974809401106125,85.62227456876548,-27.36367967393663,-89.11072625054253,-35.91868930392795,-1.1971630436359066,-1.0339181730062654,-0.8568316166943842,1.8736606174045138,-0.0,-1.2892066107855902,-2.7266,-0.5295,-2.0407,-0.06948,0.0133,0.0573,0.0008361015352420509,0.0009996180888265371,0.0009686237317509949,0.0004270822391845286,0.0004998252261430025,0.00041305404738523066,0.011588635854423046,0.010569712147116661,0.011607937514781952,passive,0
0.3409,rehab,medium,78.81682375398523,-666.6264805978807,263.9402250564842,-177.65033356895373,0.29079584697138916,-149.85002174546105,-16.3771,-0.0082,16.216,-146.6601,-1.9942,122.2815,84.3052884847811,29.957568480236695,85.60790260239403,-27.331195407443577,-89.11017523871527,-35.93950907389323,-1.4148296696124691,-1.1971630436359066,-0.9085543793026764,2.2344207763671875,0.06785074869791667,-1.357057359483507,-2.6209,-0.4261,-1.4506,-0.04906,0.00416,0.05765,0.0008361015352420509,0.0009996180888265371,0.0009686237317509949,0.0004270822391845286,0.0004998252261430025,0.00041305404738523066,0.011588635854423046,0.010569712147116661,0.011607937514781952,passive,0
0.3612,rehab,medium,78.39659338526008,-666.622475970263,264.3457792210383,-177.65170214356488,0.2918222453088701,-149.84956729933614,-19.8827,-0.0678,19.085,-150.1622,-1.5152,128.0192,84.26843397688157,29.927865963171023,85.58424392549118,-27.27508544921875,-89.10922580295139,-35.97618950737847,-1.5780813387124846,-1.251584798982828,-1.1064306580194152,2.448738945855035,0.06785074869791667,-1.6284688313802083,-2.7041,-0.5544,-2.0091,-0.04209,0.01713,0.05969,0.0008361015352420509,0.0009996180888265371,0.0009686237317509949,0.0004270822391845286,0.0004998252261430025,0.00041305404738523066,0.011588635854423046,0.010569712147116661,0.011607937514781952,passive,0
0.3806,rehab,medium,78.07373751448243,-666.6255305903069,264.65656168456655,-177.65217596675367,0.29216832954107413,-149.84956658199798,-22.7987,-0.0821,21.5582,-142.4214,-0.7423,125.5676,84.24017953400565,29.905832120687656,85.56518101456142,-27.23261515299479,-89.10853068033855,-36.003968980577255,-1.9589996337890625,-1.5236663818359375,-1.2739517665145421,2.8022172715928817,-0.0,-1.832029554578993,-2.6588,-0.5624,-2.1228,-0.04581,0.00407,0.05911,0.0008361015352420509,0.0009996180888265371,0.0009686237317509949,0.0004270822391845286,0.0004998252261430025,0.00041305404738523066,0.011588635854423046,0.010569712147116661,0.011607937514781952,passive,0
0.4011,rehab,medium,77.52262135892008,-666.628514292928,265.1817543244596,-177.65247581604777,0.29241580564837094,-149.84990373941082,-25.784,-0.0737,24.2288,-126.4323,0.3109,115.5679,84.19193078975866,29.86829096728032,85.53370409672803,-27.161873711480034,-89.10732693142361,-36.051084730360245,-2.122251302889078,-1.5780813387124846,-1.3318543386931467,3.1516350640190973,0.06785074869791667,-2.103441026475694,-2.6276,-0.4869,-2.0537,-0.03415,-0.00231,0.06579,0.0008361015352420509,0.0009996180888265371,0.0009686237317509949,0.0004270822391845286,0.0004998252261430025,0.00041305404738523066,0.011588635854423046,0.010569712147116661,0.011607937514781952,passive,0
0.4211,rehab,medium,77.00506601614799,-666.6300359283775,265.6618189797442,-177.65325987930896,0.2929949917717676,-149.85025430527782,-28.0725,-0.0564,26.4786,-108.3372,1.1201,101.4335,84.14661218624303,29.833802327071087,85.50498735786664,-27.096438937717014,-89.10620795355902,-36.09531826443142,-2.3399179288656407,-1.9045846769125154,-1.52770467323832,3.404710557725694,0.06785074869791667,-2.307001749674479,-2.7528,-0.4172,-1.2315,-0.05015,0.01489,0.05931,0.0008361015352420509,0.0009996180888265371,0.0009686237317509949,0.0004270822391845286,0.0004998252261430025,0.00041305404738523066,0.011588635854423046,0.010569712147116661,0.011607937514781952,passive,0
0.4409,rehab,medium,76.31453960761525,-666.6314097422259,266.29630682897977,-177.65385226593716,0.2934156950870429,-149.85056065691117,-29.9638,-0.0275,28.4182,-88.7499,1.5419,83.5051,84.08614659073329,29.788164195447866,85.46733742893332,-27.010743882921005,-89.10472446017795,-36.154513888888886,-2.557584554842203,-1.9589996337890625,-1.6413954933090966,3.6921013726128473,0.06785074869791667,-2.5784132215711804,-2.6494,-0.4741,-1.3931,-0.04787,0.00341,0.05605,0.0008361015352420509,0.0009996180888265371,0.0009686237317509949,0.0004270822391845286,0.0004998252261430025,0.00041305404738523066,0.011588635854423046,0.010569712147116661,0.011607937514781952,passive,0
0.4607,rehab,medium,75.82039364351661,-666.6323210745785,266.7665997188833,-177.65298728362728,0.2927765089590078,-149.85016730763476,-31.2425,0.0121,29.6972,-82.0052,1.4556,74.5074,84.04287432680036,29.754538960976177,85.43970844533183,-26.949344211154514,-89.10364786783855,-36.1974843343099,-2.7208362239422184,-2.067836346012531,-1.7782283065342668,3.960927327473958,0.06785074869791667,-2.8498246934678817,-2.6369,-0.4084,-1.621,-0.03668,0.01566,0.06253,0.0008361015352420509,0.0009996180888265371,0.0009686237317509949,0.0004270822391845286,0.0004998252261430025,0.00041305404738523066,0.011588635854423046,0.010569712147116661,0.011607937514781952,passive,0
0.481,rehab,medium,75.03104920914372,-666.6305719989489,267.52524800589157,-177.65175551085701,0.2919019010486114,-149.84936051074203,-32.8129,0.0495,31.0543,-90.1347,0.9733,77.3256,83.97371348768178,29.700239578095992,85.39517166590926,-26.850060356987846,-89.10189310709636,-36.266326904296875,-3.1017545190187965,-2.448754641089109,-1.8948152749845297,4.3005116780598955,0.13570149739583334,-2.985526190863715,-2.8603,-0.2581,-0.7388,-0.04508,0.01704,0.06109,0.0008361015352420509,0.0009996180888265371,0.0009686237317509949,0.0004270822391845286,0.0004998252261430025,0.00041305404738523066,0.011588635854423046,0.010569712147116661,0.011607937514781952,passive,0
0.5009,rehab,medium,74.47223979998932,-666.6294258831781,268.06813950213393,-177.6505204936796,0.29101294504393155,-149.84855003565977,-34.693,0.0563,32.5125,-104.5118,0.3044,86.2411,83.92475090404548,29.66159707248801,85.36312367656443,-26.779496934678818,-89.10064697265625,-36.315299140082466,-3.1561694758953434,-2.448754641089109,-2.0372500277981898,4.507353040907118,0.13570149739583334,-3.0533854166666665,-2.8558,-0.5062,-1.7292,-0.06249,0.02,0.06412,0.0008361015352420509,0.0009996180888265371,0.0009686237317509949,0.0004270822391845286,0.0004998252261430025,0.00041305404738523066,0.011588635854423046,0.010569712147116661,0.011607937514781952,passive,0
0.5209,rehab,medium,73.88423905464347,-666.6244890562723,268.62727728945697,-177.65033298828294,0.2908501575055002,-149.8474771351124,-36.1474,0.0521,33.5603,-117.6912,-0.3883,96.728,83.87319810319654,29.621431709516166,85.33023267689317,-26.705212063259548,-89.09935845269096,-36.367085774739586,-3.373836101871906,-2.557584554842203,-2.1289613931485922,4.727393256293403,0.06785074869791667,-3.2569376627604165,-2.812,-0.5716,-1.827,-0.0422,0.01121,0.06442,0.0008361015352420509,0.0009996180888265371,0.0009686237317509949,0.0004270822391845286,0.0004998252261430025,0.00041305404738523066,0.011588635854423046,0.010569712147116661,0.011607937514781952,passive,0
0.5411,rehab,medium,72.94274546613799,-666.6257043467872,269.4933794212558,-177.6507177103808,0.29119950683616225,-149.84706413205626,-39.1455,0.0448,36.0498,-129.5914,-0.8089,109.3663,83.79073265755531,29.560272670028233,85.27721820491375,-26.58819410536024,-89.09724765353732,-36.44864400227865,-3.7003394400719367,-2.503169597965656,-2.2349903371074413,5.073649088541667,0.13570149739583334,-3.392647637261285,-2.881,-0.6285,-0.9571,-0.06705,0.00661,0.05619,0.0008361015352420509,0.0009996180888265371,0.0009686237317509949,0.0004270822391845286,0.0004998252261430025,0.00041305404738523066,0.011588635854423046,0.010569712147116661,0.011607937514781952,passive,0
0.5608,rehab,medium,72.27227933914867,-666.627359628492,270.095496493623,-177.65136244166024,0.29162017242523625,-149.84789159232088,-42.6764,0.0156,39.0848,-133.8943,-0.8873,117.3198,83.7320346643429,29.517897804184717,85.23998978114363,-26.506195068359375,-89.09585740831163,-36.50559319390191,-3.918006066048499,-2.6664212670656715,-2.2649240021658414,5.095469156901042,0.06785074869791667,-3.596208360460069,-2.873,-0.3946,-1.5524,-0.04705,0.01586,0.06453,0.0008361015352420509,0.0009996180888265371,0.0009686237317509949,0.0004270822391845286,0.0004998252261430025,0.00041305404738523066,0.011588635854423046,0.010569712147116661,0.011607937514781952,passive,0
0.5807,rehab,medium,71.22256989129615,-666.6263360094129,271.03295143441653,-177.65264395350167,0.2925340856919506,-149.84884114253865,-45.4134,-0.0207,41.5502,-122.1967,-0.7292,112.1378,83.64009215099976,29.45178947826423,85.18212799978728,-26.378089057074654,-89.0936279296875,-36.595145331488716,-4.026835979801594,-2.992917806795328,-2.384026404654626,5.522681342230903,0.13570149739583334,-3.664059109157986,-2.9211,-0.6448,-2.1739,-0.04395,0.00854,0.0679,0.0008361015352420509,0.0009996180888265371,0.0009686237317509949,0.0004270822391845286,0.0004998252261430025,0.00041305404738523066,0.011588635854423046,0.010569712147116661,0.011607937514781952,passive,0
0.6007,rehab,medium,70.50139063960039,-666.6272149381952,271.69364029128303,-177.6523820429325,0.2923226227795128,-149.849600878408,-47.205,-0.0411,43.3202,-92.766,-0.5095,90.4648,83.57694115969214,29.405757035359297,85.14099725402228,-26.289503309461804,-89.09210205078125,-36.65653652615017,-4.190087648901609,-3.047339562142249,-2.6568694161896658,5.615692138671875,0.13570149739583334,-3.596208360460069,-2.8536,-0.555,-0.9303,-0.05106,0.01082,0.05777,0.0008361015352420509,0.0009996180888265371,0.0009686237317509949,0.0004270822391845286,0.0004998252261430025,0.00041305404738523066,0.011588635854423046,0.010569712147116661,0.011607937514781952,passive,0
0.6213,rehab,medium,69.39348014663385,-666.6262828454107,272.73497024883955,-177.65066990777368,0.2910771878281383,-149.85017983994013,-48.7999,-0.0287,45.0342,-51.1802,-0.3249,57.3381,83.47989299509784,29.333550481512994,85.07623502523592,-26.151928371853298,-89.08970303005643,-36.75144619411892,-4.026835979801594,-2.938502849918781,-2.8148998600421566,5.844896104600695,0.06785074869791667,-4.071180555555555,-2.8521,-0.61,-2.0921,-0.04284,0.00933,0.06602,0.0008361015352420509,0.0009996180888265371,0.0009686237317509949,0.0004270822391845286,0.0004998252261430025,0.00041305404738523066,0.011588635854423046,0.010569712147116661,0.011607937514781952,passive,0
0.6413,rehab,medium,68.44496599229934,-666.6276093160171,273.6213183593247,-177.65008656003764,0.29066531300266135,-149.85113704784848,-49.9238,-0.0083,46.2625,-13.3173,-0.0602,26.9409,83.39682928406366,29.272799350247524,85.0195833716062,-26.032918294270832,-89.08766852484808,-36.83220757378472,-4.244502605778156,-2.938502849918781,-2.9424867535581685,6.179716322157118,0.13570149739583334,-4.139031304253472,-2.7631,-0.7043,-2.0661,-0.0378,-0.00351,0.06204,0.0008361015352420509,0.0009996180888265371,0.0009686237317509949,0.0004270822391845286,0.0004998252261430025,0.00041305404738523066,0.011588635854423046,0.010569712147116661,0.011607937514781952,passive,0
0.6609,rehab,medium,67.28975676199164,-666.6296409430545,274.6920042503015,-177.65123156949417,0.29148625753878926,-149.85088306622492,-50.0599,-0.0159,46.6593,11.6245,0.1212,5.8969,83.29566804489286,29.200089709593517,84.94923280017211,-25.885577731662327,-89.08521016438802,-36.931966145833336,-4.244502605778156,-3.1017545190187965,-3.0631256103515625,6.203333536783854,0.06785074869791667,-4.206882052951388,-2.8725,-0.6122,-2.0398,-0.03102,0.00938,0.0673,0.0008361015352420509,0.0009996180888265371,0.0009686237317509949,0.0004270822391845286,0.0004998252261430025,0.00041305404738523066,0.011588635854423046,0.010569712147116661,0.011607937514781952,passive,0
0.6806,rehab,medium,66.51397574589967,-666.6295688790153,275.4139940464529,-177.65233427582973,0.29230482719089285,-149.8508422870001,-48.7958,-0.0262,45.8565,17.2269,-0.0241,0.5677,83.22771733350093,29.151276692305462,84.90131718097346,-25.785547892252602,-89.08355712890625,-36.99883355034722,-4.353339318001624,-2.884087893042234,-3.134033656356358,6.422610812717013,0.06785074869791667,-4.206882052951388,-2.7979,-0.5416,-1.2275,-0.0341,0.02157,0.06548,0.0008361015352420509,0.0009996180888265371,0.0009686237317509949,0.0004270822391845286,0.0004998252261430025,0.00041305404738523066,0.011588635854423046,0.010569712147116661,0.011607937514781952,passive,0
0.701,rehab,medium,65.33266306349644,-666.6284542734043,276.5129705416145,-177.65461509288386,0.2940646756625875,-149.85110724987595,-47.5128,-0.035,45.0371,15.238,-0.3439,2.9168,83.1242310174621,29.077411311687808,84.82743140494469,-25.63198513454861,-89.08101399739583,-37.10032992892795,-4.244502605778156,-3.1017545190187965,-3.14280368313931,6.445498996310763,0.06785074869791667,-4.274732801649305,-3.0095,-0.696,-1.3116,-0.05828,0.01278,0.05908,0.0008361015352420509,0.0009996180888265371,0.0009686237317509949,0.0004270822391845286,0.0004998252261430025,0.00041305404738523066,0.011588635854423046,0.010569712147116661,0.011607937514781952,passive,0
0.7213,rehab,medium,64.526128342492,-666.6284401676609,277.2758302575036,-177.65477657446021,0.2941979507713279,-149.8520466876099,-47.6503,-0.0345,45.5598,9.6274,-0.452,10.0086,83.05359491027228,29.026551954817062,84.77617093832185,-25.527674357096352,-89.07931857638889,-37.16885036892361,-4.516590987101639,-3.1561694758953434,-3.2595606133489325,6.52115715874566,0.06785074869791667,-4.342592027452257,-2.8255,-0.7306,-1.5855,-0.03677,0.00216,0.06651,0.0008361015352420509,0.0009996180888265371,0.0009686237317509949,0.0004270822391845286,0.0004998252261430025,0.00041305404738523066,0.011588635854423046,0.010569712147116661,0.011607937514781952,passive,0
0.7407,rehab,medium,63.70987562361921,-666.6299543622973,278.05526132427906,-177.6537433523752,0.29338753898394265,-149.85347069602503,-47.969,-0.0305,46.0983,-20.041,-0.1356,35.6464,82.98213618816716,28.97499915396813,84.72372073938351,-25.422990587022568,-89.07764858669705,-37.237701416015625,-4.516590987101639,-3.2105844327718907,-3.417903786838645,6.568595038519965,0.06785074869791667,-4.47829352484809,-2.8185,-0.8102,-2.1248,-0.02922,0.00266,0.06768,0.0008361015352420509,0.0009996180888265371,0.0009686237317509949,0.0004270822391845286,0.0004998252261430025,0.00041305404738523066,0.011588635854423046,0.010569712147116661,0.011607937514781952,passive,0
0.761,rehab,medium,62.50308564001508,-666.6320215866347,279.2499270254309,-177.65093401948852,0.29122998471588835,-149.85361510597485,-48.9288,-0.0482,47.151,-59.4295,0.3512,64.2283,82.87647436160853,28.896864333955367,84.6425198092319,-25.264188978407116,-89.0751224093967,-37.34141879611545,-4.353339318001624,-3.319421144995359,-3.396067099996132,6.7272186279296875,0.06785074869791667,-4.342592027452257,-2.9234,-0.515,-0.8583,-0.03284,0.0251,0.06991,0.0008361015352420509,0.0009996180888265371,0.0009686237317509949,0.0004270822391845286,0.0004998252261430025,0.00041305404738523066,0.011588635854423046,0.010569712147116661,0.011607937514781952,passive,0
0.7811,rehab,medium,61.70600804996111,-666.6329616355024,280.03254037677857,-177.65030552463344,0.2907758246900092,-149.8535141281394,-50.5371,-0.0555,48.9402,-76.4121,0.6419,68.9364,82.80667446627476,28.846072961788366,84.58815244164798,-25.15780978732639,-89.07341851128471,-37.41011725531684,-4.4077542748781715,-3.2105844327718907,-3.4007920369063274,6.669582790798611,0.13570149739583334,-4.206882052951388,-2.9454,-0.5822,-1.4772,-0.03908,0.01188,0.07277,0.0008361015352420509,0.0009996180888265371,0.0009686237317509949,0.0004270822391845286,0.0004998252261430025,0.00041305404738523066,0.011588635854423046,0.010569712147116661,0.011607937514781952,passive,0
0.8007,rehab,medium,60.50318158193607,-666.6335643449889,281.1789718489117,-177.65117179823815,0.2914909680535065,-149.85349124244152,-50.6462,-0.0372,49.2262,-60.8426,0.6144,43.9948,82.70133896629409,28.77193564235574,84.50728463654471,-24.998669094509548,-89.07083299424913,-37.51368204752604,-4.353339318001624,-3.1561694758953434,-3.352325741607364,6.617219712999132,0.13570149739583334,-4.274732801649305,-2.9264,-0.6837,-1.4389,-0.02965,0.00577,0.06571,0.0008361015352420509,0.0009996180888265371,0.0009686237317509949,0.0004270822391845286,0.0004998252261430025,0.00041305404738523066,0.011588635854423046,0.010569712147116661,0.011607937514781952,passive,0
0.8216,rehab,medium,59.69896134137327,-666.6328852171474,281.930319411865,-177.65266139324928,0.29258627761021205,-149.8535373381204,-52.9045,-0.0,50.9848,-21.1399,0.3674,-3.286,82.63091361168587,28.723503339408648,84.45365150376122,-24.89273918999566,-89.06917148166232,-37.58287217881944,-4.353339318001624,-2.992917806795328,-3.3353771549640316,6.591398451063368,0.13570149739583334,-4.410442776150173,-2.9858,-0.7132,-1.5885,-0.0391,0.0059,0.06711,0.0008361015352420509,0.0009996180888265371,0.0009686237317509949,0.0004270822391845286,0.0004998252261430025,0.00041305404738523066,0.011588635854423046,0.010569712147116661,0.011607937514781952,passive,0
0.8411,rehab,medium,58.30272327065795,-666.6347048256596,283.26167096878896,-177.65280032964773,0.2926254488236913,-149.85253880437705,-55.7245,0.0289,52.6381,12.5076,0.1834,-44.2601,82.50868391282488,28.63871961536974,84.35816018888266,-24.70879448784722,-89.06625535753038,-37.70402696397569,-4.244502605778156,-3.1561694758953434,-3.4474839314375774,6.605343288845486,0.13570149739583334,-4.139031304253472,-2.9979,-0.6595,-1.1348,-0.04205,0.00052,0.06691,0.0008361015352420509,0.0009996180888265371,0.0009686237317509949,0.0004270822391845286,0.0004998252261430025,0.00041305404738523066,0.011588635854423046,0.010569712147116661,0.011607937514781952,passive,0
0.8606,rehab,medium,57.51346663597916,-666.6344160053026,284.03381085393187,-177.65114726383553,0.29140537851618653,-149.85202047393526,-53.7305,0.0255,49.8005,40.2223,-0.0172,-77.9951,82.43957066299892,28.58975023326307,84.30328293602065,-24.605000813802082,-89.06453450520833,-37.77247958713107,-4.462176030225093,-3.047339562142249,-3.477227239325495,6.566509670681423,0.06785074869791667,-4.274732801649305,-2.8799,-0.6333,-1.6961,-0.02112,0.01002,0.07066,0.0008361015352420509,0.0009996180888265371,0.0009686237317509949,0.0004270822391845286,0.0004998252261430025,0.00041305404738523066,0.011588635854423046,0.010569712147116661,0.011607937514781952,passive,0
0.881,rehab,medium,56.33274500088667,-666.6318422399365,285.1644554051184,-177.6493543809767,0.29004624293296516,-149.85065759948503,-51.4396,-0.0023,46.8041,62.9642,-0.2364,-106.9434,82.33616592860457,28.51810115398747,84.22258509267675,-24.45188734266493,-89.06197441948784,-37.87551032172309,-4.353339318001624,-2.938502849918781,-3.309787712474861,6.211734347873263,0.13570149739583334,-4.206882052951388,-3.1736,-0.7509,-1.8309,-0.0628,0.01392,0.06897,0.0008361015352420509,0.0009996180888265371,0.0009686237317509949,0.0004270822391845286,0.0004998252261430025,0.00041305404738523066,0.011588635854423046,0.010569712147116661,0.011607937514781952,passive,0
0.9007,rehab,medium,55.32844510204848,-666.6316851790916,286.0537207198804,-177.65046866193663,0.2908312780213303,-149.85101213086824,-48.3099,-0.0327,43.1993,76.2691,-0.2393,-121.7371,82.26597852045947,28.47302729540532,84.17023007232363,-24.351806640625,-89.06032138400607,-37.944395277235245,-4.462176030225093,-2.6664212670656715,-3.213908884784963,6.0845184326171875,0.13570149739583334,-4.274732801649305,-2.921,-0.59,-1.5578,-0.04393,0.00754,0.0682,0.0008361015352420509,0.0009996180888265371,0.0009686237317509949,0.0004270822391845286,0.0004998252261430025,0.00041305404738523066,0.011588635854423046,0.010569712147116661,0.011607937514781952,passive,0
0.9223,rehab,medium,54.11944536638076,-666.6307614807963,287.0667722791248,-177.65350039809314,0.29317848016666403,-149.85106902579807,-47.0893,-0.0374,41.0025,68.948,-0.024,-122.6323,82.1601127397896,28.40850301308207,84.09513416856822,-24.205220540364582,-89.05777825249565,-38.04863823784722,-4.516590987101639,-2.61199951171875,-3.1039300295385983,6.071073744032118,0.13570149739583334,-4.274732801649305,-2.8714,-0.7687,-1.5805,-0.02898,-0.00776,0.06669,0.0008361015352420509,0.0009996180888265371,0.0009686237317509949,0.0004270822391845286,0.0004998252261430025,0.00041305404738523066,0.011588635854423046,0.010569712147116661,0.011607937514781952,passive,0
0.941,rehab,medium,53.31688252563715,-666.6340631904343,287.7268940198368,-177.65478053905787,0.29422140158185406,-149.8521926781024,-47.8379,-0.0185,40.5062,19.2116,0.2195,-89.9098,82.0897077805925,28.36713432085396,84.04545094707224,-24.11034478081597,-89.05604044596355,-38.116845024956596,-4.462176030225093,-2.557584554842203,-3.005998063795637,5.727962917751736,0.13570149739583334,-4.410442776150173,-3.0995,-0.8681,-1.1274,-0.05209,0.01167,0.06398,0.0008361015352420509,0.0009996180888265371,0.0009686237317509949,0.0004270822391845286,0.0004998252261430025,0.00041305404738523066,0.011588635854423046,0.010569712147116661,0.011607937514781952,passive,0
0.9611,rehab,medium,52.71829141261073,-666.6369074359786,288.2331592107035,-177.65374147786127,0.29350064382253127,-149.85227610501045,-46.9713,-0.0019,38.1509,-38.3561,0.3392,-49.4936,82.01991468372911,28.32553448063312,83.99629800626548,-24.018351236979164,-89.05425177680121,-38.18525526258681,-4.353339318001624,-2.61199951171875,-3.0647096539487935,5.823559231228298,0.06785074869791667,-4.071180555555555,-3.0026,-0.7669,-1.2623,-0.03642,-0.0009,0.06443,0.0008361015352420509,0.0009996180888265371,0.0009686237317509949,0.0004270822391845286,0.0004998252261430025,0.00041305404738523066,0.011588635854423046,0.010569712147116661,0.011607937514781952,passive,0
0.9811,rehab,medium,51.53255431680927,-666.6379326830432,289.22197980022577,-177.65072283222702,0.2911686460242995,-149.85116412817962,-47.4871,0.0205,36.9448,-61.4271,0.1091,-40.9012,81.91619042122718,28.26364800481513,83.92520640156057,-23.88614230685764,-89.05162387424045,-38.288582695855034,-4.298924361125077,-2.557584554842203,-2.9588302763381806,5.317086113823785,0.06785074869791667,-4.139031304253472,-2.9379,-0.8745,-1.5392,-0.03188,-0.00289,0.0668,0.0008361015352420509,0.0009996180888265371,0.0009686237317509949,0.0004270822391845286,0.0004998252261430025,0.00041305404738523066,0.011588635854423046,0.010569712147116661,0.011607937514781952,passive,0
1.001,rehab,medium,50.743640490397496,-666.6359174438047,289.85815221229655,-177.64847909165798,0.2892949609549183,-149.85013249584748,-48.8947,0.0243,36.3844,-54.778,-0.4385,-49.5365,81.84717234998647,28.22347584337291,83.88020732615253,-23.801854451497395,-89.04995388454861,-38.35767110188802,-4.244502605778156,-2.3943328857421875,-2.7143572816754333,5.100758870442708,0.06785074869791667,-4.206882052951388,-3.0365,-0.8055,-1.718,-0.05603,0.00935,0.0652,0.0008361015352420509,0.0009996180888265371,0.0009686237317509949,0.0004270822391845286,0.0004998252261430025,0.00041305404738523066,0.011588635854423046,0.010569712147116661,0.011607937514781952,passive,0
1.021,rehab,medium,49.55073569915549,-666.63071729105,290.73326275284626,-177.64833816169923,0.2891367177019315,-149.84929636044242,-52.2769,0.0002,36.8925,-26.3197,-0.7886,-67.0998,81.74278863585822,28.167714789362236,83.81768179411935,-23.68070814344618,-89.04733445909288,-38.46151563856337,-4.353339318001624,-2.176666259765625,-2.4167134502146506,4.907057020399305,0.13570149739583334,-4.274732801649305,-3.1483,-0.7085,-1.592,-0.04182,0.01799,0.06584,0.0008361015352420509,0.0009996180888265371,0.0009686237317509949,0.0004270822391845286,0.0004998252261430025,0.00041305404738523066,0.011588635854423046,0.010569712147116661,0.011607937514781952,passive,0
1.0408,rehab,medium,48.54476280879284,-666.6298879793112,291.403551229572,-177.649712749542,0.2903145660408893,-149.85014050748455,-53.6096,-0.027,36.0972,-9.3172,-0.4667,-69.2149,81.65481642921372,28.125115573996364,83.76886197836092,-23.58493381076389,-89.04505411783855,-38.547558254665795,-4.353339318001624,-2.0134145906656093,-2.4275230181099166,4.5966847737630205,0.20355224609375,-4.206882052951388,-3.1662,-0.8447,-1.6701,-0.05038,0.01334,0.06956,0.0008361015352420509,0.0009996180888265371,0.0009686237317509949,0.0004270822391845286,0.0004998252261430025,0.00041305404738523066,0.011588635854423046,0.010569712147116661,0.011607937514781952,passive,0
1.0607,rehab,medium,47.33468947438242,-666.6323906088087,292.16554762979723,-177.6518787868213,0.2920952569310281,-149.85080770050692,-51.4658,-0.0529,32.777,12.5024,0.2543,-69.3611,81.54906622254022,28.077016396097616,83.7125298528388,-23.474621242947048,-89.04233296712239,-38.65139431423611,-4.353339318001624,-1.9589996337890625,-2.3379395739866955,4.563649495442708,0.06785074869791667,-4.342592027452257,-3.1838,-0.9485,-1.4428,-0.05454,0.00676,0.06265,0.0008361015352420509,0.0009996180888265371,0.0009686237317509949,0.0004270822391845286,0.0004998252261430025,0.00041305404738523066,0.011588635854423046,0.010569712147116661,0.011607937514781952,passive,0
1.081,rehab,medium,46.52463203970688,-666.6352185420295,292.65798237299094,-177.65301580187867,0.2929689282609419,-149.85173805625521,-50.1122,-0.0627,30.6367,43.2781,1.0716,-76.7972,81.47831454135404,28.046035766601562,83.67609005163212,-23.40371873643663,-89.0405782063802,-38.72041490342882,-4.516590987101639,-1.9589996337890625,-2.303111010258741,4.338031344943576,0.13570149739583334,-4.274732801649305,-2.9695,-0.768,-1.3477,-0.03219,0.0131,0.0662,0.0008361015352420509,0.0009996180888265371,0.0009686237317509949,0.0004270822391845286,0.0004998252261430025,0.00041305404738523066,0.011588635854423046,0.010569712147116661,0.011607937514781952,passive,0
1.1009,rehab,medium,45.30313076092131,-666.6408106389396,293.3929172222229,-177.65313189206725,0.2930568509663492,-149.85313794560295,-48.0895,-0.0344,28.8759,53.7578,1.6014,-71.7969,81.37166013812075,27.999989726755878,83.62212379380028,-23.300467597113716,-89.0378909640842,-38.824496799045136,-4.353339318001624,-1.9589996337890625,-2.218062145875232,4.313752916124132,0.13570149739583334,-4.139031304253472,-3.0892,-0.9143,-1.7931,-0.03797,0.00975,0.06485,0.0008361015352420509,0.0009996180888265371,0.0009686237317509949,0.0004270822391845286,0.0004998252261430025,0.00041305404738523066,0.011588635854423046,0.010569712147116661,0.011607937514781952,passive,0
1.122,rehab,medium,44.49150149738032,-666.6409400688531,293.8846868993914,-177.6518818013809,0.29212341331523217,-149.85444838904968,-48.1727,0.0537,28.5719,31.801,1.5484,-49.3065,81.30075209211594,27.968805143148593,83.58722724536858,-23.233896891276043,-89.03605143229167,-38.893330891927086,-4.462176030225093,-1.8501697200359684,-2.1240936883605355,4.190775553385417,0.13570149739583334,-4.206882052951388,-3.0678,-0.7491,-1.2932,-0.0503,0.02274,0.06439,0.0008361015352420509,0.0009996180888265371,0.0009686237317509949,0.0004270822391845286,0.0004998252261430025,0.00041305404738523066,0.011588635854423046,0.010569712147116661,0.011607937514781952,passive,0
1.1408,rehab,medium,43.688106501038476,-666.6370385479919,294.35896193348043,-177.65143376647978,0.2917313643473595,-149.8545719126133,-48.8628,0.1174,28.72,-16.1946,0.8601,-14.5975,81.23052389314859,27.93834119740099,83.55384675583036,-23.168580796983505,-89.03427124023438,-38.96269056532118,-4.462176030225093,-1.9045846769125154,-2.0858794863861387,4.014316134982638,0.06785074869791667,-4.342592027452257,-3.1828,-1.0049,-1.9007,-0.06401,0.01725,0.06395,0.0008361015352420509,0.0009996180888265371,0.0009686237317509949,0.0004270822391845286,0.0004998252261430025,0.00041305404738523066,0.011588635854423046,0.010569712147116661,0.011607937514781952,passive,0
1.1607,rehab,medium,42.48943948699782,-666.6326033530819,295.06816364075183,-177.64998446885332,0.2904930477133537,-149.85484341876673,-47.5199,0.1225,27.38,-53.8339,-0.3437,11.4703,81.1257798600905,27.893212951055848,83.50363325364519,-23.07206047905816,-89.03163486056857,-39.066060384114586,-4.190087648901609,-1.8501697200359684,-2.0500651444538986,3.9749993218315973,0.13570149739583334,-4.071180555555555,-3.1102,-0.8877,-1.8015,-0.03774,0.0223,0.06547,0.0008361015352420509,0.0009996180888265371,0.0009686237317509949,0.0004270822391845286,0.0004998252261430025,0.00041305404738523066,0.011588635854423046,0.010569712147116661,0.011607937514781952,passive,0
1.1809,rehab,medium,41.707639029675114,-666.6280922772405,295.5301369664881,-177.64947246642961,0.29011527358368155,-149.85295339044856,-49.4076,0.0933,27.857,-64.8008,-1.5146,17.7792,81.05742803894647,27.863897946801515,83.4705654937442,-23.008236355251736,-89.02979532877605,-39.13557264539931,-4.353339318001624,-1.9045846769125154,-2.007092013217435,3.9922926161024304,0.13570149739583334,-4.206882052951388,-3.185,-0.9603,-2.116,-0.05742,0.01345,0.06333,0.0008361015352420509,0.0009996180888265371,0.0009686237317509949,0.0004270822391845286,0.0004998252261430025,0.00041305404738523066,0.011588635854423046,0.010569712147116661,0.011607937514781952,passive,0
1.2006,rehab,medium,40.522577583897274,-666.6245316187282,296.1906275562336,-177.6503481567632,0.2908988346980416,-149.85199935083264,-51.4164,0.0207,28.4944,-59.1411,-2.0807,17.5785,80.95388733514464,27.822400083636293,83.42185445351176,-22.913759019639755,-89.0270487467448,-39.238993326822914,-4.4077542748781715,-1.686918050935953,-2.105119157545637,3.8790130615234375,0.06785074869791667,-4.139031304253472,-3.2323,-0.9792,-1.9588,-0.06227,0.0232,0.06906,0.0008361015352420509,0.0009996180888265371,0.0009686237317509949,0.0004270822391845286,0.0004998252261430025,0.00041305404738523066,0.011588635854423046,0.010569712147116661,0.011607937514781952,passive,0
1.2211,rehab,medium,39.711665977621294,-666.6261479586223,296.6274449708945,-177.65098390008555,0.2914708003000582,-149.85338421470905,-53.8733,-0.056,29.5961,-38.1289,-1.5871,12.9745,80.88311525854733,27.795484939424117,83.38877309667002,-22.850850423177082,-89.02522616916232,-39.3076663547092,-4.571005943978187,-1.5780813387124846,-2.076171270691522,3.9246453179253473,0.06785074869791667,-4.342592027452257,-3.3218,-0.9581,-2.0728,-0.06219,0.0156,0.07141,0.0008361015352420509,0.0009996180888265371,0.0009686237317509949,0.0004270822391845286,0.0004998252261430025,0.00041305404738523066,0.011588635854423046,0.010569712147116661,0.011607937514781952,passive,0
1.241,rehab,medium,38.48855409576992,-666.6332242077896,297.27416597591576,-177.6522054346768,0.29237686300176036,-149.85529733105372,-54.7713,-0.095,30.0105,-13.1856,-0.2776,7.794,80.77647445225479,27.756448122534422,83.33840322966623,-22.75681389702691,-89.02261522081163,-39.41133287217882,-4.571005943978187,-1.6325030940594059,-2.143455731986773,3.925187852647569,0.13570149739583334,-4.274732801649305,-3.2953,-1.0263,-2.1422,-0.05258,0.01398,0.07213,0.0008361015352420509,0.0009996180888265371,0.0009686237317509949,0.0004270822391845286,0.0004998252261430025,0.00041305404738523066,0.011588635854423046,0.010569712147116661,0.011607937514781952,passive,0
1.2609,rehab,medium,37.486032710009006,-666.6355424504465,297.8185123252823,-177.65299552436483,0.2929881995455454,-149.85506526845268,-52.9449,-0.0868,29.1069,27.1892,1.0173,-8.505,80.68901892935875,27.72359791368541,83.29611674393757,-22.678070068359375,-89.02040269639757,-39.49812995062934,-4.244502605778156,-1.5236663818359375,-2.1440200050278464,3.9710574679904513,0.06785074869791667,-4.410442776150173,-3.2637,-0.985,-1.8353,-0.04223,0.01843,0.07375,0.0008361015352420509,0.0009996180888265371,0.0009686237317509949,0.0004270822391845286,0.0004998252261430025,0.00041305404738523066,0.011588635854423046,0.010569712147116661,0.011607937514781952,passive,0
1.2809,rehab,medium,36.10315673509531,-666.6370898407929,298.5968485027828,-177.65257327645597,0.29274533133000236,-149.85381670584852,-52.1035,-0.0247,28.913,66.8972,1.7483,-30.1151,80.5854102408532,27.683826861995282,83.2444415706219,-22.583804660373264,-89.01766459147136,-39.601660834418404,-4.244502605778156,-1.7413330078125,-2.197476377581606,3.919728597005208,0.13570149739583334,-4.410442776150173,-3.4305,-0.9103,-2.2285,-0.05132,0.01492,0.075,0.0008361015352420509,0.0009996180888265371,0.0009686237317509949,0.0004270822391845286,0.0004998252261430025,0.00041305404738523066,0.011588635854423046,0.010569712147116661,0.011607937514781952,passive,0
1.3007,rehab,medium,35.31198748506255,-666.6363205551157,299.041693612924,-177.65208919673339,0.2923208284064532,-149.85293172734026,-50.7164,0.0567,28.4226,83.9175,1.6593,-43.4079,80.51656213137183,27.657000097897974,83.21010249676091,-22.521158854166668,-89.01588439941406,-39.670706854926216,-4.244502605778156,-1.5780813387124846,-2.113392895991259,3.8906097412109375,0.20355224609375,-4.410442776150173,-3.4574,-0.919,-2.1915,-0.05588,0.01207,0.06918,0.0008361015352420509,0.0009996180888265371,0.0009686237317509949,0.0004270822391845286,0.0004998252261430025,0.00041305404738523066,0.011588635854423046,0.010569712147116661,0.011607937514781952,passive,0
1.3211,rehab,medium,34.12928514257247,-666.6315792778436,299.7198916193049,-177.65083972506804,0.2911695386582989,-149.85143360354667,-48.6962,0.1185,27.4408,68.6075,0.7058,-41.4315,80.41317779238861,27.616148089418317,83.15808739992652,-22.427173190646702,-89.01334126790364,-39.77433098687066,-4.298924361125077,-1.6325030940594059,-2.1048404202602877,3.8982476128472223,0.06785074869791667,-4.47829352484809,-3.3842,-0.9525,-1.8195,-0.06118,0.0194,0.06797,0.0008361015352420509,0.0009996180888265371,0.0009686237317509949,0.0004270822391845286,0.0004998252261430025,0.00041305404738523066,0.011588635854423046,0.010569712147116661,0.011607937514781952,passive,0
1.3409,rehab,medium,33.53872266038923,-666.6308162497509,300.0519210213841,-177.65042321519786,0.29081767752892373,-149.85020261121676,-47.2578,0.109,26.4421,20.4157,-0.6679,-21.3492,80.34458802478149,27.59002156776957,83.12361915512841,-22.36493428548177,-89.01153564453125,-39.84386020236545,-4.190087648901609,-1.686918050935953,-2.1898620907622988,4.028922186957465,0.13570149739583334,-4.274732801649305,-3.3617,-0.9044,-1.1665,-0.04911,0.01071,0.06926,0.0008361015352420509,0.0009996180888265371,0.0009686237317509949,0.0004270822391845286,0.0004998252261430025,0.00041305404738523066,0.011588635854423046,0.010569712147116661,0.011607937514781952,passive,0
1.3607,rehab,medium,32.546798010460144,-666.6249193607355,300.59948361428195,-177.65066671245043,0.2910689708599621,-149.8492587953545,-46.5607,0.0459,25.5767,-19.1675,-1.8804,-3.9868,80.2752164330813,27.563799867535582,83.08944324455639,-22.302254570855034,-89.00974697536893,-39.913338555230034,-4.353339318001624,-1.6325030940594059,-2.112366326964728,3.90824211968316,0.13570149739583334,-4.342592027452257,-3.4341,-0.9639,-1.8036,-0.0435,0.00992,0.06945,0.0008361015352420509,0.0009996180888265371,0.0009686237317509949,0.0004270822391845286,0.0004998252261430025,0.00041305404738523066,0.011588635854423046,0.010569712147116661,0.011607937514781952,passive,0
1.381,rehab,medium,31.35282595512673,-666.6251353528797,301.2504077506356,-177.65112831614343,0.29147877946247736,-149.84897212484069,-47.3129,-0.0244,25.5305,-44.501,-2.3243,8.5004,80.17129501493851,27.525979976842898,83.0368162853883,-22.20776875813802,-89.00705973307292,-40.016682942708336,-4.4077542748781715,-1.5780813387124846,-2.2601106851407797,3.981814914279514,0.13570149739583334,-4.342592027452257,-3.5812,-1.0779,-1.5994,-0.05373,0.00918,0.07031,0.0008361015352420509,0.0009996180888265371,0.0009686237317509949,0.0004270822391845286,0.0004998252261430025,0.00041305404738523066,0.011588635854423046,0.010569712147116661,0.011607937514781952,passive,0
1.401,rehab,medium,30.550500551279512,-666.6272071918158,301.68702471734576,-177.65103775438968,0.2913153799717075,-149.84914894508293,-48.8572,-0.087,26.0659,-61.1599,-1.7485,19.8676,80.10137954560837,27.50089362116143,83.00098834651531,-22.145216200086804,-89.00531344943576,-40.085813734266495,-4.4077542748781715,-1.5780813387124846,-2.2957074760210396,3.976898193359375,0.06785074869791667,-4.47829352484809,-3.4678,-0.9864,-1.3758,-0.04507,0.00805,0.07153,0.0008361015352420509,0.0009996180888265371,0.0009686237317509949,0.0004270822391845286,0.0004998252261430025,0.00041305404738523066,0.011588635854423046,0.010569712147116661,0.011607937514781952,passive,0
1.4214,rehab,medium,29.53431277153636,-666.6321704902518,302.21587103486974,-177.651830489795,0.2920095047249025,-149.8504809691764,-52.5507,-0.1218,27.914,-52.2011,-0.4013,20.8302,79.99554095882,27.465249240988552,82.94740960149481,-22.051637437608505,-89.00269402398003,-40.18908182779948,-4.353339318001624,-1.4692514249593904,-2.339890734984143,3.8758680555555554,0.06785074869791667,-4.410442776150173,-3.4335,-0.9811,-1.9555,-0.0326,0.00764,0.07374,0.0008361015352420509,0.0009996180888265371,0.0009686237317509949,0.0004270822391845286,0.0004998252261430025,0.00041305404738523066,0.011588635854423046,0.010569712147116661,0.011607937514781952,passive,0
1.4407,rehab,medium,28.520419896406704,-666.635267992272,302.7474959120922,-177.65245060572914,0.29252209223466424,-149.850714682821,-53.6158,-0.1135,28.4884,-26.9302,0.9515,13.6992,79.92486406080793,27.44130502832998,82.91140490239209,-21.989178127712673,-89.00094774034288,-40.258848402235245,-4.462176030225093,-1.4148296696124691,-2.180235456712175,3.968819512261285,0.06785074869791667,-4.410442776150173,-3.5963,-1.0965,-1.7413,-0.04554,0.02909,0.0773,0.0008361015352420509,0.0009996180888265371,0.0009686237317509949,0.0004270822391845286,0.0004998252261430025,0.00041305404738523066,0.011588635854423046,0.010569712147116661,0.011607937514781952,passive,0
1.461,rehab,medium,27.317424889192065,-666.6380247062272,303.3827526546813,-177.65314828541133,0.2931605471406898,-149.85192420193525,-51.964,-0.0573,27.6452,8.3641,1.8534,-0.1814,79.81992287210899,27.406306502842668,82.85741145067875,-21.895709567599827,-88.99831983778212,-40.36181131998698,-4.353339318001624,-1.4692514249593904,-2.223174595596767,3.893907335069444,0.13570149739583334,-4.342592027452257,-3.4705,-1.1066,-2.2561,-0.03507,0.01165,0.07561,0.0008361015352420509,0.0009996180888265371,0.0009686237317509949,0.0004270822391845286,0.0004998252261430025,0.00041305404738523066,0.011588635854423046,0.010569712147116661,0.011607937514781952,passive,0
1.4809,rehab,medium,26.52308202755988,-666.6363376217687,303.8131079595299,-177.65337250321912,0.2933289629488606,-149.85181315093166,-51.871,0.0194,27.6743,45.0151,2.059,-17.6481,79.75037452017907,27.382069955958,82.8213659607538,-21.833267211914062,-88.99654812282986,-40.43028089735243,-4.244502605778156,-1.5236663818359375,-2.2076944785543007,3.914761013454861,0.13570149739583334,-4.410442776150173,-3.4771,-1.0944,-1.4943,-0.04416,0.00246,0.07024,0.0008361015352420509,0.0009996180888265371,0.0009686237317509949,0.0004270822391845286,0.0004998252261430025,0.00041305404738523066,0.011588635854423046,0.010569712147116661,0.011607937514781952,passive,0
1.5006,rehab,medium,25.133940101862486,-666.6365816202141,304.56552402189186,-177.65332986203444,0.2932895487171509,-149.85136889979444,-49.7499,0.0703,26.6988,69.7006,1.6853,-31.0647,79.62939573986695,27.341115970422727,82.75723598971226,-21.72406514485677,-88.9935302734375,-40.550240410698784,-4.298924361125077,-1.4148296696124691,-2.333255427898747,3.9869011773003473,0.06785074869791667,-4.274732801649305,-3.6166,-1.3408,-2.3567,-0.06704,0.00044,0.07566,0.0008361015352420509,0.0009996180888265371,0.0009686237317509949,0.0004270822391845286,0.0004998252261430025,0.00041305404738523066,0.011588635854423046,0.010569712147116661,0.011607937514781952,passive,0
1.5214,rehab,medium,24.33077853988452,-666.6329591718161,304.9972753960185,-177.65319986602486,0.29320228777862506,-149.85158655888745,-48.0462,0.0865,25.9688,66.7217,0.8913,-31.1775,79.56003094663714,27.317049385297416,82.72091176250193,-21.66180928548177,-88.99174160427518,-40.61938815646701,-4.462176030225093,-1.5236663818359375,-2.3110992129486387,3.8609737820095487,0.06785074869791667,-4.274732801649305,-3.7328,-1.3291,-2.2617,-0.06574,0.01539,0.08028,0.0008361015352420509,0.0009996180888265371,0.0009686237317509949,0.0004270822391845286,0.0004998252261430025,0.00041305404738523066,0.011588635854423046,0.010569712147116661,0.011607937514781952,passive,0
1.5409,rehab,medium,23.317757022750545,-666.629768478064,305.5415863692605,-177.65262288645462,0.2926986254104855,-149.85262649555247,-47.7778,0.0773,25.9005,35.438,-0.0491,-16.935,79.45419235984878,27.28118065560218,82.66551782589147,-21.568323771158855,-88.98915608723958,-40.72281731499566,-4.571005943978187,-1.4148296696124691,-2.3035189184812035,3.942591349283854,0.13570149739583334,-4.342592027452257,-3.5822,-1.1511,-1.6751,-0.0443,-0.0044,0.06926,0.0008361015352420509,0.0009996180888265371,0.0009686237317509949,0.0004270822391845286,0.0004998252261430025,0.00041305404738523066,0.011588635854423046,0.010569712147116661,0.011607937514781952,passive,0
1.5609,rehab,medium,22.5019699754152,-666.6283572565623,305.98107102795495,-177.6518538336101,0.2920004788758143,-149.85413302993894,-46.8669,0.049,25.4157,-3.0708,-0.9094,0.2561,79.38320273219949,27.257392807762223,82.62790188931002,-21.505847507052952,-88.98745218912761,-40.79159206814236,-4.462176030225093,-1.4692514249593904,-2.329087965559251,3.7811703152126737,0.06785074869791667,-4.274732801649305,-3.6395,-1.1568,-1.5514,-0.04248,0.00799,0.07891,0.0008361015352420509,0.0009996180888265371,0.0009686237317509949,0.0004270822391845286,0.0004998252261430025,0.00041305404738523066,0.011588635854423046,0.010569712147116661,0.011607937514781952,passive,0
1.5808,rehab,medium,21.697660389721868,-666.6291742971715,306.4113455552128,-177.65152975674175,0.2918069582481013,-149.85452866144158,-46.7556,0.0269,25.2639,-40.9505,-1.3259,16.7248,79.31323967357673,27.234631528948793,82.59000721544322,-21.44344753689236,-88.98565504286024,-40.86045159233941,-4.4077542748781715,-1.4692514249593904,-2.4846845570177134,3.863855997721354,0.13570149739583334,-4.071180555555555,-3.685,-1.1269,-1.7668,-0.05109,0.0051,0.07463,0.0008361015352420509,0.0009996180888265371,0.0009686237317509949,0.0004270822391845286,0.0004998252261430025,0.00041305404738523066,0.011588635854423046,0.010569712147116661,0.011607937514781952,passive,0
1.6007,rehab,medium,20.49780248584619,-666.630095222461,307.07155074329427,-177.6499024514702,0.2903888692601919,-149.8542458710098,-47.785,0.0138,25.6701,-63.4122,-1.3494,25.7509,79.2089035487411,27.1999457330987,82.53209104632387,-21.349817911783855,-88.98306104871962,-40.96400790744357,-4.353339318001624,-1.4148296696124691,-2.4464499596321936,3.88901604546441,0.13570149739583334,-4.206882052951388,-3.7091,-1.0928,-2.4332,-0.04709,0.01447,0.07752,0.0008361015352420509,0.0009996180888265371,0.0009686237317509949,0.0004270822391845286,0.0004998252261430025,0.00041305404738523066,0.011588635854423046,0.010569712147116661,0.011607937514781952,passive,0
1.6211,rehab,medium,19.6945210529212,-666.6310749470097,307.50250181424985,-177.64947134039357,0.2899945804284781,-149.8539307403783,-49.983,-0.0161,26.6529,-59.4724,-1.2749,22.5022,79.13907645952584,27.177612757918858,82.49350292847888,-21.287341647677952,-88.98133171929253,-41.03344387478298,-4.571005943978187,-1.360414712735922,-2.345812202680229,3.879581027560764,0.13570149739583334,-4.274732801649305,-3.8019,-1.3112,-2.5864,-0.0551,0.02265,0.08313,0.0008361015352420509,0.0009996180888265371,0.0009686237317509949,0.0004270822391845286,0.0004998252261430025,0.00041305404738523066,0.011588635854423046,0.010569712147116661,0.011607937514781952,passive,0
1.6408,rehab,medium,18.48768550120658,-666.6296959355184,308.1495149388922,-177.6488373541866,0.2893967153595656,-149.8546681045131,-52.2904,-0.0425,27.6824,-48.7634,-1.138,17.5437,79.03415566623801,27.14404870968054,82.43565474406327,-21.193618774414062,-88.97878011067708,-41.13656785753038,-4.298924361125077,-1.360414712735922,-2.351142203453744,3.8570573594835067,0.06785074869791667,-4.206882052951388,-3.6149,-1.1618,-2.2543,-0.04303,0.01642,0.08193,0.0008361015352420509,0.0009996180888265371,0.0009686237317509949,0.0004270822391845286,0.0004998252261430025,0.00041305404738523066,0.011588635854423046,0.010569712147116661,0.011607937514781952,passive,0
1.6607,rehab,medium,17.694217345239203,-666.6304577324277,308.5604604650231,-177.6499866372766,0.2903484559085314,-149.8539723349064,-53.4513,-0.0616,28.1193,-26.1239,-0.8497,7.8531,78.96521237817142,27.123347367390547,82.3971957971554,-21.13083733452691,-88.97709316677518,-41.205503675672745,-4.135672692025062,-1.251584798982828,-2.3778737889658106,3.8654836018880205,0.06785074869791667,-4.071180555555555,-3.8549,-1.0607,-2.2392,-0.06698,0.02104,0.0798,0.0008361015352420509,0.0009996180888265371,0.0009686237317509949,0.0004270822391845286,0.0004998252261430025,0.00041305404738523066,0.011588635854423046,0.010569712147116661,0.011607937514781952,passive,0
1.6808,rehab,medium,16.318678927114508,-666.6292570634893,309.2761211727951,-177.65194953584373,0.29203972075638884,-149.85222214850805,-53.03,-0.0732,27.7583,9.4329,-0.4009,-7.8083,78.84567487357866,27.087403854521195,82.3300812976195,-21.021474202473957,-88.97411770290799,-41.32556491427951,-4.298924361125077,-1.251584798982828,-2.3807563404045484,3.8859049479166665,0.13570149739583334,-4.342592027452257,-3.7936,-1.047,-2.4675,-0.05386,0.0024,0.08841,0.0008361015352420509,0.0009996180888265371,0.0009686237317509949,0.0004270822391845286,0.0004998252261430025,0.00041305404738523066,0.011588635854423046,0.010569712147116661,0.011607937514781952,passive,0
1.7009,rehab,medium,15.531261829638526,-666.6323696946181,309.682251828899,-177.65316444267188,0.29313967196172996,-149.8506128510468,-51.0911,-0.0831,26.7239,45.8818,0.2792,-23.8555,78.77732305243464,27.067742678198485,82.29077934038521,-20.958726671006943,-88.97237141927083,-41.39482286241319,-4.135672692025062,-1.251584798982828,-2.5024489601059714,4.039416842990451,0.13570149739583334,-4.206882052951388,-3.9405,-1.0051,-2.1865,-0.05038,0.02161,0.08908,0.0008361015352420509,0.0009996180888265371,0.0009686237317509949,0.0004270822391845286,0.0004998252261430025,0.00041305404738523066,0.011588635854423046,0.010569712147116661,0.011607937514781952,passive,0
1.7214,rehab,medium,14.32858837755768,-666.6372334416361,310.31656762659844,-177.65307384624705,0.293135549098833,-149.8517085807574,-50.0868,-0.0836,26.2822,74.1571,1.0333,-35.7473,78.67297333065827,27.037088375280398,82.2303273418162,-20.864520602756077,-88.96978590223524,-41.49701436360677,-4.353339318001624,-1.360414712735922,-2.5257745119604733,3.7439982096354165,0.13570149739583334,-4.139031304253472,-3.993,-1.0316,-2.7535,-0.06626,0.02114,0.08355,0.0008361015352420509,0.0009996180888265371,0.0009686237317509949,0.0004270822391845286,0.0004998252261430025,0.00041305404738523066,0.011588635854423046,0.010569712147116661,0.011607937514781952,passive,0
1.7411,rehab,medium,13.319795516638525,-666.6386934009809,310.8503503517935,-177.6526864271219,0.29278333469723716,-149.85238487066295,-49.3305,-0.0525,26.0004,72.2708,1.522,-32.4738,78.60298307815401,27.01628505593479,82.18992403238127,-20.801747639973957,-88.9680904812283,-41.56573825412326,-4.353339318001624,-1.251584798982828,-2.495038627397896,3.9507463243272567,0.06785074869791667,-4.410442776150173,-3.8176,-0.9301,-2.2649,-0.05554,0.01793,0.08211,0.0008361015352420509,0.0009996180888265371,0.0009686237317509949,0.0004270822391845286,0.0004998252261430025,0.00041305404738523066,0.011588635854423046,0.010569712147116661,0.011607937514781952,passive,0
1.761,rehab,medium,12.316095446479203,-666.6388820886681,311.3826270373903,-177.65228562765256,0.29243781024336396,-149.8530871279761,-47.5855,-0.0095,25.2186,40.1164,1.5975,-14.6813,78.49834102215154,26.985535574431466,82.12917969958617,-20.70754157172309,-88.96554734971788,-41.668497721354164,-4.353339318001624,-1.360414712735922,-2.5221441287805537,3.9235941569010415,0.13570149739583334,-4.274732801649305,-3.7348,-1.0141,-2.1608,-0.06668,0.01376,0.08067,0.0008361015352420509,0.0009996180888265371,0.0009686237317509949,0.0004270822391845286,0.0004998252261430025,0.00041305404738523066,0.011588635854423046,0.010569712147116661,0.011607937514781952,passive,0
1.7809,rehab,medium,11.52081361615664,-666.6372253216525,311.8087665176405,-177.65210734886088,0.2922282681555587,-149.85222981791588,-46.7872,0.0366,24.9219,-7.1896,1.348,9.5313,78.42931615244044,26.964990596960085,82.08861322686224,-20.644548204210068,-88.96387736002605,-41.7376708984375,-4.081257735148514,-1.305999755859375,-2.4684634067044398,3.919999864366319,0.06785074869791667,-4.410442776150173,-3.8774,-0.9226,-2.1372,-0.06383,0.00559,0.08503,0.0008361015352420509,0.0009996180888265371,0.0009686237317509949,0.0004270822391845286,0.0004998252261430025,0.00041305404738523066,0.011588635854423046,0.010569712147116661,0.011607937514781952,passive,0
1.8007,rehab,medium,10.732819280805742,-666.6369505055117,312.2237974672424,-177.6525383900311,0.2927032099864679,-149.85109369060882,-46.1029,0.0734,24.6488,-40.0351,0.8745,24.8486,78.36094393588529,26.945424599222616,82.04808754496055,-20.581673516167534,-88.96211412217882,-41.80647108289931,-4.244502605778156,-1.1971630436359066,-2.5645937777981898,4.029939439561632,0.13570149739583334,-4.274732801649305,-3.8439,-1.0523,-2.5566,-0.05121,0.01555,0.08637,0.0008361015352420509,0.0009996180888265371,0.0009686237317509949,0.0004270822391845286,0.0004998252261430025,0.00041305404738523066,0.011588635854423046,0.010569712147116661,0.011607937514781952,passive,0
1.8215,rehab,medium,9.547508749132822,-666.6331584616543,312.8560916816226,-177.65290895205305,0.29304995299401776,-149.84988067707954,-47.5505,0.0794,25.5001,-52.6586,0.0862,28.8283,78.2580830791209,26.915477337223468,81.98677214065401,-20.48668755425347,-88.9595709906684,-41.909476386176216,-4.298924361125077,-1.251584798982828,-2.6320006115601795,4.000642564561632,0.13570149739583334,-4.342592027452257,-3.8793,-0.8824,-2.0063,-0.05479,0.01596,0.07811,0.0008361015352420509,0.0009996180888265371,0.0009686237317509949,0.0004270822391845286,0.0004998252261430025,0.00041305404738523066,0.011588635854423046,0.010569712147116661,0.011607937514781952,passive,0
1.8407,rehab,medium,8.7526580049609,-666.6320317531987,313.2800007457529,-177.6528580155658,0.29302208219415793,-149.84948378972737,-50.6339,0.0583,27.1433,-65.9121,-0.614,34.0003,78.18915338799505,26.895754974667387,81.94526747901841,-20.42337205674913,-88.95787556966145,-41.978090074327255,-4.353339318001624,-1.1971630436359066,-2.669670935904626,3.891779581705729,0.06785074869791667,-4.274732801649305,-3.9648,-1.0093,-2.3369,-0.07111,0.01691,0.08515,0.0008361015352420509,0.0009996180888265371,0.0009686237317509949,0.0004270822391845286,0.0004998252261430025,0.00041305404738523066,0.011588635854423046,0.010569712147116661,0.011607937514781952,passive,0
1.8611,rehab,medium,7.547401919268837,-666.6321569457708,313.93134405721236,-177.65175178863888,0.29205231077432103,-149.84935148978843,-52.7893,0.0222,28.214,-68.7035,-1.0957,34.8004,78.08470168916305,26.865875697371983,81.88136185749923,-20.32781812879774,-88.955323961046,-42.081595526801216,-4.462176030225093,-1.305999755859375,-2.7033165657874383,4.0094248453776045,0.13570149739583334,-4.139031304253472,-3.9045,-0.8507,-1.6584,-0.05788,0.015,0.08681,0.0008361015352420509,0.0009996180888265371,0.0009686237317509949,0.0004270822391845286,0.0004998252261430025,0.00041305404738523066,0.011588635854423046,0.010569712147116661,0.011607937514781952,passive,0
1.881,rehab,medium,6.738938280749184,-666.6319822387453,314.370317314247,-177.6507103494606,0.29112456768324413,-149.84967056867922,-54.0862,0.0081,28.849,-48.3982,-1.3352,24.8081,78.01465704889581,26.845888194471303,81.83822556297378,-20.263926188151043,-88.95362854003906,-42.15059916178385,-4.4077542748781715,-1.251584798982828,-2.709543964650371,4.008263481987847,0.13570149739583334,-4.342592027452257,-3.8711,-1.0281,-2.3001,-0.05653,0.00764,0.08878,0.0008361015352420509,0.0009996180888265371,0.0009686237317509949,0.0004270822391845286,0.0004998252261430025,0.00041305404738523066,0.011588635854423046,0.010569712147116661,0.011607937514781952,passive,0
1.9011,rehab,medium,5.327863358169717,-666.6320279261516,315.1211267671141,-177.65034947718624,0.2907904503898383,-149.8507947399481,-52.2614,-0.0161,27.7886,-7.5042,-1.2251,4.8998,77.8924545439163,26.8124261232886,81.76266056476253,-20.151629977756077,-88.95071241590712,-42.27041456434462,-4.353339318001624,-1.1971630436359066,-2.763041128026377,4.0298716227213545,0.06785074869791667,-4.410442776150173,-3.853,-1.0145,-2.5684,-0.04689,0.00709,0.09233,0.0008361015352420509,0.0009996180888265371,0.0009686237317509949,0.0004270822391845286,0.0004998252261430025,0.00041305404738523066,0.011588635854423046,0.010569712147116661,0.011607937514781952,passive,0
1.9214,rehab,medium,4.515539126182327,-666.6324837707433,315.55122307854396,-177.6504399998539,0.29082703228572393,-149.85200769815566,-52.2599,-0.0445,27.8051,38.0427,-0.7388,-17.2136,77.82214476330445,26.79362155423306,81.71869485685141,-20.086619059244793,-88.94908481174045,-42.338782416449654,-4.353339318001624,-1.1427480867593596,-2.757411994556389,3.979644775390625,0.06785074869791667,-4.274732801649305,-3.9046,-1.0475,-2.75,-0.04612,0.00631,0.08946,0.0008361015352420509,0.0009996180888265371,0.0009686237317509949,0.0004270822391845286,0.0004998252261430025,0.00041305404738523066,0.011588635854423046,0.010569712147116661,0.011607937514781952,passive,0
1.9411,rehab,medium,3.0962160852408185,-666.6344848678992,316.29418113433326,-177.65162557953263,0.2919080324339006,-149.8538206939547,-53.284,-0.0457,28.4979,57.5898,-0.1347,-26.0086,77.71663250309406,26.76650925438003,81.65223301047146,-19.98819139268663,-88.94657558865018,-42.44121975368923,-4.244502605778156,-1.1427480867593596,-2.80640177207418,4.138497246636285,0.13570149739583334,-4.410442776150173,-3.968,-1.2606,-2.5437,-0.08269,0.01139,0.07835,0.0008361015352420509,0.0009996180888265371,0.0009686237317509949,0.0004270822391845286,0.0004998252261430025,0.00041305404738523066,0.011588635854423046,0.010569712147116661,0.011607937514781952,passive,0
1.961,rehab,medium,2.4953249238377304,-666.6342164814979,316.61862894303823,-177.6517285407964,0.2920018459118493,-149.85369617771525,-51.0331,-0.0543,27.459,57.2739,0.2385,-25.788,77.64735608997911,26.748065004254332,81.60735630753017,-19.922587076822918,-88.94493950737846,-42.51004536946615,-4.4077542748781715,-1.1427480867593596,-2.767752467995823,4.170828925238715,0.06785074869791667,-4.47829352484809,-3.9592,-1.1456,-2.3046,-0.06772,0.01967,0.08293,0.0008361015352420509,0.0009996180888265371,0.0009686237317509949,0.0004270822391845286,0.0004998252261430025,0.00041305404738523066,0.011588635854423046,0.010569712147116661,0.011607937514781952,passive,0
1.9811,rehab,medium,1.3143405545181643,-666.6335839434963,317.2511454983698,-177.65298884006867,0.293160656066457,-149.8544396364499,-48.9846,-0.0533,26.5111,53.9462,0.526,-25.7208,77.54519547566329,26.721503380501623,81.54052054527962,-19.82431199815538,-88.94252353244357,-42.610363430447045,-4.135672692025062,-1.0883331298828125,-2.7683507333887687,4.226752387152778,0.13570149739583334,-4.139031304253472,-4.0975,-1.1862,-2.0962,-0.07612,0.00385,0.08627,0.0008361015352420509,0.0009996180888265371,0.0009686237317509949,0.0004270822391845286,0.0004998252261430025,0.00041305404738523066,0.011588635854423046,0.010569712147116661,0.011607937514781952,passive,0
2.001,rehab,medium,0.5486474769756553,-666.6384225649755,317.67206989460317,-177.65314889748936,0.2933791093075887,-149.85343363705027,-47.1617,-0.0234,25.5651,61.0015,0.8412,-32.6965,77.47906675433168,26.704622778562037,81.49512715858988,-19.759674072265625,-88.94087897406683,-42.67677307128906,-4.026835979801594,-1.1427480867593596,-2.8284152191464265,4.11405775282118,0.13570149739583334,-4.206882052951388,-3.9255,-1.2283,-2.7054,-0.04482,0.01162,0.08761,0.0008361015352420509,0.0009996180888265371,0.0009686237317509949,0.0004270822391845286,0.0004998252261430025,0.00041305404738523066,0.011588635854423046,0.010569712147116661,0.011607937514781952,passive,0
2.0216,rehab,medium,-0.7811771502064346,-666.6371718414224,318.41095677248387,-177.65241244566283,0.29274107266335103,-149.8528070197538,-46.95,0.0139,25.3611,72.9403,0.9122,-44.3721,77.36409102336015,26.673914087880956,81.41769258102568,-19.64888678656684,-88.93810696072049,-42.791129218207466,-4.026835979801594,-1.0883331298828125,-2.726873265634669,3.815519544813368,0.06785074869791667,-4.274732801649305,-4.0458,-1.2345,-2.7964,-0.06427,0.01591,0.0874,0.0008361015352420509,0.0009996180888265371,0.0009686237317509949,0.0004270822391845286,0.0004998252261430025,0.00041305404738523066,0.011588635854423046,0.010569712147116661,0.011607937514781952,passive,0
2.0408,rehab,medium,-1.5445685965473954,-666.6371768667307,318.81949506012046,-177.65206634283098,0.29235910725720127,-149.85391652988994,-46.9307,0.0205,25.1924,58.6958,0.8241,-41.5828,77.29814586072865,26.65727143240447,81.374352332389,-19.58738538953993,-88.93661499023438,-42.85527547200521,-4.026835979801594,-0.979496417659344,-2.6209327017906867,3.782967461480035,0.06785074869791667,-3.799769083658854,-4.1236,-1.1578,-2.0903,-0.07085,0.02259,0.08593,0.0008361015352420509,0.0009996180888265371,0.0009686237317509949,0.0004270822391845286,0.0004998252261430025,0.00041305404738523066,0.011588635854423046,0.010569712147116661,0.011607937514781952,passive,0
2.0607,rehab,medium,-2.2944204027080755,-666.6374426060032,319.21267208535085,-177.65194390594405,0.2921628184069886,-149.85530895646662,-44.9649,0.0143,23.8601,46.3077,0.537,-38.3248,77.23339722888305,26.641498981135907,81.33216782371596,-19.527664184570312,-88.93517388237846,-42.91796366373698,-3.918006066048499,-0.9250814607827971,-2.633904183265006,3.676469590928819,0.13570149739583334,-3.9354705810546875,-3.9002,-1.2375,-2.8362,-0.05711,0.01669,0.0852,0.0008361015352420509,0.0009996180888265371,0.0009686237317509949,0.0004270822391845286,0.0004998252261430025,0.00041305404738523066,0.011588635854423046,0.010569712147116661,0.011607937514781952,passive,0
2.0808,rehab,medium,-3.3744585800353524,-666.6336270205918,319.7722169239336,-177.65230742282756,0.29242722254685843,-149.8563035168491,-43.167,0.0391,22.5829,58.0676,-0.0628,-48.4866,77.1550992455813,26.622531248791383,81.28207669399752,-19.45565965440538,-88.93341912163628,-42.994071112738716,-3.754754396948484,-0.9250814607827971,-2.4616649363300587,3.537750244140625,0.06785074869791667,-3.9354705810546875,-3.9481,-1.1312,-2.1547,-0.05453,0.01827,0.08325,0.0008361015352420509,0.0009996180888265371,0.0009686237317509949,0.0004270822391845286,0.0004998252261430025,0.00041305404738523066,0.011588635854423046,0.010569712147116661,0.011607937514781952,passive,0
2.101,rehab,medium,-4.055517716536896,-666.6322747730452,320.11942470577424,-177.6529096873769,0.29305609652286657,-149.8560459939238,-41.5,0.0397,21.286,74.5002,-0.5663,-63.1484,77.0812474619044,26.605276730981203,81.2339979115099,-19.387198554144966,-88.93158806694878,-43.06780497233073,-3.5915027278484684,-0.8162515470297029,-2.341603949518487,3.26796637641059,0.06785074869791667,-3.799769083658854,-4.0541,-1.2788,-2.2166,-0.06279,0.02018,0.08398,0.0008361015352420509,0.0009996180888265371,0.0009686237317509949,0.0004270822391845286,0.0004998252261430025,0.00041305404738523066,0.011588635854423046,0.010569712147116661,0.011607937514781952,passive,0
2.1211,rehab,medium,-5.031503325782931,-666.633867868665,320.6240636388274,-177.65255967347193,0.29274999951779473,-149.8546697631671,-41.236,0.0206,20.6314,91.1199,-0.5275,-79.1717,77.01085609964805,26.589055580667928,81.18753036650101,-19.322535196940105,-88.92986721462674,-43.138724433051216,-3.2105844327718907,-0.7618297916827815,-2.2500761428681932,3.088387383355035,0.06785074869791667,-3.596208360460069,-3.9789,-1.2149,-2.8264,-0.0529,0.03126,0.08974,0.0008361015352420509,0.0009996180888265371,0.0009686237317509949,0.0004270822391845286,0.0004998252261430025,0.00041305404738523066,0.011588635854423046,0.010569712147116661,0.011607937514781952,passive,0
2.1409,rehab,medium,-5.663020848447154,-666.6361399003653,320.94488726465954,-177.65140732110424,0.2916402283495712,-149.85430465319408,-40.1367,0.0113,19.5935,104.369,-0.2915,-91.4878,76.95594485443418,26.576777543171797,81.15196076950224,-19.274342854817707,-88.92856174045139,-43.19342719184028,-3.2650061881188117,-0.8162515470297029,-2.143829647857364,2.958221435546875,0.06785074869791667,-3.392647637261285,-3.9298,-1.2257,-2.7884,-0.05225,0.02626,0.08386,0.0008361015352420509,0.0009996180888265371,0.0009686237317509949,0.0004270822391845286,0.0004998252261430025,0.00041305404738523066,0.011588635854423046,0.010569712147116661,0.011607937514781952,passive,0
2.1608,rehab,medium,-6.694863709447387,-666.6341651445878,321.44401018151535,-177.65020520613592,0.29048820792103575,-149.85352617386934,-36.2576,-0.0222,16.8092,120.0259,-0.3531,-101.8237,76.86585152503288,26.55707557602684,81.09630849101755,-19.19823540581597,-88.92641703287761,-43.28364054361979,-3.1561694758953434,-0.6529998779296875,-1.8544051670792079,2.473415798611111,0.06785074869791667,-3.121236165364583,-4.0276,-1.2983,-2.2368,-0.05948,0.01919,0.08199,0.0008361015352420509,0.0009996180888265371,0.0009686237317509949,0.0004270822391845286,0.0004998252261430025,0.00041305404738523066,0.011588635854423046,0.010569712147116661,0.011607937514781952,passive,0
2.1811,rehab,medium,-7.234287456474753,-666.6320015737095,321.68716630542167,-177.65001931704563,0.29030618438935124,-149.85224481120972,-34.0004,-0.0367,14.5491,138.057,-0.285,-112.7978,76.81847298499382,26.54739455421372,81.06890385693843,-19.159800211588543,-88.92527262369792,-43.331612481011284,-2.7752511808187657,-0.5985781225827661,-1.6587451897045173,2.335696750217014,0.13570149739583334,-3.0533854166666665,-4.1326,-1.2712,-2.6015,-0.07627,0.01746,0.08216,0.0008361015352420509,0.0009996180888265371,0.0009686237317509949,0.0004270822391845286,0.0004998252261430025,0.00041305404738523066,0.011588635854423046,0.010569712147116661,0.011607937514781952,passive,0
2.2008,rehab,medium,-7.998371459484147,-666.6349180996629,321.99753032466634,-177.64983165503224,0.2901042264983212,-149.85091342670984,-31.3514,-0.0067,12.2008,150.9025,0.0914,-118.0944,76.75205872790649,26.535959527044014,81.03200855821666,-19.109683566623264,-88.92366197374132,-43.399149576822914,-2.7752511808187657,-0.3809114966062036,-1.4012463258044554,1.92047119140625,-0.0,-2.714114718967014,-4.021,-1.1722,-2.7914,-0.05517,0.02322,0.08896,0.0008361015352420509,0.0009996180888265371,0.0009686237317509949,0.0004270822391845286,0.0004998252261430025,0.00041305404738523066,0.011588635854423046,0.010569712147116661,0.011607937514781952,passive,0
2.221,rehab,medium,-8.477253790338537,-666.6340086528609,322.16059754091066,-177.65055383922302,0.29075242986273925,-149.85140117624866,-27.7854,0.0252,9.6533,153.2125,0.3136,-113.227,76.71003738252243,26.53010604405167,81.01174231803063,-19.08138699001736,-88.92263624403212,-43.44026353624132,-2.557584554842203,-0.3809114966062036,-1.1271048064279083,1.6517130533854165,0.13570149739583334,-2.4427032470703125,-3.992,-1.2643,-2.3443,-0.06895,0.0177,0.08698,0.0008361015352420509,0.0009996180888265371,0.0009686237317509949,0.0004270822391845286,0.0004998252261430025,0.00041305404738523066,0.011588635854423046,0.010569712147116661,0.011607937514781952,passive,0
2.2409,rehab,medium,-8.932065593739798,-666.6360807967359,322.3038575656118,-177.65076444504098,0.29104034205991136,-149.85280996477647,-24.3135,0.0021,7.4836,145.0963,0.3566,-98.6862,76.67027312930267,26.525224742322866,80.9937875577719,-19.056905110677082,-88.92166985405815,-43.47852918836806,-2.3943328857421875,-0.2720815828531095,-1.0592288782100867,1.4278327094184027,0.06785074869791667,-2.374852498372396,-3.9786,-1.1344,-2.0685,-0.07787,0.02043,0.08844,0.0008361015352420509,0.0009996180888265371,0.0009686237317509949,0.0004270822391845286,0.0004998252261430025,0.00041305404738523066,0.011588635854423046,0.010569712147116661,0.011607937514781952,passive,0
2.2611,rehab,medium,-9.546559341038558,-666.6365773753461,322.4727744730205,-177.65139111427754,0.29166633335957787,-149.85481043831385,-21.7179,-0.0138,5.7442,149.4723,0.2625,-85.3612,76.61618449900409,26.519765570612236,80.97160414894029,-19.026769002278645,-88.92036437988281,-43.53034125434028,-2.176666259765625,-0.2176666259765625,-0.7698587851949258,1.0954708523220487,0.06785074869791667,-1.9677310519748263,-4.0007,-1.1849,-2.0229,-0.04143,0.01945,0.08996,0.0008361015352420509,0.0009996180888265371,0.0009686237317509949,0.0004270822391845286,0.0004998252261430025,0.00041305404738523066,0.011588635854423046,0.010569712147116661,0.011607937514781952,passive,0
2.2808,rehab,medium,-9.89621555389101,-666.6333337887345,322.56306898529704,-177.65150287591015,0.2917996889084267,-149.85527620707109,-19.5648,0.0205,4.3841,160.48,0.0651,-75.4959,76.58511548939317,26.51643432012879,80.96057023152267,-19.011128743489582,-88.91960144042969,-43.5608164469401,-1.795747964689047,-0.16324487062964108,-0.6455555528697401,0.8710649278428819,-0.0,-1.832029554578993,-4.1672,-1.3344,-2.9105,-0.07913,0.01978,0.08718,0.0008361015352420509,0.0009996180888265371,0.0009686237317509949,0.0004270822391845286,0.0004998252261430025,0.00041305404738523066,0.011588635854423046,0.010569712147116661,0.011607937514781952,passive,0
2.3008,rehab,medium,-10.268258312611463,-666.6310792916868,322.65308660019457,-177.6511604438291,0.2914610052152324,-149.85525672166676,-16.1436,0.0226,2.9474,158.8919,0.0359,-62.5631,76.54574554745514,26.51251160272277,80.9477687118077,-18.993606567382812,-88.91862657335069,-43.599700927734375,-1.360414712735922,-0.16324487062964108,-0.4633837407178218,0.5898454454210069,-0.0,-1.4927588568793402,-4.1007,-1.3168,-2.2364,-0.07437,0.01171,0.08501,0.0008361015352420509,0.0009996180888265371,0.0009686237317509949,0.0004270822391845286,0.0004998252261430025,0.00041305404738523066,0.011588635854423046,0.010569712147116661,0.011607937514781952,passive,0
2.3219,rehab,medium,-10.508761813011295,-666.6331811936959,322.69842358685423,-177.65109665087758,0.29141840893898086,-149.8547333280434,-13.0582,0.0083,1.8821,169.6556,0.3414,-56.1897,76.52509179445777,26.511525824518486,80.94148692518178,-18.98573981391059,-88.91808403862846,-43.62079196506076,-1.1971630436359066,-0.0,-0.3236887714650371,0.4112667507595486,-0.06785074869791667,-1.153496636284722,-4.0783,-1.2891,-2.6092,-0.07586,0.01236,0.08995,0.0008361015352420509,0.0009996180888265371,0.0009686237317509949,0.0004270822391845286,0.0004998252261430025,0.00041305404738523066,0.011588635854423046,0.010569712147116661,0.011607937514781952,passive,0
2.3408,rehab,medium,-10.796616288533095,-666.6371825640284,322.7233768662001,-177.65167957874135,0.2920043496244709,-149.8554721942662,-8.9927,0.0136,0.6371,181.9934,0.5128,-53.944,76.50041334699876,26.511865748037206,80.93621811064163,-18.97922092013889,-88.9174567328559,-43.64466349283854,-0.8162515470297029,-0.0,-0.05444215075804455,0.17743428548177084,0.06785074869791667,-0.8142344156901041,-4.0661,-1.2834,-3.0605,-0.06015,0.01951,0.09195,0.0008361015352420509,0.0009996180888265371,0.0009686237317509949,0.0004270822391845286,0.0004998252261430025,0.00041305404738523066,0.011588635854423046,0.010569712147116661,0.011607937514781952,passive,0
2.3607,rehab,medium,-10.948121246301026,-666.6308651129052,322.70156256179604,-177.65366879672956,0.29385694283693736,-149.85548412273124,-4.9641,0.0258,-0.3833,181.1414,0.2927,-50.7429,76.48725830682433,26.512674766011756,80.93753021542389,-18.97820366753472,-88.91714307996962,-43.65780300564236,-0.435333251953125,0.05441495687654703,0.03604548992496906,-0.037027994791666664,-0.0,-0.4749637179904514,-4.0178,-1.2241,-2.6804,-0.05303,0.01916,0.09232,0.0008361015352420509,0.0009996180888265371,0.0009686237317509949,0.0004270822391845286,0.0004998252261430025,0.00041305404738523066,0.011588635854423046,0.010569712147116661,0.011607937514781952,passive,0
2.3807,rehab,medium,-11.023474006396496,-666.6323922497351,322.6857663927785,-177.652683259687,0.2930098383535203,-149.85379933281644,-1.6332,0.0411,-1.3614,170.6063,0.2382,-49.5997,76.48003153281637,26.513415799282566,80.9387199477394,-18.980721367730034,-88.9168718126085,-43.66549173990885,0.10882991375309406,-0.0,0.11397635582650062,-0.2099185519748264,0.06785074869791667,-0.13570149739583334,-4.1251,-1.3066,-3.0911,-0.06044,0.01649,0.09306,0.0008361015352420509,0.0009996180888265371,0.0009686237317509949,0.0004270822391845286,0.0004998252261430025,0.00041305404738523066,0.011588635854423046,0.010569712147116661,0.011607937514781952,passive,0
2.4011,rehab,medium,-10.973692183122456,-666.6340897908717,322.66784781365345,-177.6507545525187,0.29169163355172917,-149.84937427937888,1.4645,0.0471,-2.2667,153.632,0.3259,-49.616,76.48412421198175,26.513830505975402,80.94147332824103,-18.986248440212673,-88.91682942708333,-43.666271633572045,0.2176666259765625,-0.0,0.17986033222462872,-0.44031778971354163,-0.06785074869791667,-0.06785074869791667,-4.0903,-1.1934,-2.506,-0.06506,0.02164,0.08788,0.0008361015352420509,0.0009996180888265371,0.0009686237317509949,0.0004270822391845286,0.0004998252261430025,0.00041305404738523066,0.011588635854423046,0.010569712147116661,0.011607937514781952,passive,0
2.4212,rehab,medium,-10.857896038772592,-666.6307184547852,322.6061127957054,-177.64848545145338,0.28909403782039356,-149.84387469628925,4.5831,0.0561,-3.2538,144.6282,0.0495,-52.2307,76.4928398510017,26.514938656646425,80.94995781926825,-18.999430338541668,-88.91683790418837,-43.663431803385414,0.544163165706219,0.05441495687654703,0.4563677192914604,-0.6348080105251735,-0.0,0.339262220594618,-4.0554,-1.1882,-2.8233,-0.05821,0.02134,0.08753,0.0008361015352420509,0.0009996180888265371,0.0009686237317509949,0.0004270822391845286,0.0004998252261430025,0.00041305404738523066,0.011588635854423046,0.010569712147116661,0.011607937514781952,passive,0
2.4407,rehab,medium,-10.752275960956297,-666.6271727542583,322.5378421911676,-177.64782780164606,0.28870923714611574,-149.84488261755848,7.5206,0.0428,-4.3564,141.882,-0.3457,-54.8245,76.50171185484027,26.516577088006652,80.95844231029548,-19.010772705078125,-88.91688876681857,-43.654937744140625,0.544163165706219,0.10882991375309406,0.5898284912109375,-0.7777320014105903,0.06785074869791667,0.7463751898871528,-4.0286,-1.2521,-2.9741,-0.04962,0.00447,0.09028,0.0008361015352420509,0.0009996180888265371,0.0009686237317509949,0.0004270822391845286,0.0004998252261430025,0.00041305404738523066,0.011588635854423046,0.010569712147116661,0.011607937514781952,passive,0
2.4609,rehab,medium,-10.63269298460982,-666.6265287949726,322.4504227599257,-177.6475529422227,0.28871938538707376,-149.84854187638123,10.1445,0.0296,-5.5564,150.9363,-0.5491,-58.0452,76.51142007053488,26.51936446086015,80.96827969692721,-19.024056328667534,-88.91698201497395,-43.64198472764757,0.7074148348062346,0.16324487062964108,0.677032470703125,-0.9127298990885416,-0.0,0.8820851643880208,-4.1513,-1.2437,-2.1562,-0.08185,0.01626,0.08142,0.0008361015352420509,0.0009996180888265371,0.0009686237317509949,0.0004270822391845286,0.0004998252261430025,0.00041305404738523066,0.011588635854423046,0.010569712147116661,0.011607937514781952,passive,0
2.481,rehab,medium,-10.373916831993894,-666.6299281105623,322.2919858318515,-177.6472843297447,0.28895245171307915,-149.8530942301652,12.4845,0.0382,-6.6942,167.8876,-0.5888,-62.0952,76.53208062200262,26.525367510200727,80.98505832181118,-19.04778374565972,-88.91722785101996,-43.61661275227865,1.0883331298828125,0.32649653972965653,0.7802332509862314,-1.118409898546007,0.06785074869791667,1.153496636284722,-4.0506,-1.197,-2.5903,-0.07026,0.01633,0.08173,0.0008361015352420509,0.0009996180888265371,0.0009686237317509949,0.0004270822391845286,0.0004998252261430025,0.00041305404738523066,0.011588635854423046,0.010569712147116661,0.011607937514781952,passive,0
2.5014,rehab,medium,-10.197976613520872,-666.63007083782,322.2000036645312,-177.64745854410353,0.2893851141378222,-149.85434079980809,15.6253,0.0068,-7.8181,172.7351,-0.711,-61.1195,76.5517010075031,26.529806911355198,80.99841051762647,-19.065797593858505,-88.91749911838107,-43.59543694390191,1.305999755859375,0.2720815828531095,0.8719038255143874,-1.129514906141493,-0.0,1.4249081081814237,-4.0032,-1.1224,-2.9903,-0.07146,0.01572,0.07988,0.0008361015352420509,0.0009996180888265371,0.0009686237317509949,0.0004270822391845286,0.0004998252261430025,0.00041305404738523066,0.011588635854423046,0.010569712147116661,0.011607937514781952,passive,0
2.5215,rehab,medium,-9.696253949852634,-666.6258171895337,321.95802497768517,-177.64867082001723,0.29089130218410225,-149.85655177421003,20.1638,-0.0209,-9.2137,169.2821,-0.8396,-55.6154,76.5878144821318,26.53688411901493,81.02189243429959,-19.09576416015625,-88.91816880967882,-43.55743408203125,1.686918050935953,0.2720815828531095,1.0073293553720606,-1.4102596706814237,-0.06785074869791667,1.7641703287760415,-3.9824,-1.2217,-2.7972,-0.07026,0.01707,0.08719,0.0008361015352420509,0.0009996180888265371,0.0009686237317509949,0.0004270822391845286,0.0004998252261430025,0.00041305404738523066,0.011588635854423046,0.010569712147116661,0.011607937514781952,passive,0
2.541,rehab,medium,-9.352647786749943,-666.6278824883346,321.81303887383217,-177.6485567045898,0.2908992262622143,-149.85693655894897,24.1193,-0.0213,-10.3343,164.9467,-0.7659,-49.7791,76.61688474145267,26.54209854579208,81.03810678614248,-19.118050469292534,-88.91878763834636,-43.52848476833767,1.9045846769125154,0.32649653972965653,1.0823232820718596,-1.438200208875868,-0.0,1.832029554578993,-4.0399,-1.2788,-3.0298,-0.06238,0.02058,0.09276,0.0008361015352420509,0.0009996180888265371,0.0009686237317509949,0.0004270822391845286,0.0004998252261430025,0.00041305404738523066,0.011588635854423046,0.010569712147116661,0.011607937514781952,passive,0
2.5611,rehab,medium,-8.770367245125792,-666.6286818841592,321.5716286319122,-177.6490002953629,0.2911014114058715,-149.85694137382924,28.045,-0.0199,-11.4929,151.6719,-0.6211,-41.5606,76.66557538627397,26.550780192460163,81.06468200683594,-19.15464613172743,-88.9200931125217,-43.47970750596788,2.2310880151125465,0.3809114966062036,1.213241426071318,-1.5990108913845487,-0.06785074869791667,2.0355902777777777,-4.0427,-1.223,-2.5978,-0.07033,0.02917,0.08704,0.0008361015352420509,0.0009996180888265371,0.0009686237317509949,0.0004270822391845286,0.0004998252261430025,0.00041305404738523066,0.011588635854423046,0.010569712147116661,0.011607937514781952,passive,0
2.5808,rehab,medium,-8.3343007901117,-666.6278109673973,321.3970515946173,-177.6493989042658,0.29120168555387466,-149.85611649144562,30.2167,-0.0437,-12.1585,127.1682,-0.3978,-30.9966,76.70247068499575,26.556878420385985,81.08464231585512,-19.181187947591145,-88.9211188422309,-43.444129096137154,2.448754641089109,0.3809114966062036,1.2707292915570854,-1.719233194986979,-0.0,2.374852498372396,-3.9284,-1.1543,-2.854,-0.06505,0.01277,0.0871,0.0008361015352420509,0.0009996180888265371,0.0009686237317509949,0.0004270822391845286,0.0004998252261430025,0.00041305404738523066,0.011588635854423046,0.010569712147116661,0.011607937514781952,passive,0
2.6008,rehab,medium,-7.485411775839603,-666.631847369425,321.0711154751389,-177.64954475765074,0.29090010340990186,-149.85414519141722,30.64,-0.0726,-12.0587,92.4062,-0.2035,-18.4292,76.78543921744469,26.57063172595336,81.12612658207959,-19.239188300238716,-88.92345004611545,-43.363842434353295,2.7208362239422184,0.489748208829672,1.3856914255878712,-1.848907470703125,-0.06785074869791667,2.781973944769965,-4.0041,-1.0976,-2.7516,-0.07099,0.03494,0.08754,0.0008361015352420509,0.0009996180888265371,0.0009686237317509949,0.0004270822391845286,0.0004998252261430025,0.00041305404738523066,0.011588635854423046,0.010569712147116661,0.011607937514781952,passive,0
2.6219,rehab,medium,-6.96450057124296,-666.6306104993901,320.8630634543431,-177.65054729761349,0.29170276072298695,-149.8539893133582,33.2412,-0.0622,-12.6835,70.1927,-0.1877,-8.9324,76.83032271885635,26.57823921430229,81.14928217217474,-19.27008734809028,-88.92463684082031,-43.31946478949653,2.884087893042234,0.489748208829672,1.4374889713702816,-2.004301283094618,-0.06785074869791667,2.9176754421657987,-3.9965,-1.249,-2.6414,-0.08825,0.01819,0.08168,0.0008361015352420509,0.0009996180888265371,0.0009686237317509949,0.0004270822391845286,0.0004998252261430025,0.00041305404738523066,0.011588635854423046,0.010569712147116661,0.011607937514781952,passive,0
2.6408,rehab,medium,-6.145455066253799,-666.6340894945334,320.54136945342304,-177.65162312921316,0.2925488945534387,-149.8550030128472,35.5706,-0.0451,-13.1883,70.8339,-0.0687,-7.4628,76.88888474266128,26.58859328468247,81.17811448503248,-19.310226440429688,-88.92620510525174,-43.26051500108507,2.992917806795328,0.544163165706219,1.4855065676245358,-1.9987996419270833,-0.13570149739583334,3.121236165364583,-4.0312,-1.2813,-2.9851,-0.07492,0.02278,0.08792,0.0008361015352420509,0.0009996180888265371,0.0009686237317509949,0.0004270822391845286,0.0004998252261430025,0.00041305404738523066,0.011588635854423046,0.010569712147116661,0.011607937514781952,passive,0
2.6609,rehab,medium,-5.566220597256336,-666.6337239939406,320.32269339034167,-177.65228815452627,0.2930842285532676,-149.85562116594397,35.9837,-0.0498,-12.883,82.8487,0.2436,-12.3187,76.93824163757928,26.596914612420715,81.20242581509127,-19.34324476453993,-88.92743428548177,-43.210906982421875,3.1017545190187965,0.489748208829672,1.5013606005375928,-2.071507771809896,-0.13570149739583334,3.121236165364583,-3.895,-1.1099,-3.122,-0.06047,0.02727,0.09477,0.0008361015352420509,0.0009996180888265371,0.0009686237317509949,0.0004270822391845286,0.0004998252261430025,0.00041305404738523066,0.011588635854423046,0.010569712147116661,0.011607937514781952,passive,0
2.6811,rehab,medium,-4.961352274083869,-666.6362947798428,320.1162003880755,-177.65156795869868,0.2923715821455845,-149.85689863348483,37.6431,-0.052,-13.1436,109.1878,0.502,-25.4635,76.99018195123956,26.60482123346612,81.22605729811262,-19.377059936523438,-88.92879909939236,-43.1585947672526,3.319421144995359,0.489748208829672,1.4504128635519802,-2.1408589680989585,-0.13570149739583334,3.324796888563368,-3.886,-1.3205,-3.4365,-0.06775,0.01842,0.08776,0.0008361015352420509,0.0009996180888265371,0.0009686237317509949,0.0004270822391845286,0.0004998252261430025,0.00041305404738523066,0.011588635854423046,0.010569712147116661,0.011607937514781952,passive,0
2.7009,rehab,medium,-3.9991304458337016,-666.6339298681999,319.79268490713434,-177.65093156939653,0.2916613352310619,-149.8578316580959,38.8757,-0.0468,-13.3492,118.3169,0.5792,-35.3328,77.08616955445544,26.618486158918625,81.26927517428257,-19.438281589084202,-88.93128289116753,-43.06165907118056,3.7003394400719367,0.489748208829672,1.5820244515296256,-2.15437995062934,-0.06785074869791667,3.4604983859592013,-3.8108,-1.2118,-2.6995,-0.06357,0.01228,0.08131,0.0008361015352420509,0.0009996180888265371,0.0009686237317509949,0.0004270822391845286,0.0004998252261430025,0.00041305404738523066,0.011588635854423046,0.010569712147116661,0.011607937514781952,passive,0
2.7214,rehab,medium,-3.3227548138586704,-666.6358757850195,319.5728820685426,-177.65020784548656,0.2908793084541856,-149.85742407554142,42.2248,-0.0311,-14.3929,112.9108,0.7531,-41.6545,77.12965936944036,26.624767945544555,81.28771262593789,-19.46533203125,-88.93241034613715,-43.018688625759545,3.754754396948484,0.544163165706219,1.5532193325533725,-2.2328694661458335,-0.13570149739583334,3.664059109157986,-3.7979,-1.1543,-2.9847,-0.0544,0.02023,0.08524,0.0008361015352420509,0.0009996180888265371,0.0009686237317509949,0.0004270822391845286,0.0004998252261430025,0.00041305404738523066,0.011588635854423046,0.010569712147116661,0.011607937514781952,passive,0
2.7406,rehab,medium,-2.2592759559055544,-666.6363225832654,319.2051322027598,-177.65081549381262,0.29141863036117155,-149.85658101786194,45.5398,-0.0085,-15.6278,111.214,1.004,-48.5999,77.22094243115718,26.63890196545289,81.32737490210202,-19.521374172634548,-88.93466525607639,-42.92889065212673,3.809169353825031,0.5985781225827661,1.6649521931563274,-2.3276774088541665,-0.06785074869791667,3.7319098578559027,-3.9501,-1.2543,-3.4919,-0.07147,0.02435,0.08813,0.0008361015352420509,0.0009996180888265371,0.0009686237317509949,0.0004270822391845286,0.0004998252261430025,0.00041305404738523066,0.011588635854423046,0.010569712147116661,0.011607937514781952,passive,0
2.7609,rehab,medium,-1.5440778744010144,-666.6400255154787,318.9516153579232,-177.6509098931502,0.29151821117219306,-149.85717905967203,47.7855,0.0103,-16.7984,89.5496,0.9893,-46.3294,77.28280171309368,26.649269632773823,81.35397051820661,-19.56008063422309,-88.93619961208768,-42.86731296115451,3.809169353825031,0.6529998779296875,1.665910777479115,-2.507358127170139,-0.06785074869791667,4.0033213297526045,-3.8539,-1.1674,-2.6616,-0.06323,0.02159,0.08161,0.0008361015352420509,0.0009996180888265371,0.0009686237317509949,0.0004270822391845286,0.0004998252261430025,0.00041305404738523066,0.011588635854423046,0.010569712147116661,0.011607937514781952,passive,0
2.7811,rehab,medium,-0.437229566282042,-666.6373249422057,318.5513713837239,-177.65134264157228,0.2918571018430747,-149.85835017260132,50.0146,0.0297,-18.0493,53.5157,0.6925,-35.7262,77.37744321917543,26.66513726262763,81.39726317755067,-19.621497260199654,-88.93864101833768,-42.7720218234592,4.026835979801594,0.6529998779296875,1.8297267196202043,-2.6540544297960067,-0.13570149739583334,4.0033213297526045,-3.7171,-1.1668,-2.407,-0.06263,0.00613,0.07886,0.0008361015352420509,0.0009996180888265371,0.0009686237317509949,0.0004270822391845286,0.0004998252261430025,0.00041305404738523066,0.011588635854423046,0.010569712147116661,0.011607937514781952,passive,0
2.801,rehab,medium,0.32513313501466745,-666.6359922617396,318.2785766821316,-177.65078484172048,0.291279385323931,-149.85797362307008,48.7024,0.051,-17.9485,3.9982,0.2663,-16.8401,77.4431028460512,26.67581086111541,81.42700648543858,-19.66467963324653,-88.94026014539931,-42.707273695203995,4.135672692025062,0.7074148348062346,1.8922998409460086,-2.678129408094618,-0.06785074869791667,4.0033213297526045,-3.8611,-1.1612,-2.5702,-0.06898,0.01291,0.08266,0.0008361015352420509,0.0009996180888265371,0.0009686237317509949,0.0004270822391845286,0.0004998252261430025,0.00041305404738523066,0.011588635854423046,0.010569712147116661,0.011607937514781952,passive,0
2.8216,rehab,medium,1.7084150347377678,-666.6337463484257,317.7776951616407,-177.65030497522994,0.29073117759721784,-149.8547205695404,48.8261,0.0632,-18.3267,-44.3685,-0.1543,4.7213,77.56197410054726,26.695866348719832,81.4807144013962,-19.743228488498264,-88.94322713216145,-42.591959635416664,4.353339318001624,0.8162515470297029,1.9293039151937654,-2.914437188042535,-0.06785074869791667,4.206882052951388,-3.8761,-1.0649,-2.0903,-0.06943,0.02274,0.07639,0.0008361015352420509,0.0009996180888265371,0.0009686237317509949,0.0004270822391845286,0.0004998252261430025,0.00041305404738523066,0.011588635854423046,0.010569712147116661,0.011607937514781952,passive,0
2.8407,rehab,medium,2.5000315676774862,-666.6330189383133,317.47327631243326,-177.6506790999934,0.29099936635224843,-149.85399994835996,48.7126,0.0443,-18.4305,-48.6749,-0.3766,11.7888,77.63046868956916,26.708565891379177,81.51246325804455,-19.78926764594184,-88.94493103027344,-42.52514309353298,4.244502605778156,0.8162515470297029,2.030009656849474,-2.9140641954210067,-0.06785074869791667,4.342592027452257,-3.9636,-1.2537,-2.6519,-0.08596,0.02485,0.07798,0.0008361015352420509,0.0009996180888265371,0.0009686237317509949,0.0004270822391845286,0.0004998252261430025,0.00041305404738523066,0.011588635854423046,0.010569712147116661,0.011607937514781952,passive,0
2.8608,rehab,medium,3.6802786389015396,-666.6320502235552,317.01368806829834,-177.6510725044328,0.2913715833577712,-149.85526105413354,46.7064,0.016,-17.7221,-23.9741,-0.4696,7.7072,77.7324933344775,26.728172679938893,81.56044686194694,-19.859220716688366,-88.94749111599393,-42.422849867078995,4.190087648901609,0.7618297916827815,1.971406842222308,-2.965884738498264,-0.06785074869791667,4.274732801649305,-3.7864,-1.1661,-2.4581,-0.06669,0.00939,0.08037,0.0008361015352420509,0.0009996180888265371,0.0009686237317509949,0.0004270822391845286,0.0004998252261430025,0.00041305404738523066,0.011588635854423046,0.010569712147116661,0.011607937514781952,passive,0
2.881,rehab,medium,4.267636205346645,-666.6317099558754,316.7862307072971,-177.65111857284086,0.29140897678656935,-149.85650219471157,45.8559,0.0034,-17.3678,21.4598,-0.3901,-8.0645,77.80046444128055,26.74126653387995,81.5916926317876,-19.90587870279948,-88.94921196831596,-42.3539310031467,4.244502605778156,0.87066650390625,1.9976013485747988,-2.909605238172743,-0.06785074869791667,4.206882052951388,-3.637,-1.0522,-2.2319,-0.06278,0.00528,0.07757,0.0008361015352420509,0.0009996180888265371,0.0009686237317509949,0.0004270822391845286,0.0004998252261430025,0.00041305404738523066,0.011588635854423046,0.010569712147116661,0.011607937514781952,passive,0
2.901,rehab,medium,5.05895209175342,-666.6327058364752,316.47861753717103,-177.65116005651393,0.29137887480576713,-149.85660356881547,44.7112,-0.0007,-16.9088,60.8145,-0.12,-26.3216,77.8689726272432,26.754883870039837,81.62301998327274,-19.952952067057293,-88.95096672905815,-42.285851372612846,4.462176030225093,0.87066650390625,1.9044759013865253,-2.9090033637152777,-0.13570149739583334,4.071180555555555,-3.6213,-1.2358,-2.5973,-0.07653,0.02172,0.07523,0.0008361015352420509,0.0009996180888265371,0.0009686237317509949,0.0004270822391845286,0.0004998252261430025,0.00041305404738523066,0.011588635854423046,0.010569712147116661,0.011607937514781952,passive,0
2.9216,rehab,medium,6.274653783904628,-666.6347529556908,316.0268505852173,-177.65078864280102,0.29101559738053007,-149.8555080361724,48.0941,0.009,-18.1949,80.0468,0.1215,-42.8538,77.97424694099048,26.77521809492961,81.66873969654046,-20.022769504123264,-88.95358615451389,-42.18245612250434,4.353339318001624,0.8162515470297029,1.9025383373298268,-2.934282090928819,-0.13570149739583334,4.139031304253472,-3.7779,-1.0665,-3.0486,-0.06698,0.02573,0.07858,0.0008361015352420509,0.0009996180888265371,0.0009686237317509949,0.0004270822391845286,0.0004998252261430025,0.00041305404738523066,0.011588635854423046,0.010569712147116661,0.011607937514781952,passive,0
2.9407,rehab,medium,7.08834772033602,-666.6343271104737,315.72719497099166,-177.65035615973673,0.29063954591820923,-149.85435095529584,52.071,0.0171,-19.9523,94.1592,0.0483,-59.4917,78.04469269100983,26.788645073919014,81.69925123158067,-20.06943596733941,-88.95530700683594,-42.11368984646267,4.353339318001624,0.87066650390625,1.903612495648979,-2.983364529079861,-0.06785074869791667,4.342592027452257,-3.6849,-1.1085,-2.9433,-0.06399,0.018,0.08231,0.0008361015352420509,0.0009996180888265371,0.0009686237317509949,0.0004270822391845286,0.0004998252261430025,0.00041305404738523066,0.011588635854423046,0.010569712147116661,0.011607937514781952,passive,0
2.9608,rehab,medium,8.309237583662652,-666.6306445821284,315.2620820607076,-177.6501307952105,0.2904592040883711,-149.85342569597591,53.8548,0.02,-21.1902,84.0467,-0.364,-67.0519,78.15037491297957,26.809427997853497,81.74647340680113,-20.140982733832466,-88.95790947808159,-42.009735107421875,4.462176030225093,0.979496417659344,1.9676200942237778,-3.0860307481553817,-0.06785074869791667,4.274732801649305,-3.6038,-1.0723,-2.0858,-0.07546,0.02176,0.07481,0.0008361015352420509,0.0009996180888265371,0.0009686237317509949,0.0004270822391845286,0.0004998252261430025,0.00041305404738523066,0.011588635854423046,0.010569712147116661,0.011607937514781952,passive,0
2.9808,rehab,medium,9.118665944752655,-666.6310158715539,314.93944919279875,-177.65042508673756,0.2906869133142046,-149.85298147075142,55.9335,0.0278,-22.8921,47.3793,-0.7845,-63.0103,78.22052153030245,26.824466214321628,81.77803190627901,-20.18937004937066,-88.95968119303386,-41.94057888454861,4.462176030225093,1.0339181730062654,2.066558233582147,-3.176566229926215,-0.13570149739583334,4.342592027452257,-3.7755,-1.052,-2.5761,-0.06951,0.02318,0.08535,0.0008361015352420509,0.0009996180888265371,0.0009686237317509949,0.0004270822391845286,0.0004998252261430025,0.00041305404738523066,0.011588635854423046,0.010569712147116661,0.011607937514781952,passive,0
3.0006,rehab,medium,10.544099018750815,-666.6314578544867,314.3446642596482,-177.65133407584747,0.29151979896988117,-149.85087048811383,54.1954,0.0029,-23.403,-9.186,-0.9561,-46.415,78.32647569108717,26.848451217802445,81.82698089297455,-20.26457044813368,-88.96228366427951,-41.83742947048611,4.298924361125077,0.979496417659344,2.095608097491878,-3.2505544026692705,-0.13570149739583334,4.47829352484809,-3.8279,-1.0198,-2.5982,-0.08657,0.01773,0.07932,0.0008361015352420509,0.0009996180888265371,0.0009686237317509949,0.0004270822391845286,0.0004998252261430025,0.00041305404738523066,0.011588635854423046,0.010569712147116661,0.011607937514781952,passive,0
3.0216,rehab,medium,11.54553178045707,-666.6299873706935,313.90180741723634,-177.65178438528187,0.29196630772670457,-149.85056492694406,53.4118,-0.0416,-24.2709,-67.7659,-0.7907,-26.8815,78.41395160939433,26.869159358562808,81.86966168998491,-20.329869588216145,-88.96439446343315,-41.75137837727865,4.298924361125077,1.0339181730062654,2.1195931009726947,-3.2945929633246527,-0.13570149739583334,4.139031304253472,-3.6348,-1.0281,-2.424,-0.0577,0.02622,0.08017,0.0008361015352420509,0.0009996180888265371,0.0009686237317509949,0.0004270822391845286,0.0004998252261430025,0.00041305404738523066,0.011588635854423046,0.010569712147116661,0.011607937514781952,passive,0
3.0408,rehab,medium,12.728007573350943,-666.6332804984467,313.34529293029937,-177.65157355504363,0.291784696808716,-149.852522903465,52.8836,-0.0742,-25.1156,-86.1549,-0.2928,-19.2916,78.51640455793626,26.895761773137764,81.92258098337909,-20.41243659125434,-88.96697150336371,-41.6479237874349,4.298924361125077,1.1427480867593596,2.2039077305557706,-3.479944864908854,-0.06785074869791667,4.410442776150173,-3.599,-1.0881,-3.0301,-0.05745,0.01921,0.08393,0.0008361015352420509,0.0009996180888265371,0.0009686237317509949,0.0004270822391845286,0.0004998252261430025,0.00041305404738523066,0.011588635854423046,0.010569712147116661,0.011607937514781952,passive,0
3.0609,rehab,medium,13.515621426147526,-666.6324968599773,312.9554111064318,-177.65161701619058,0.29178582773637046,-149.85332147876107,50.2489,-0.0765,-24.9546,-79.2137,0.3647,-17.1696,78.58472238672842,26.914117643148593,81.95931991728226,-20.47013176812066,-88.9687262641059,-41.57925075954861,4.4077542748781715,1.1427480867593596,2.3708033797764543,-3.759638468424479,-0.13570149739583334,4.139031304253472,-3.3061,-1.1035,-2.5462,-0.05549,0.01892,0.0662,0.0008361015352420509,0.0009996180888265371,0.0009686237317509949,0.0004270822391845286,0.0004998252261430025,0.00041305404738523066,0.011588635854423046,0.010569712147116661,0.011607937514781952,passive,0
3.0807,rehab,medium,14.711101553323436,-666.6361084068002,312.3346454013346,-177.652017290831,0.2921628097735682,-149.85360277650472,48.4441,-0.047,-25.1046,-55.3861,1.036,-21.3457,78.6880115471264,26.944119292910734,82.01710011699411,-20.560658772786457,-88.97130330403645,-41.47610134548611,4.353339318001624,1.360414712735922,2.507323463364403,-3.949593438042535,-0.13570149739583334,4.342592027452257,-3.4251,-1.2367,-2.7953,-0.05914,0.0105,0.07811,0.0008361015352420509,0.0009996180888265371,0.0009686237317509949,0.0004270822391845286,0.0004998252261430025,0.00041305404738523066,0.011588635854423046,0.010569712147116661,0.011607937514781952,passive,0
3.1007,rehab,medium,15.507677684038278,-666.6390415570676,311.91760252169286,-177.65128659483486,0.29151353692490056,-149.85310224860058,46.7447,-0.0072,-25.1942,-29.0608,1.5246,-25.3515,78.75749191435257,26.964820635200727,82.0565108497544,-20.62326219346788,-88.97296481662326,-41.4080556233724,4.4077542748781715,1.305999755859375,2.4955281172648514,-3.9625295003255205,-0.13570149739583334,4.342592027452257,-3.4704,-1.1554,-2.5567,-0.0604,0.01526,0.06883,0.0008361015352420509,0.0009996180888265371,0.0009686237317509949,0.0004270822391845286,0.0004998252261430025,0.00041305404738523066,0.011588635854423046,0.010569712147116661,0.011607937514781952,passive,0
3.121,rehab,medium,16.31528214880168,-666.6363388596346,311.4838716342737,-177.65120300086895,0.29143197355029876,-149.85276039082777,47.1128,0.0435,-26.0638,-9.1403,1.4901,-27.3877,78.8276181362643,26.985521977490716,82.09758040928604,-20.68752712673611,-88.97469414605034,-41.33939107259115,4.4077542748781715,1.360414712735922,2.591794457766089,-4.0367889404296875,-0.06785074869791667,4.47829352484809,-3.3674,-1.1658,-2.409,-0.05527,0.01249,0.06722,0.0008361015352420509,0.0009996180888265371,0.0009686237317509949,0.0004270822391845286,0.0004998252261430025,0.00041305404738523066,0.011588635854423046,0.010569712147116661,0.011607937514781952,passive,0
3.1411,rehab,medium,17.527959632951845,-666.6362387535116,310.8150908675801,-177.65096387544548,0.2912756077600688,-149.85185619665032,48.1343,0.0698,-27.1621,18.5912,1.0163,-33.1708,78.93289924848197,27.018365387869352,82.16017392602298,-20.78629387749566,-88.97720336914062,-41.23578389485677,4.4077542748781715,1.4148296696124691,2.6171323568514078,-4.187867906358507,-0.06785074869791667,4.342592027452257,-3.5553,-1.1041,-2.4073,-0.06182,0.02995,0.07946,0.0008361015352420509,0.0009996180888265371,0.0009686237317509949,0.0004270822391845286,0.0004998252261430025,0.00041305404738523066,0.011588635854423046,0.010569712147116661,0.011607937514781952,passive,0
3.1611,rehab,medium,18.32651893304219,-666.6327553451354,310.36350636406297,-177.65073715588022,0.29101248096759774,-149.85171732055545,48.9797,0.0712,-27.9435,37.931,0.2537,-34.0833,79.00274673310837,27.04024286553411,82.20239922551825,-20.853390163845486,-88.9789326985677,-41.16732279459635,4.298924361125077,1.360414712735922,2.6361544769589265,-4.266162448459201,-0.13570149739583334,4.342592027452257,-3.5391,-1.0832,-2.4568,-0.08035,0.02048,0.07216,0.0008361015352420509,0.0009996180888265371,0.0009686237317509949,0.0004270822391845286,0.0004998252261430025,0.00041305404738523066,0.011588635854423046,0.010569712147116661,0.011607937514781952,passive,0
3.1809,rehab,medium,19.50704576845962,-666.6297450919111,309.6675755862373,-177.65137439854684,0.29160772000561924,-149.85387916740774,49.5437,0.0732,-28.4197,41.2971,-0.5364,-27.0758,79.10525406941329,27.074758699624844,82.26707987266012,-20.954598320855034,-88.98150973849826,-41.064046223958336,4.353339318001624,1.4148296696124691,2.6852054407100865,-4.279039171006945,-0.0,4.342592027452257,-3.337,-1.1461,-2.7213,-0.06588,0.01748,0.0667,0.0008361015352420509,0.0009996180888265371,0.0009686237317509949,0.0004270822391845286,0.0004998252261430025,0.00041305404738523066,0.011588635854423046,0.010569712147116661,0.011607937514781952,passive,0
3.2011,rehab,medium,20.293877896595433,-666.6284754411286,309.21457389675214,-177.65080742431962,0.29115362380497145,-149.8548633280864,49.6918,0.045,-28.5232,31.6421,-1.1353,-14.4732,79.17364668137957,27.09743839679378,82.30937315685914,-21.022415161132812,-88.98317972819011,-40.99559360080295,4.190087648901609,1.4692514249593904,2.635080318639774,-4.205364651150173,-0.13570149739583334,4.410442776150173,-3.2477,-1.2053,-2.5698,-0.06054,0.01067,0.0714,0.0008361015352420509,0.0009996180888265371,0.0009686237317509949,0.0004270822391845286,0.0004998252261430025,0.00041305404738523066,0.011588635854423046,0.010569712147116661,0.011607937514781952,passive,0
3.2213,rehab,medium,21.482590166840584,-666.6298698333521,308.526860542594,-177.6504997500988,0.2909062020415519,-149.85636516994592,50.518,0.0156,-28.9178,18.3648,-1.4657,-1.4852,79.27679307389967,27.13266127180345,82.37189868889233,-21.123555501302082,-88.98575676812065,-40.89157952202691,4.298924361125077,1.4692514249593904,2.5724188171991025,-4.248741997612847,-0.13570149739583334,4.342592027452257,-3.2762,-1.1892,-2.5919,-0.06236,0.01484,0.06874,0.0008361015352420509,0.0009996180888265371,0.0009686237317509949,0.0004270822391845286,0.0004998252261430025,0.00041305404738523066,0.011588635854423046,0.010569712147116661,0.011607937514781952,passive,0
3.241,rehab,medium,22.28854624037603,-666.6317027755965,308.083326355051,-177.64926475028207,0.2898007918739735,-149.85549496860781,51.0295,-0.0124,-28.9856,5.9272,-1.5631,9.3125,79.36428938761796,27.161643151009436,82.42244531612585,-21.20758056640625,-88.98793538411458,-40.80578274197048,4.353339318001624,1.4148296696124691,2.521022381168781,-4.113345675998263,-0.13570149739583334,4.071180555555555,-3.2363,-1.1781,-2.3326,-0.05445,0.01625,0.06994,0.0008361015352420509,0.0009996180888265371,0.0009686237317509949,0.0004270822391845286,0.0004998252261430025,0.00041305404738523066,0.011588635854423046,0.010569712147116661,0.011607937514781952,passive,0
3.2609,rehab,medium,23.505063614131128,-666.6320903867377,307.4014160977308,-177.64959012812713,0.29013741739786697,-149.8540017037028,50.9261,-0.0499,-28.5286,-11.5605,-1.5572,21.6875,79.4701347728767,27.197545873056544,82.48266616670212,-21.306406656901043,-88.99048699273003,-40.702548556857636,4.462176030225093,1.5780813387124846,2.4846709600769645,-4.112184312608507,-0.13570149739583334,4.206882052951388,-3.2698,-1.0328,-2.2112,-0.05159,0.01778,0.06765,0.0008361015352420509,0.0009996180888265371,0.0009686237317509949,0.0004270822391845286,0.0004998252261430025,0.00041305404738523066,0.011588635854423046,0.010569712147116661,0.011607937514781952,passive,0
3.2808,rehab,medium,24.314930516650424,-666.6295130648224,306.9500654006231,-177.6504917421881,0.2908880272137997,-149.85291521268283,50.7637,-0.0718,-28.0935,-21.6491,-1.2849,29.1466,79.54057372442567,27.22131332548538,82.52223326428101,-21.37067159016927,-88.99223327636719,-40.63392639160156,4.4077542748781715,1.5236663818359375,2.4138852865389078,-4.027447170681423,-0.13570149739583334,4.342592027452257,-3.1564,-1.0722,-2.7027,-0.05316,0.0233,0.07003,0.0008361015352420509,0.0009996180888265371,0.0009686237317509949,0.0004270822391845286,0.0004998252261430025,0.00041305404738523066,0.011588635854423046,0.010569712147116661,0.011607937514781952,passive,0
3.3011,rehab,medium,25.515203127223266,-666.6331293685394,306.2716572282436,-177.65275482370143,0.2928138585278705,-149.8530234010439,50.012,-0.0868,-27.3909,-28.739,-0.6022,33.317,79.64511380337252,27.258439772199875,82.57908887202197,-21.464852227105034,-88.99486117892795,-40.53035312228732,4.462176030225093,1.5780813387124846,2.3327319456799196,-3.963004218207465,-0.13570149739583334,4.410442776150173,-3.3712,-1.0788,-2.4938,-0.06844,0.02663,0.07078,0.0008361015352420509,0.0009996180888265371,0.0009686237317509949,0.0004270822391845286,0.0004998252261430025,0.00041305404738523066,0.011588635854423046,0.010569712147116661,0.011607937514781952,passive,0
3.3213,rehab,medium,26.528299819753386,-666.6330941023031,305.72333620152955,-177.65395754941807,0.2938492138069722,-149.8513590713424,49.6124,-0.1012,-26.9083,-29.1147,0.4068,32.0824,79.71574991056235,27.282458768032566,82.6160997447401,-21.526599460177952,-88.99659050835503,-40.4618411593967,4.4077542748781715,1.5236663818359375,2.2841840687364634,-3.798268636067708,-0.06785074869791667,4.206882052951388,-3.3095,-1.1165,-2.783,-0.06285,0.02002,0.07204,0.0008361015352420509,0.0009996180888265371,0.0009686237317509949,0.0004270822391845286,0.0004998252261430025,0.00041305404738523066,0.011588635854423046,0.010569712147116661,0.011607937514781952,passive,0
3.3409,rehab,medium,27.329339381736816,-666.6377432385679,305.29171545574906,-177.65412963427542,0.29401326159858043,-149.85086494444016,48.015,-0.1026,-25.7773,-11.4907,1.5291,17.2929,79.78585573706296,27.306851679735843,82.65215203313544,-21.588694254557293,-88.99832831488715,-40.39315965440538,4.462176030225093,1.5236663818359375,2.172525991307627,-3.793487548828125,-0.13570149739583334,4.139031304253472,-3.1349,-1.1367,-2.3138,-0.04656,0.01507,0.06315,0.0008361015352420509,0.0009996180888265371,0.0009686237317509949,0.0004270822391845286,0.0004998252261430025,0.00041305404738523066,0.011588635854423046,0.010569712147116661,0.011607937514781952,passive,0
3.3609,rehab,medium,28.516733791666358,-666.6394990129918,304.667580631862,-177.65300768921733,0.29299748353131505,-149.85139863799614,47.9308,-0.0778,-25.4321,8.756,2.295,-2.2485,79.88917888981281,27.34178901898979,82.70521409440748,-21.681103176540798,-89.00094774034288,-40.290230645073784,4.298924361125077,1.4692514249593904,2.155604598545792,-3.826938205295139,-0.06785074869791667,4.071180555555555,-3.2001,-1.1828,-2.666,-0.05405,0.01897,0.06684,0.0008361015352420509,0.0009996180888265371,0.0009686237317509949,0.0004270822391845286,0.0004998252261430025,0.00041305404738523066,0.011588635854423046,0.010569712147116661,0.011607937514781952,passive,0
3.3806,rehab,medium,29.30216307717155,-666.6421325022067,304.2435025321949,-177.65252809935174,0.292568839675022,-149.85298865884394,49.1158,-0.01,-26.0647,26.7063,2.3366,-22.5033,79.95792502223856,27.365610859181622,82.74047096176903,-21.742943657769096,-89.00275336371527,-40.221167670355904,4.353339318001624,1.5236663818359375,2.220897108021349,-3.9237128363715277,-0.13570149739583334,4.342592027452257,-3.1708,-1.1178,-2.6076,-0.05174,0.01615,0.06885,0.0008361015352420509,0.0009996180888265371,0.0009686237317509949,0.0004270822391845286,0.0004998252261430025,0.00041305404738523066,0.011588635854423046,0.010569712147116661,0.011607937514781952,passive,0
3.4009,rehab,medium,30.304106355660007,-666.6410701095107,303.71758883144787,-177.65164038009124,0.2917818267402607,-149.85356833650474,49.0877,0.0745,-26.2849,39.0746,1.779,-42.7528,80.06238351954092,27.401085277595143,82.79357381386332,-21.836107042100693,-89.00546603732639,-40.11674669053819,4.571005943978187,1.5236663818359375,2.3503127900680694,-3.835296630859375,-0.13570149739583334,4.274732801649305,-3.1474,-1.0475,-1.7766,-0.05188,0.02406,0.0712,0.0008361015352420509,0.0009996180888265371,0.0009686237317509949,0.0004270822391845286,0.0004998252261430025,0.00041305404738523066,0.011588635854423046,0.010569712147116661,0.011607937514781952,passive,0
3.421,rehab,medium,31.107269156145243,-666.6395348107754,303.27694118450535,-177.65155177786923,0.2917434873432794,-149.852881828101,51.0943,0.1317,-27.9545,38.1571,0.742,-59.0594,80.13235337663404,27.425852105169014,82.8302787554146,-21.89975314670139,-89.00718688964844,-40.04818386501736,4.298924361125077,1.5780813387124846,2.2930084832824105,-4.048275417751736,-0.06785074869791667,4.410442776150173,-3.1595,-0.9496,-1.71,-0.05942,0.0205,0.06619,0.0008361015352420509,0.0009996180888265371,0.0009686237317509949,0.0004270822391845286,0.0004998252261430025,0.00041305404738523066,0.011588635854423046,0.010569712147116661,0.011607937514781952,passive,0
3.4406,rehab,medium,32.322350969766404,-666.6342862560837,302.61866489286325,-177.65012428125377,0.290647432476781,-149.85206885487244,52.1327,0.1337,-29.5968,22.4943,-0.5593,-68.3142,80.23818516495204,27.46268621765741,82.88599901860303,-21.997256808810764,-89.009763929579,-39.9442630343967,4.516590987101639,1.5236663818359375,2.345621845509746,-4.199210272894965,-0.06785074869791667,4.274732801649305,-3.1935,-1.1254,-2.8153,-0.06754,0.02264,0.0671,0.0008361015352420509,0.0009996180888265371,0.0009686237317509949,0.0004270822391845286,0.0004998252261430025,0.00041305404738523066,0.011588635854423046,0.010569712147116661,0.011607937514781952,passive,0
3.4607,rehab,medium,33.537595224059466,-666.6315362555977,301.9209572143817,-177.649614198866,0.29015219387675695,-149.85094033669844,51.7484,0.071,-30.5446,-6.052,-1.7189,-66.1346,80.32646330276339,27.49563160509166,82.9340642041499,-22.081256442599827,-89.01204427083333,-39.858127170138886,4.4077542748781715,1.6325030940594059,2.467001735573948,-4.255718655056423,-0.13570149739583334,4.342592027452257,-3.159,-0.8965,-2.1315,-0.05765,0.02398,0.07228,0.0008361015352420509,0.0009996180888265371,0.0009686237317509949,0.0004270822391845286,0.0004998252261430025,0.00041305404738523066,0.011588635854423046,0.010569712147116661,0.011607937514781952,passive,0
3.4808,rehab,medium,34.538677285236645,-666.6272282280524,301.3115727528029,-177.64967963316295,0.2901395562377258,-149.8510495012714,52.0218,0.0009,-32.2344,-21.0575,-2.2475,-66.2969,80.4313840960512,27.536592389097308,82.99429185319654,-22.185872395833332,-89.01470608181424,-39.754223293728295,4.244502605778156,1.9045846769125154,2.5481958672551825,-4.500181410047743,-0.06785074869791667,4.274732801649305,-3.1865,-0.9616,-1.7236,-0.07032,0.0076,0.06449,0.0008361015352420509,0.0009996180888265371,0.0009686237317509949,0.0004270822391845286,0.0004998252261430025,0.00041305404738523066,0.011588635854423046,0.010569712147116661,0.011607937514781952,passive,0
3.5008,rehab,medium,35.33096435022231,-666.628851322909,300.80421409814033,-177.64966400218162,0.2902140780097216,-149.85188384311743,50.4833,-0.0562,-33.049,-29.085,-1.8664,-63.3812,80.50052453975866,27.5658122147664,83.03535461425781,-22.258207533094616,-89.01639302571614,-39.685067070855034,4.190087648901609,1.9045846769125154,2.6443806261119276,-4.689373440212673,-0.06785074869791667,4.206882052951388,-3.1925,-0.8664,-2.4454,-0.06094,0.01967,0.06681,0.0008361015352420509,0.0009996180888265371,0.0009686237317509949,0.0004270822391845286,0.0004998252261430025,0.00041305404738523066,0.011588635854423046,0.010569712147116661,0.011607937514781952,passive,0
3.5214,rehab,medium,36.517824467773714,-666.6335475052638,300.00030265827894,-177.64998539015068,0.2905098160112005,-149.8528930179502,49.422,-0.0926,-34.4226,-34.783,-0.7727,-59.5242,80.6041672206161,27.61236813989016,83.09983810575882,-22.371927897135418,-89.01897854275174,-39.581705729166664,4.4077542748781715,2.0134145906656093,2.7663179907468285,-4.884897867838542,-0.13570149739583334,4.410442776150173,-3.2517,-1.0098,-2.7389,-0.07072,0.02101,0.06499,0.0008361015352420509,0.0009996180888265371,0.0009686237317509949,0.0004270822391845286,0.0004998252261430025,0.00041305404738523066,0.011588635854423046,0.010569712147116661,0.011607937514781952,passive,0
3.5409,rehab,medium,37.50381932436764,-666.6394501463392,299.2943588465475,-177.6503583093789,0.2907647039297328,-149.85402989510783,48.8021,-0.0862,-35.7397,-16.1683,0.4196,-71.7394,80.67327367197169,27.644912417572325,83.14436808671101,-22.451197306315105,-89.02074178059895,-39.512854682074654,4.298924361125077,2.122251302889078,2.8270419281308015,-5.071648491753472,-0.13570149739583334,4.410442776150173,-3.2216,-0.9343,-2.8173,-0.06541,0.02249,0.06611,0.0008361015352420509,0.0009996180888265371,0.0009686237317509949,0.0004270822391845286,0.0004998252261430025,0.00041305404738523066,0.011588635854423046,0.010569712147116661,0.011607937514781952,passive,0
3.5609,rehab,medium,38.29758445059134,-666.6412854964149,298.70038271792674,-177.65091466803378,0.29117202838810236,-149.85477930142127,48.5423,-0.05,-36.734,10.8092,1.1782,-87.8928,80.74224415391978,27.679224297551826,83.19163785122409,-22.533620198567707,-89.02251349555121,-39.443868001302086,4.353339318001624,2.122251302889078,2.9409502992535583,-5.19972907172309,-0.13570149739583334,4.274732801649305,-3.3615,-0.8364,-2.3854,-0.07892,0.02578,0.07016,0.0008361015352420509,0.0009996180888265371,0.0009686237317509949,0.0004270822391845286,0.0004998252261430025,0.00041305404738523066,0.011588635854423046,0.010569712147116661,0.011607937514781952,passive,0
3.5809,rehab,medium,39.490885899706214,-666.6378922056998,297.7651195674318,-177.6522595724721,0.29230171830317553,-149.85542035317846,50.1868,-0.0027,-39.1098,27.0387,1.1828,-95.1453,80.84664146498878,27.732014420008895,83.2667337549795,-22.66325208875868,-89.02504814995659,-39.34030320909288,4.298924361125077,2.176666259765625,3.305470683787129,-5.447472466362847,-0.06785074869791667,4.274732801649305,-3.2692,-0.7784,-2.7125,-0.05283,0.02629,0.07277,0.0008361015352420509,0.0009996180888265371,0.0009686237317509949,0.0004270822391845286,0.0004998252261430025,0.00041305404738523066,0.011588635854423046,0.010569712147116661,0.011607937514781952,passive,0
