t,trajectory_type,trajectory_variant,x,y,z,rx,ry,rz,vx,vy,vz,ax,ay,az,j1,j2,j3,j4,j5,j6,dj1,dj2,dj3,dj4,dj5,dj6,fx,fy,fz,tx,ty,tz,Mx,My,Mz,Bx,By,Bz,Kx,Ky,Kz,mode,comfort
0.0003,rehab,small_slow,80.20030589922452,-666.6349496896387,262.48084280145946,-177.651580037489,0.2917593447660773,-149.85393419174,-0.1835,-0.0201,0.1263,6.1532,0.5766,0.3058,84.42656639778968,30.06315552362121,85.69229201515122,-27.523074679904514,-89.11318461100261,-35.81648084852431,-0.0,-0.05441495687654703,0.017444874980662127,0.009833441840277778,-0.06785074869791667,0.06785074869791667,-2.6854,-0.1296,-2.1894,-0.04438,0.0099,0.07133,0.0008830495062284172,0.0009999999310821295,0.0011441560927778482,0.00045663982746191323,0.0004999999655410647,0.0005347493570297956,0.011630482040345669,0.010127462446689606,0.008572631515562534,passive,0
0.0206,rehab,small_slow,80.2009096128827,-666.6350124713975,262.4803679884268,-177.6516111928869,0.29177099453248445,-149.85387184466697,-0.1005,-0.0171,0.0748,6.0815,0.5378,-1.6397,84.42660718861192,30.063189515973082,85.69227841821048,-27.523083157009548,-89.11319308810764,-35.81648932562934,-0.0,-0.0,0.005819490640470297,0.028500027126736112,-0.0,0.06785074869791667,-2.8523,-0.0862,-2.4644,-0.06947,0.01642,0.06709,0.0008830495062284172,0.0009999999310821295,0.0011441560927778482,0.00045663982746191323,0.0004999999655410647,0.0005347493570297956,0.011630482040345669,0.010127462446689606,0.008572631515562534,passive,0
0.0409,rehab,small_slow,80.20186789560327,-666.6349695452241,262.48009200621914,-177.65162960634584,0.2917944019438189,-149.8537815155318,0.0252,-0.0106,-0.0032,5.0446,0.4543,-4.228,84.42668197178604,30.063230306795326,85.6922716197401,-27.523074679904514,-89.11319308810764,-35.81650627983941,0.05441495687654703,-0.0,-0.016037591613165224,-0.0,-0.0,-0.0,-2.9212,0.1559,-2.1379,-0.06452,0.02533,0.06834,0.0008830495062284172,0.0009999999310821295,0.0011441560927778482,0.00045663982746191323,0.0004999999655410647,0.0005347493570297956,0.011630482040345669,0.010127462446689606,0.008572631515562534,passive,0
0.0609,rehab,small_slow,80.20232194664158,-666.6349670235562,262.4798930245105,-177.65165242452665,0.2918001041478236,-149.85373252665212,0.0685,-0.0037,-0.0304,2.1512,0.354,-4.1223,84.42674315801942,30.06325070220645,85.69228521668084,-27.523066202799477,-89.11319308810764,-35.81650627983941,0.05441495687654703,-0.0,0.002563023331141708,-0.006306966145833333,-0.0,-0.0,-2.8894,-0.0309,-2.8867,-0.05742,0.01902,0.07611,0.0008830495062284172,0.0009999999310821295,0.0011441560927778482,0.00045663982746191323,0.0004999999655410647,0.0005347493570297956,0.011630482040345669,0.010127462446689606,0.008572631515562534,passive,0
0.0807,rehab,small_slow,80.20209075853737,-666.6350903177478,262.48025858234234,-177.65161425797842,0.29178287104476297,-149.8537440670832,0.029,0.0039,-0.0066,-2.6019,0.231,-1.276,84.42672956107866,30.06325070220645,85.69225802279935,-27.523074679904514,-89.11318461100261,-35.81651475694444,-0.0,-0.0,-0.005336799243889232,0.021786159939236112,-0.0,-0.0,-2.7814,-0.0018,-1.7287,-0.07133,0.00856,0.06147,0.0008830495062284172,0.0009999999310821295,0.0011441560927778482,0.00045663982746191323,0.0004999999655410647,0.0005347493570297956,0.011630482040345669,0.010127462446689606,0.008572631515562534,passive,0
0.1008,rehab,small_slow,80.19739265633689,-666.6358540335368,262.4832557975644,-177.65149221319513,0.29168310998415625,-149.85406647574405,0.1091,0.0253,-0.1461,-9.5048,0.0117,4.4096,84.42645082379332,30.063135128210085,85.69209485951036,-27.52294752332899,-89.11318461100261,-35.816565619574654,-0.05441495687654703,-0.0,-0.018464645536819306,0.013037787543402778,-0.06785074869791667,-0.0,-2.742,-0.0082,-1.5601,-0.05796,0.01466,0.06752,0.0008830495062284172,0.0009999999310821295,0.0011441560927778482,0.00045663982746191323,0.0004999999655410647,0.0005347493570297956,0.011630482040345669,0.010127462446689606,0.008572631515562534,passive,0
0.1208,rehab,small_slow,80.1921639378457,-666.6362100384985,262.4880537782795,-177.6514167868845,0.29164400299924925,-149.85429496613122,-0.0669,0.0336,-0.0894,-18.5449,-0.1345,12.9512,84.42594093851524,30.062835995513613,85.69184331610651,-27.52251519097222,-89.11318461100261,-35.81674363878038,-0.05441495687654703,-0.05441495687654703,-0.024331725469910272,0.04375033908420139,0.06785074869791667,-0.0,-2.7936,0.0109,-2.2099,-0.0676,0.02488,0.06914,0.0008830495062284172,0.0009999999310821295,0.0011441560927778482,0.00045663982746191323,0.0004999999655410647,0.0005347493570297956,0.011630482040345669,0.010127462446689606,0.008572631515562534,passive,0
0.1411,rehab,small_slow,80.18714242911265,-666.6349795562512,262.49130748633405,-177.65252904495856,0.2924390755339429,-149.85381338150114,-0.7708,0.012,0.4552,-29.975,-0.1947,25.48,84.42550583641128,30.062530064346767,85.69124505071356,-27.52059088812934,-89.1131591796875,-35.81748962402344,-0.0,-0.05441495687654703,-0.027574595838490097,0.102081298828125,-0.0,-0.06785074869791667,-2.796,0.1354,-2.2922,-0.05328,0.01305,0.0676,0.0008830495062284172,0.0009999999310821295,0.0011441560927778482,0.00045663982746191323,0.0004999999655410647,0.0005347493570297956,0.011630482040345669,0.010127462446689606,0.008572631515562534,passive,0
0.1609,rehab,small_slow,80.18244761983702,-666.6331501239373,262.4936505642405,-177.65378669255725,0.29330347992081335,-149.85320352503555,-1.4505,-0.0133,0.9994,-42.5272,-0.4004,41.1625,84.42498235419245,30.062183342357674,85.69061279296875,-27.51766628689236,-89.11316765679253,-35.81874423556857,-0.0,-0.0,-0.03639901038443688,0.2680799696180555,-0.06785074869791667,-0.06785074869791667,-2.9344,0.0532,-2.5775,-0.0653,0.00596,0.07053,0.0008830495062284172,0.0009999999310821295,0.0011441560927778482,0.00045663982746191323,0.0004999999655410647,0.0005347493570297956,0.011630482040345669,0.010127462446689606,0.008572631515562534,passive,0
0.1808,rehab,small_slow,80.15436845090876,-666.6309341528222,262.508221708031,-177.65702492465616,0.29556165521906214,-149.85100241820854,-2.4086,-0.0247,1.9424,-55.55,-0.4281,59.1921,84.42249411403543,30.061027602394027,85.68843728244894,-27.510257297092014,-89.1131083170573,-35.8233642578125,-0.2176666259765625,-0.05441495687654703,-0.16202114596225248,0.383054945203993,-0.0,-0.339262220594618,-2.8781,-0.0936,-2.6008,-0.0601,0.01974,0.06772,0.0008830495062284172,0.0009999999310821295,0.0011441560927778482,0.00045663982746191323,0.0004999999655410647,0.0005347493570297956,0.011630482040345669,0.010127462446689606,0.008572631515562534,passive,0
0.2004,rehab,small_slow,80.11282374317207,-666.6330105391414,262.538161949221,-177.65868885857356,0.2966606795190086,-149.84999817322247,-3.48,-0.008,3.1285,-64.216,0.0562,73.5049,84.41887732779625,30.059130829159574,85.68548674630647,-27.50328911675347,-89.11307440863715,-35.82791646321615,-0.32649653972965653,-0.16324487062964108,-0.218496039362237,0.5085245768229166,0.06785074869791667,-0.2714114718967014,-2.8875,-0.2594,-1.9911,-0.08155,0.00983,0.06178,0.0008830495062284172,0.0009999999310821295,0.0011441560927778482,0.00045663982746191323,0.0004999999655410647,0.0005347493570297956,0.011630482040345669,0.010127462446689606,0.008572631515562534,passive,0
0.2205,rehab,small_slow,79.96844701759663,-666.6374236525273,262.6691248039297,-177.6602123827649,0.2975202601775642,-149.84913518049476,-4.9657,0.0082,4.8602,-67.8466,0.7271,81.4198,84.40825811707147,30.051618519395884,85.67772289313892,-27.486114501953125,-89.11295572916667,-35.83915710449219,-0.489748208829672,-0.32649653972965653,-0.3210101741375309,0.7367367214626735,-0.0,-0.4071129692925347,-2.972,-0.1038,-1.8618,-0.08492,0.00996,0.06698,0.0008830495062284172,0.0009999999310821295,0.0011441560927778482,0.00045663982746191323,0.0004999999655410647,0.0005347493570297956,0.011630482040345669,0.010127462446689606,0.008572631515562534,passive,0
0.2408,rehab,small_slow,79.87115820753198,-666.6379181443583,262.7649731310455,-177.66076407718845,0.29779623391201115,-149.84870955119467,-6.5082,-0.0051,6.766,-73.5,1.1018,88.4408,84.40001157250735,30.045166771010596,85.67199178261332,-27.473042805989582,-89.11286248101128,-35.84754943847656,-0.489748208829672,-0.435333251953125,-0.41304106759552905,0.9354570176866319,-0.0,-0.6106736924913194,-2.6559,-0.0775,-1.8586,-0.05033,0.00827,0.06922,0.0008830495062284172,0.0009999999310821295,0.0011441560927778482,0.00045663982746191323,0.0004999999655410647,0.0005347493570297956,0.011630482040345669,0.010127462446689606,0.008572631515562534,passive,0
0.2604,rehab,small_slow,79.76012883675378,-666.6364558532232,262.8857278367246,-177.6609654583316,0.29782273706484613,-149.84784031211584,-8.0863,0.0014,8.6974,-76.5088,0.9407,88.5647,84.3906296833907,30.036927024916846,85.66522050612043,-27.45740254720052,-89.11272684733073,-35.857603285047745,-0.5985781225827661,-0.5985781225827661,-0.45400185160117573,1.0989210340711806,-0.0,-0.7463751898871528,-2.7311,-0.1008,-2.1529,-0.06706,0.02174,0.06978,0.0008830495062284172,0.0009999999310821295,0.0011441560927778482,0.00045663982746191323,0.0004999999655410647,0.0005347493570297956,0.011630482040345669,0.010127462446689606,0.008572631515562534,passive,0
0.2806,rehab,small_slow,79.55488961669855,-666.6321153606051,263.1157358459872,-177.6604952085955,0.29731318153969927,-149.84626139550005,-9.5664,0.0652,10.4806,-78.9042,0.3675,83.8134,84.37344315028426,30.020848642481436,85.65292887168356,-27.428970336914062,-89.11238776312933,-35.87610880533854,-0.87066650390625,-0.8162515470297029,-0.5950769103399598,1.2902577718098958,0.06785074869791667,-0.9499359130859375,-2.6752,-0.3277,-1.7931,-0.05229,0.00995,0.06423,0.0008830495062284172,0.0009999999310821295,0.0011441560927778482,0.00045663982746191323,0.0004999999655410647,0.0005347493570297956,0.011630482040345669,0.010127462446689606,0.008572631515562534,passive,0
0.3005,rehab,small_slow,79.3811480670964,-666.6294066107595,263.3077061920159,-177.65922077597907,0.2963012137123099,-149.84619695088014,-10.9653,0.0951,11.9521,-87.8824,-0.172,83.8776,84.35888762521272,30.007204112440053,85.64309148505183,-27.406590779622395,-89.11209954155815,-35.89076571994357,-0.9250814607827971,-0.9250814607827971,-0.65236762018487,1.4818233913845487,0.06785074869791667,-0.9499359130859375,-2.7253,-0.321,-1.9057,-0.06462,0.01851,0.06194,0.0008830495062284172,0.0009999999310821295,0.0011441560927778482,0.00045663982746191323,0.0004999999655410647,0.0005347493570297956,0.011630482040345669,0.010127462446689606,0.008572631515562534,passive,0
0.3205,rehab,small_slow,79.07235364066635,-666.632125922136,263.6434884321577,-177.65593410168665,0.29384885666189636,-149.8471065448969,-12.6762,0.0702,13.4385,-94.7031,-0.5688,82.0497,84.33252995557125,29.983790180470685,85.62507553855971,-27.368240356445312,-89.111573961046,-35.915773179796005,-1.1427480867593596,-1.0883331298828125,-0.8467698805403001,1.7191738552517362,-0.06785074869791667,-1.0856458875868056,-2.4643,-0.301,-2.5732,-0.05438,0.01488,0.06262,0.0008830495062284172,0.0009999999310821295,0.0011441560927778482,0.00045663982746191323,0.0004999999655410647,0.0005347493570297956,0.011630482040345669,0.010127462446689606,0.008572631515562534,passive,0
0.3406,rehab,small_slow,78.90387841668135,-666.6335448230025,263.82281681930675,-177.6545932387257,0.29286660681525417,-149.84744909652153,-14.5447,0.029,14.901,-93.7108,-1.1605,75.1527,84.31308633030051,29.96693677241259,85.61150579169245,-27.339647081163193,-89.11111619737413,-35.9344228108724,-1.360414712735922,-1.0339181730062654,-0.8436153902865873,1.8560282389322915,0.06785074869791667,-1.2892066107855902,-2.6513,-0.3063,-2.3031,-0.05903,0.01498,0.05907,0.0008830495062284172,0.0009999999310821295,0.0011441560927778482,0.00045663982746191323,0.0004999999655410647,0.0005347493570297956,0.011630482040345669,0.010127462446689606,0.008572631515562534,passive,0
0.361,rehab,small_slow,78.46693521458499,-666.627314829936,264.2644421360589,-177.6531818220639,0.2919237330719753,-149.84834121820398,-16.3357,-0.022,16.1639,-88.6877,-1.8248,68.5952,84.28036529238861,29.938974663762764,85.5911375744508,-27.29210747612847,-89.11027696397569,-35.9656016031901,-1.4148296696124691,-1.1971630436359066,-0.8882609452351485,2.0476616753472223,0.06785074869791667,-1.4249081081814237,-2.6359,-0.2729,-2.0321,-0.06725,0.00528,0.05853,0.0008830495062284172,0.0009999999310821295,0.0011441560927778482,0.00045663982746191323,0.0004999999655410647,0.0005347493570297956,0.011630482040345669,0.010127462446689606,0.008572631515562534,passive,0
0.3814,rehab,small_slow,78.26855690564213,-666.6266740022647,264.4581402758385,-177.65340594166187,0.2921459288146428,-149.84836306885921,-18.8821,-0.0476,18.2208,-83.3983,-1.6144,67.0312,84.25736606711209,29.920278870233215,85.57619453656791,-27.257537841796875,-89.10965813530815,-35.98829481336806,-1.5780813387124846,-1.1427480867593596,-1.0052082326152536,2.244322035047743,-0.0,-1.4927588568793402,-2.5127,-0.5416,-2.3037,-0.06228,0.02023,0.05993,0.0008830495062284172,0.0009999999310821295,0.0011441560927778482,0.00045663982746191323,0.0004999999655410647,0.0005347493570297956,0.011630482040345669,0.010127462446689606,0.008572631515562534,passive,0
0.4004,rehab,small_slow,77.75019956250618,-666.6334472715109,264.9456312320677,-177.65321197465366,0.2922214188329246,-149.85030135857502,-20.8747,-0.0576,19.9364,-67.9812,-0.5103,60.3551,84.21853320433361,29.890950269038132,85.5508566374826,-27.202123006184895,-89.10859002007378,-36.02466159396701,-1.5236663818359375,-1.305999755859375,-1.0619686617709623,2.4299452039930554,0.06785074869791667,-1.5606180826822915,-2.5371,-0.5458,-2.4888,-0.05708,0.01425,0.05737,0.0008830495062284172,0.0009999999310821295,0.0011441560927778482,0.00045663982746191323,0.0004999999655410647,0.0005347493570297956,0.011630482040345669,0.010127462446689606,0.008572631515562534,passive,0
0.4204,rehab,small_slow,77.442672401937,-666.6314278533218,265.2338238376155,-177.65427286382163,0.2930995060128322,-149.85050623558945,-21.1663,-0.0734,20.15,-43.4869,0.6998,46.7003,84.1919987744624,29.869915801699797,85.53395564013188,-27.162399291992188,-89.1078609890408,-36.05057610405816,-1.686918050935953,-1.251584798982828,-1.0421647175703899,2.511723836263021,-0.0,-1.696319580078125,-2.5941,-0.6262,-2.312,-0.06657,0.00679,0.05475,0.0008830495062284172,0.0009999999310821295,0.0011441560927778482,0.00045663982746191323,0.0004999999655410647,0.0005347493570297956,0.011630482040345669,0.010127462446689606,0.008572631515562534,passive,0
0.4406,rehab,small_slow,76.86713298429527,-666.6357561388165,265.7856616147519,-177.65441999854747,0.2933520888400622,-149.851025662608,-21.7009,-0.088,20.8421,-24.5986,1.5265,35.8649,84.14192124168471,29.831470451732674,85.50103064810875,-27.088792588975693,-89.10651312934027,-36.09905666775173,-1.7413330078125,-1.4148296696124691,-1.269580350063815,2.7048831515842013,0.06785074869791667,-1.7641703287760415,-2.6235,-0.538,-2.7526,-0.06056,0.01465,0.0609,0.0008830495062284172,0.0009999999310821295,0.0011441560927778482,0.00045663982746191323,0.0004999999655410647,0.0005347493570297956,0.011630482040345669,0.010127462446689606,0.008572631515562534,passive,0
0.4605,rehab,small_slow,76.51576201311711,-666.6360156918082,266.11652307490243,-177.65479406082474,0.29369968471333957,-149.85122618763,-22.2961,-0.03,21.8282,-9.7121,1.8072,23.3667,84.11167484698909,29.80792734882619,85.48121990543781,-27.04440646701389,-89.10572475857205,-36.12888760036892,-1.9589996337890625,-1.4692514249593904,-1.2539370697323637,2.771631876627604,-0.0,-1.8998803032769096,-2.778,-0.4928,-2.8141,-0.07044,0.00469,0.06936,0.0008830495062284172,0.0009999999310821295,0.0011441560927778482,0.00045663982746191323,0.0004999999655410647,0.0005347493570297956,0.011630482040345669,0.010127462446689606,0.008572631515562534,passive,0
0.4808,rehab,small_slow,75.97690469868095,-666.6362431381106,266.6569367732784,-177.65362091781958,0.29291123408832154,-149.85081717141765,-22.4268,0.0686,22.4508,-13.4982,1.5815,22.2613,84.06476540140586,29.77023662907062,85.4497497860748,-26.97474161783854,-89.10448710123698,-36.17520650227865,-2.067836346012531,-1.6325030940594059,-1.3939515670927445,2.929746839735243,0.06785074869791667,-1.8998803032769096,-2.8312,-0.374,-2.8464,-0.07144,0.03031,0.0678,0.0008830495062284172,0.0009999999310821295,0.0011441560927778482,0.00045663982746191323,0.0004999999655410647,0.0005347493570297956,0.011630482040345669,0.010127462446689606,0.008572631515562534,passive,0
0.5004,rehab,small_slow,75.6014469378003,-666.6370571774087,267.03291090816094,-177.652740515195,0.29229011951674283,-149.85052686877629,-22.1616,0.0997,22.4554,-37.037,1.0091,36.4203,84.03185400632348,29.74360702061417,85.42731483383935,-26.926083034939236,-89.10367329915364,-36.207614474826386,-1.9589996337890625,-1.7413330078125,-1.3965757766572555,3.047544691297743,0.06785074869791667,-1.9677310519748263,-2.6799,-0.3248,-2.4966,-0.07357,0.0097,0.05785,0.0008830495062284172,0.0009999999310821295,0.0011441560927778482,0.00045663982746191323,0.0004999999655410647,0.0005347493570297956,0.011630482040345669,0.010127462446689606,0.008572631515562534,passive,0
0.5209,rehab,small_slow,75.21889633691313,-666.6324089253468,267.421554469059,-177.65198667172567,0.29181240495140237,-149.85021816478118,-22.9072,0.0971,23.0787,-53.3993,0.0279,41.3466,83.99877264948175,29.716209185005415,85.40499545560024,-26.876000298394096,-89.10280015733507,-36.24075147840712,-2.122251302889078,-1.8501697200359684,-1.3977723074431467,3.143302069769965,0.06785074869791667,-1.9677310519748263,-2.8657,-0.3024,-2.2737,-0.09112,0.01793,0.06356,0.0008830495062284172,0.0009999999310821295,0.0011441560927778482,0.00045663982746191323,0.0004999999655410647,0.0005347493570297956,0.011630482040345669,0.010127462446689606,0.008572631515562534,passive,0
0.5407,rehab,small_slow,74.63137143211065,-666.6285980666694,268.0288427851727,-177.65011551874701,0.2904692744047475,-149.8487590625046,-24.0728,0.0747,23.796,-57.9394,-1.105,37.0881,83.94745779509591,29.67300490577622,85.36933747848661,-26.798358493381077,-89.10148620605469,-36.29235161675347,-2.122251302889078,-1.7413330078125,-1.5077783565710086,3.3330196804470487,0.06785074869791667,-2.103441026475694,-2.8558,-0.3346,-3.3994,-0.0689,0.0306,0.07989,0.0008830495062284172,0.0009999999310821295,0.0011441560927778482,0.00045663982746191323,0.0004999999655410647,0.0005347493570297956,0.011630482040345669,0.010127462446689606,0.008572631515562534,passive,0
0.5608,rehab,small_slow,74.2232896209178,-666.6231665579653,268.43789811880373,-177.64972104283316,0.29017053900895773,-149.84811790920017,-25.6682,0.0288,24.6396,-63.1407,-1.7588,39.3029,83.91189499656753,29.643723893873762,85.3455904214689,-26.74492730034722,-89.1005622016059,-36.32787068684896,-2.2855029719890934,-1.795747964689047,-1.5376712308071627,3.3723873562282987,0.06785074869791667,-2.2391425238715277,-2.8438,-0.332,-2.8276,-0.08838,0.01988,0.06518,0.0008830495062284172,0.0009999999310821295,0.0011441560927778482,0.00045663982746191323,0.0004999999655410647,0.0005347493570297956,0.011630482040345669,0.010127462446689606,0.008572631515562534,passive,0
0.5807,rehab,small_slow,73.6843806641137,-666.6277965897169,268.9491216414293,-177.6496139827643,0.29015286635115656,-149.84863113489666,-28.7243,-0.0148,26.9823,-63.3618,-1.3402,43.5162,83.8557260343344,29.600947918278155,85.30741021184637,-26.662445068359375,-89.0991719563802,-36.38292948404948,-2.3943328857421875,-1.795747964689047,-1.676162870803682,3.3326043023003473,-0.0,-2.171291775173611,-2.9615,-0.2373,-3.1348,-0.10387,0.03879,0.06923,0.0008830495062284172,0.0009999999310821295,0.0011441560927778482,0.00045663982746191323,0.0004999999655410647,0.0005347493570297956,0.011630482040345669,0.010127462446689606,0.008572631515562534,passive,0
0.6004,rehab,small_slow,73.1237282056754,-666.628934366243,269.46012755853565,-177.65070790807073,0.2909475084069659,-149.8498928349866,-29.3195,-0.0522,27.2422,-49.0955,-0.4364,38.6024,83.81664842662245,29.572136000831527,85.28196353723507,-26.606275770399304,-89.09827338324652,-36.420440673828125,-2.557584554842203,-1.8501697200359684,-1.5389085524153001,3.51426018608941,-0.0,-2.374852498372396,-2.8941,-0.0968,-2.9509,-0.08704,0.03553,0.06845,0.0008830495062284172,0.0009999999310821295,0.0011441560927778482,0.00045663982746191323,0.0004999999655410647,0.0005347493570297956,0.011630482040345669,0.010127462446689606,0.008572631515562534,passive,0
0.6207,rehab,small_slow,72.42557011771676,-666.6337192605483,270.08491557332854,-177.6521401942685,0.29201733851053174,-149.85212888908504,-28.6586,-0.0625,26.5233,-28.457,0.3078,28.311,83.74553642650642,29.521419411838643,85.23591749738938,-26.50528801812066,-89.09654405381944,-36.48785909016927,-2.61199951171875,-1.8501697200359684,-1.5813446044921875,3.650682237413194,0.06785074869791667,-2.4427032470703125,-2.8079,-0.1349,-2.8232,-0.07343,0.02507,0.07049,0.0008830495062284172,0.0009999999310821295,0.0011441560927778482,0.00045663982746191323,0.0004999999655410647,0.0005347493570297956,0.011630482040345669,0.010127462446689606,0.008572631515562534,passive,0
0.6408,rehab,small_slow,71.95699619493817,-666.632574752695,270.50580208199017,-177.65364053274172,0.29310037002083533,-149.85278548191073,-29.4558,-0.0306,27.6127,-12.6803,0.7259,18.8862,83.70448726238591,29.491737290184098,85.20952583539604,-26.44622802734375,-89.09556918674045,-36.52759128146701,-2.557584554842203,-1.795747964689047,-1.7538421933013613,3.7633683946397567,0.06785074869791667,-2.510553995768229,-2.8522,-0.212,-2.8409,-0.06956,0.01588,0.06821,0.0008830495062284172,0.0009999999310821295,0.0011441560927778482,0.00045663982746191323,0.0004999999655410647,0.0005347493570297956,0.011630482040345669,0.010127462446689606,0.008572631515562534,passive,0
0.6607,rehab,small_slow,71.13542915903435,-666.6332929608308,271.2838252155044,-177.65362955308248,0.293069037585989,-149.85250338112812,-29.9953,0.032,28.534,-0.6084,0.7382,7.1109,83.64292031467551,29.445507691638305,85.1675248854231,-26.356514824761284,-89.0940433078342,-36.58851623535156,-2.557584554842203,-1.9045846769125154,-1.732610570322169,3.887786865234375,0.06785074869791667,-2.4427032470703125,-2.8515,-0.0448,-2.6473,-0.05292,0.02824,0.07337,0.0008830495062284172,0.0009999999310821295,0.0011441560927778482,0.00045663982746191323,0.0004999999655410647,0.0005347493570297956,0.011630482040345669,0.010127462446689606,0.008572631515562534,passive,0
0.6806,rehab,small_slow,70.67070291352857,-666.6308942312954,271.7526581428259,-177.65221336393418,0.29207728120783827,-149.85154199956875,-29.7017,0.0593,28.448,-4.6303,0.3678,5.3875,83.6020547092551,29.4134257099416,85.13914807008044,-26.295852661132812,-89.09300062391493,-36.62928263346354,-2.448754641089109,-2.122251302889078,-1.8578247976775217,3.7400309244791665,0.06785074869791667,-2.6462639702690973,-2.7747,-0.113,-2.7822,-0.06868,0.02355,0.05914,0.0008830495062284172,0.0009999999310821295,0.0011441560927778482,0.00045663982746191323,0.0004999999655410647,0.0005347493570297956,0.011630482040345669,0.010127462446689606,0.008572631515562534,passive,0
0.7007,rehab,small_slow,70.31309799979033,-666.6286162533457,272.1039964909632,-177.65138367962356,0.2915135852339241,-149.85114425110373,-29.6465,0.0416,28.3362,-20.608,-0.2363,12.0871,83.56043447362315,29.380650284266707,85.1103701449857,-26.234639485677082,-89.09192403157552,-36.67088826497396,-2.6664212670656715,-2.0134145906656093,-1.8027571876450341,3.8483513726128473,0.13570149739583334,-2.5784132215711804,-2.9668,-0.1052,-2.1997,-0.07842,0.02894,0.06558,0.0008830495062284172,0.0009999999310821295,0.0011441560927778482,0.00045663982746191323,0.0004999999655410647,0.0005347493570297956,0.011630482040345669,0.010127462446689606,0.008572631515562534,passive,0
0.7207,rehab,small_slow,69.46256851904427,-666.6271978543288,272.9354608564168,-177.64905649368288,0.2898036933100788,-149.85049377810617,-30.2008,0.008,28.4787,-24.5513,-0.8375,7.5217,83.49667161998183,29.331239001585704,85.0660237227336,-26.141942342122395,-89.09031338161893,-36.73426310221354,-2.7208362239422184,-1.9589996337890625,-1.8088962063931002,3.7476518419053817,-0.0,-2.6462639702690973,-2.9215,-0.1082,-2.8838,-0.06313,0.02654,0.06951,0.0008830495062284172,0.0009999999310821295,0.0011441560927778482,0.00045663982746191323,0.0004999999655410647,0.0005347493570297956,0.011630482040345669,0.010127462446689606,0.008572631515562534,passive,0
0.7408,rehab,small_slow,68.95959219594425,-666.6266784082654,273.4003272339177,-177.64898735487367,0.28978061189343696,-149.85110426573203,-30.8384,-0.0282,28.5207,-25.5838,-1.1136,4.3302,83.45282148606707,29.299381369411353,85.03662713683478,-26.07937282986111,-89.08926222059462,-36.7767588297526,-2.884087893042234,-2.0134145906656093,-1.9235388123162902,4.015443589952257,0.06785074869791667,-2.781973944769965,-2.9656,-0.101,-2.9477,-0.07272,0.03322,0.07253,0.0008830495062284172,0.0009999999310821295,0.0011441560927778482,0.00045663982746191323,0.0004999999655410647,0.0005347493570297956,0.011630482040345669,0.010127462446689606,0.008572631515562534,passive,0
0.7604,rehab,small_slow,68.19974438315978,-666.6294827058464,274.0709788567822,-177.6512392896511,0.2914601712079881,-149.85184267802492,-31.2988,-0.0499,28.4786,-30.4204,-0.717,11.252,83.38637323662786,29.25302259992845,84.99210395435296,-25.98465813530816,-89.08763461642795,-36.841345893012154,-2.884087893042234,-1.8501697200359684,-1.7986169191870358,3.924153645833333,0.06785074869791667,-2.8498246934678817,-3.034,-0.248,-3.0339,-0.06532,0.01683,0.07692,0.0008830495062284172,0.0009999999310821295,0.0011441560927778482,0.00045663982746191323,0.0004999999655410647,0.0005347493570297956,0.011630482040345669,0.010127462446689606,0.008572631515562534,passive,0
0.7807,rehab,small_slow,67.6885132820913,-666.63336666793,274.5238350562085,-177.6522059311871,0.29216340408203,-149.85189608573083,-32.593,-0.059,29.3411,-30.7041,0.1226,17.7765,83.34178886791267,29.222354700069616,84.96202072294632,-25.921232435438366,-89.08654106987846,-36.88514709472656,-2.884087893042234,-1.8501697200359684,-1.8796682829904083,3.9873504638671875,0.06785074869791667,-2.714114718967014,-2.9051,-0.2547,-2.9364,-0.06059,0.01834,0.07298,0.0008830495062284172,0.0009999999310821295,0.0011441560927778482,0.00045663982746191323,0.0004999999655410647,0.0005347493570297956,0.011630482040345669,0.010127462446689606,0.008572631515562534,passive,0
0.8005,rehab,small_slow,66.93219898402795,-666.6336785572173,275.20090792716354,-177.6540736295156,0.2935597865784893,-149.85091765058394,-33.0489,-0.0458,29.5655,-23.9394,0.6744,17.6456,83.27542899858834,29.176723366916768,84.91722560164952,-25.826161702473957,-89.08487108018663,-36.95120069715712,-2.884087893042234,-2.0134145906656093,-1.9751527993985922,4.082387288411458,0.06785074869791667,-2.781973944769965,-2.8832,-0.1684,-3.1873,-0.06799,0.02102,0.07302,0.0008830495062284172,0.0009999999310821295,0.0011441560927778482,0.00045663982746191323,0.0004999999655410647,0.0005347493570297956,0.011630482040345669,0.010127462446689606,0.008572631515562534,passive,0
0.8209,rehab,small_slow,66.42444806363196,-666.6335253994971,275.6594995287215,-177.65490470192972,0.2941972277481827,-149.8505953165189,-32.8532,-0.0208,29.4981,-16.1345,0.8028,14.1576,83.23116415798074,29.14533482919825,84.88680244672416,-25.76247321234809,-89.0838114420573,-36.99540032280816,-2.884087893042234,-1.9589996337890625,-1.8526307663114945,3.975533379448785,0.06785074869791667,-2.8498246934678817,-3.0058,-0.2542,-3.1443,-0.0825,0.02304,0.07173,0.0008830495062284172,0.0009999999310821295,0.0011441560927778482,0.00045663982746191323,0.0004999999655410647,0.0005347493570297956,0.011630482040345669,0.010127462446689606,0.008572631515562534,passive,0
0.8407,rehab,small_slow,65.6467136110806,-666.6325922899214,276.375184485323,-177.6542219734397,0.2936929502379902,-149.85094781053166,-33.393,0.0135,30.2276,-11.5463,0.5525,9.2833,83.1633698114074,29.097222054358756,84.8406476313525,-25.666444566514755,-89.08211602105034,-37.06192864312066,-2.938502849918781,-2.0134145906656093,-1.9765532842957148,4.031490749782986,0.06785074869791667,-2.9176754421657987,-2.8489,-0.3831,-2.5327,-0.08236,0.02088,0.05993,0.0008830495062284172,0.0009999999310821295,0.0011441560927778482,0.00045663982746191323,0.0004999999655410647,0.0005347493570297956,0.011630482040345669,0.010127462446689606,0.008572631515562534,passive,0
0.8608,rehab,small_slow,65.11297079681181,-666.6321875836002,276.8527810215433,-177.6537054310506,0.29330327388971206,-149.85187277393877,-33.3952,0.0388,30.2842,2.3658,-0.0185,-7.2897,83.11690226639851,29.06504489407681,84.80970779267868,-25.60257805718316,-89.08098008897569,-37.107137044270836,-2.938502849918781,-2.067836346012531,-1.9162508520749535,4.008348253038195,0.06785074869791667,-2.781973944769965,-3.068,-0.3974,-2.8209,-0.09737,0.02234,0.06603,0.0008830495062284172,0.0009999999310821295,0.0011441560927778482,0.00045663982746191323,0.0004999999655410647,0.0005347493570297956,0.011630482040345669,0.010127462446689606,0.008572631515562534,passive,0
0.8806,rehab,small_slow,64.16801796784318,-666.6311969899069,277.70167565201035,-177.65169060355296,0.29178727390454057,-149.85427898109916,-33.5058,0.0225,30.1852,16.1086,-0.5935,-25.1527,83.03390654006807,29.00758422247254,84.75512287404277,-25.49056159125434,-89.07899644639757,-37.18604193793403,-2.8296661376953125,-2.176666259765625,-1.9180252528426671,4.009306165907118,0.06785074869791667,-2.8498246934678817,-2.9322,-0.417,-3.117,-0.0805,0.0233,0.07,0.0008830495062284172,0.0009999999310821295,0.0011441560927778482,0.00045663982746191323,0.0004999999655410647,0.0005347493570297956,0.011630482040345669,0.010127462446689606,0.008572631515562534,passive,0
0.9005,rehab,small_slow,63.631319791698445,-666.6319928375112,278.1876073511704,-177.65022311383237,0.29063152599682535,-149.85485804507343,-33.1229,-0.0174,29.4341,15.4141,-0.9168,-29.6509,82.98705148224784,28.97465923044941,84.72347599445003,-25.42692396375868,-89.07786051432292,-37.231436835394966,-2.992917806795328,-1.8501697200359684,-1.9871453011390006,4.003397623697917,0.06785074869791667,-2.781973944769965,-3.0058,-0.3758,-3.4355,-0.0806,0.02549,0.0715,0.0008830495062284172,0.0009999999310821295,0.0011441560927778482,0.00045663982746191323,0.0004999999655410647,0.0005347493570297956,0.011630482040345669,0.010127462446689606,0.008572631515562534,passive,0
0.9206,rehab,small_slow,63.10324632610824,-666.6315129404817,278.66034259916194,-177.64970332434055,0.29021510277726104,-149.85480008360685,-33.2625,-0.0451,29.0655,8.4922,-0.8782,-25.7835,82.94068591429455,28.943019149327043,84.69215544143526,-25.36321851942274,-89.07672458224826,-37.277230156792534,-2.992917806795328,-2.0134145906656093,-1.9386450134881652,3.8846757676866317,0.06785074869791667,-2.781973944769965,-3.0484,-0.4728,-3.0747,-0.09799,0.02242,0.06361,0.0008830495062284172,0.0009999999310821295,0.0011441560927778482,0.00045663982746191323,0.0004999999655410647,0.0005347493570297956,0.011630482040345669,0.010127462446689606,0.008572631515562534,passive,0
0.9404,rehab,small_slow,62.31490446422356,-666.6322565974788,279.3461884459251,-177.65043723487352,0.29083238896906893,-149.85444958358812,-32.4928,-0.0702,27.9755,0.1666,-0.3922,-15.4184,82.87156586599822,28.896911923247988,84.64541595761139,-25.26803758409288,-89.07504611545139,-37.34564887152778,-3.047339562142249,-1.795747964689047,-1.9088813101891244,3.9748975965711804,0.06785074869791667,-2.781973944769965,-3.0038,-0.3747,-3.5206,-0.10301,0.03437,0.07078,0.0008830495062284172,0.0009999999310821295,0.0011441560927778482,0.00045663982746191323,0.0004999999655410647,0.0005347493570297956,0.011630482040345669,0.010127462446689606,0.008572631515562534,passive,0
0.9608,rehab,small_slow,61.7900658068022,-666.6338689270574,279.79679375221394,-177.65135870795154,0.29156314110228815,-149.8539797908774,-31.1995,-0.0744,26.5406,-7.4834,0.4941,-1.5514,82.82565579556002,28.867019049011834,84.61434694800046,-25.204679701063366,-89.07384236653645,-37.39117092556423,-2.992917806795328,-1.8501697200359684,-1.9806051726388458,3.879708184136285,0.13570149739583334,-2.9176754421657987,-3.0094,-0.242,-3.1104,-0.09013,0.02916,0.07064,0.0008830495062284172,0.0009999999310821295,0.0011441560927778482,0.00045663982746191323,0.0004999999655410647,0.0005347493570297956,0.011630482040345669,0.010127462446689606,0.008572631515562534,passive,0
0.9808,rehab,small_slow,60.986404827968244,-666.6376291357361,280.4616862281141,-177.65303657933464,0.2928655624406709,-149.8541218953091,-32.3549,-0.0427,27.4498,-11.813,1.2493,9.4044,82.75552277517791,28.823644808023282,84.56807655863243,-25.11040581597222,-89.07207912868924,-37.460242377387154,-2.938502849918781,-1.9589996337890625,-1.9011106585512068,3.9817216661241317,0.06785074869791667,-2.8498246934678817,-2.8709,-0.311,-3.1852,-0.08146,0.02163,0.0691,0.0008830495062284172,0.0009999999310821295,0.0011441560927778482,0.00045663982746191323,0.0004999999655410647,0.0005347493570297956,0.011630482040345669,0.010127462446689606,0.008572631515562534,passive,0
1.0005,rehab,small_slow,60.4498911890475,-666.6381192942255,280.9139394205985,-177.6532544490986,0.29299539190968427,-149.8546335870086,-33.86,-0.0066,28.895,-11.828,1.414,13.6026,82.70857933724281,28.793595568968517,84.53704833984375,-25.047921074761284,-89.07096862792969,-37.50584920247396,-2.938502849918781,-1.8501697200359684,-1.9620861393390316,3.860075208875868,-0.0,-2.8498246934678817,-2.9646,-0.2426,-2.674,-0.07694,0.02605,0.06795,0.0008830495062284172,0.0009999999310821295,0.0011441560927778482,0.00045663982746191323,0.0004999999655410647,0.0005347493570297956,0.011630482040345669,0.010127462446689606,0.008572631515562534,passive,0
1.0206,rehab,small_slow,59.6423255509338,-666.6376166129239,281.6013593942277,-177.65252954006735,0.29239535610757417,-149.8554039951681,-34.2258,0.0343,29.4187,-11.8936,1.1241,13.2676,82.63762370194539,28.748236174630648,84.49075075659421,-24.95490180121528,-89.06924777560764,-37.57469177246094,-2.938502849918781,-1.9045846769125154,-1.9698295970954518,3.9373779296875,-0.0,-2.8498246934678817,-3.1281,-0.368,-3.5632,-0.08292,0.0228,0.07618,0.0008830495062284172,0.0009999999310821295,0.0011441560927778482,0.00045663982746191323,0.0004999999655410647,0.0005347493570297956,0.011630482040345669,0.010127462446689606,0.008572631515562534,passive,0
1.0404,rehab,small_slow,59.2494158354066,-666.6377896096138,281.939755160525,-177.65231881568167,0.2922599915589954,-149.85472820498535,-33.8458,0.0688,29.2808,-9.666,0.5105,6.7827,82.59170683303682,28.718574448387223,84.45979052250928,-24.89331563313802,-89.06808641221788,-37.620883517795136,-2.8296661376953125,-1.9045846769125154,-1.9008591151473546,3.8340165879991317,0.13570149739583334,-2.8498246934678817,-2.9162,-0.477,-3.4059,-0.08613,0.0302,0.06975,0.0008830495062284172,0.0009999999310821295,0.0011441560927778482,0.00045663982746191323,0.0004999999655410647,0.0005347493570297956,0.011630482040345669,0.010127462446689606,0.008572631515562534,passive,0
1.0605,rehab,small_slow,58.35115986596298,-666.6321748386777,282.7306213469728,-177.6518180223291,0.29183854329489567,-149.85217513308325,-33.4112,0.0727,28.8579,8.5189,-0.3137,-16.7056,82.52419802221921,28.673656954623684,84.41356092396349,-24.801033867730034,-89.06639099121094,-37.68958197699653,-2.8296661376953125,-1.795747964689047,-1.8957602623665686,3.896060519748264,0.06785074869791667,-2.8498246934678817,-3.3567,-0.4426,-3.84,-0.09909,0.02939,0.07114,0.0008830495062284172,0.0009999999310821295,0.0011441560927778482,0.00045663982746191323,0.0004999999655410647,0.0005347493570297956,0.011630482040345669,0.010127462446689606,0.008572631515562534,passive,0
1.0804,rehab,small_slow,57.71248424218511,-666.6310266729596,283.2964760527734,-177.6506146122187,0.2909425031898876,-149.85056570475498,-32.9994,0.036,28.1591,25.4913,-0.8349,-39.1989,82.46828740186031,28.637067587068767,84.37504079082224,-24.725172254774304,-89.06491597493489,-37.74609883626302,-2.7208362239422184,-1.8501697200359684,-1.8885470852993502,3.911344740125868,0.06785074869791667,-2.781973944769965,-3.0714,-0.5029,-2.9072,-0.08541,0.03305,0.06877,0.0008830495062284172,0.0009999999310821295,0.0011441560927778482,0.00045663982746191323,0.0004999999655410647,0.0005347493570297956,0.011630482040345669,0.010127462446689606,0.008572631515562534,passive,0
1.1007,rehab,small_slow,56.92653990707397,-666.6309564059062,283.96073455703265,-177.64995249449527,0.29043838030048436,-149.85022102923233,-32.7092,-0.0033,27.3532,25.8816,-1.0015,-44.4774,82.39992198377553,28.593965284895187,84.32876360298383,-24.63463677300347,-89.06319512261284,-37.81425476074219,-2.938502849918781,-1.7413330078125,-1.8966304665744895,3.71551513671875,0.06785074869791667,-2.8498246934678817,-3.157,-0.514,-3.2434,-0.08587,0.04116,0.06807,0.0008830495062284172,0.0009999999310821295,0.0011441560927778482,0.00045663982746191323,0.0004999999655410647,0.0005347493570297956,0.011630482040345669,0.010127462446689606,0.008572631515562534,passive,0
1.1207,rehab,small_slow,56.39872539985966,-666.6310896003148,284.3945627050398,-177.64982584658753,0.2903220199685524,-149.85044251505147,-32.7353,-0.0234,26.8145,19.0161,-0.8586,-38.5282,82.35367198981861,28.565343724619044,84.29810930006575,-24.574796888563366,-89.06210157606337,-37.85967508951823,-2.8296661376953125,-1.7413330078125,-1.8982892933458384,3.78631591796875,-0.0,-2.9176754421657987,-3.0805,-0.4229,-3.3352,-0.07165,0.02401,0.07191,0.0008830495062284172,0.0009999999310821295,0.0011441560927778482,0.00045663982746191323,0.0004999999655410647,0.0005347493570297956,0.011630482040345669,0.010127462446689606,0.008572631515562534,passive,0
1.1408,rehab,small_slow,55.863261784505845,-666.6341637976979,284.81275341207663,-177.6507918207237,0.29108235119525505,-149.8514608437785,-31.9958,-0.0449,25.6587,9.2693,-0.3339,-25.0703,82.30672855188351,28.538612139106977,84.2680532625406,-24.515406290690102,-89.06094868977864,-37.90499369303385,-2.8296661376953125,-1.686918050935953,-1.9062571006246132,3.65447998046875,0.06785074869791667,-2.781973944769965,-2.9416,-0.5427,-3.1966,-0.08776,0.02307,0.06827,0.0008830495062284172,0.0009999999310821295,0.0011441560927778482,0.00045663982746191323,0.0004999999655410647,0.0005347493570297956,0.011630482040345669,0.010127462446689606,0.008572631515562534,passive,0
1.1607,rehab,small_slow,55.074031338249966,-666.6365670415332,285.4304824072613,-177.65250213466655,0.2923774465579438,-149.85174101817796,-31.1662,-0.0308,24.6289,0.7379,0.3031,-9.5259,82.23765609287979,28.49867792412786,84.22291141925471,-24.426659478081596,-89.0592532687717,-37.97264099121094,-2.884087893042234,-1.5780813387124846,-1.8253145123472307,3.5182868109809027,0.06785074869791667,-2.8498246934678817,-2.9855,-0.4587,-3.2024,-0.0772,0.0287,0.07428,0.0008830495062284172,0.0009999999310821295,0.0011441560927778482,0.00045663982746191323,0.0004999999655410647,0.0005347493570297956,0.011630482040345669,0.010127462446689606,0.008572631515562534,passive,0
1.1809,rehab,small_slow,54.55379808189499,-666.6370264747347,285.84379063446073,-177.6531290543068,0.29289346562246416,-149.85135424572533,-31.6506,-0.0045,25.0163,-4.2973,0.6462,3.4295,82.19182760408609,28.47255820094949,84.19333127465579,-24.36825222439236,-89.05815124511719,-38.01781548394097,-2.7208362239422184,-1.6325030940594059,-1.8754736267694152,3.686820136176215,0.06785074869791667,-2.9176754421657987,-3.0077,-0.6819,-3.2092,-0.08627,0.02485,0.07111,0.0008830495062284172,0.0009999999310821295,0.0011441560927778482,0.00045663982746191323,0.0004999999655410647,0.0005347493570297956,0.011630482040345669,0.010127462446689606,0.008572631515562534,passive,0
1.2007,rehab,small_slow,53.78263577600847,-666.6333593477331,286.4583014847965,-177.65427069440784,0.29378373798997287,-149.85109764758957,-31.9379,0.0058,25.4459,-5.9555,0.6196,10.584,82.12442756879447,28.432780350788985,84.14953552850402,-24.281421237521702,-89.05643039279514,-38.084920247395836,-2.8296661376953125,-1.686918050935953,-1.7745435355913521,3.5894266764322915,0.06785074869791667,-2.6462639702690973,-2.927,-0.5607,-2.7753,-0.0808,0.01932,0.06929,0.0008830495062284172,0.0009999999310821295,0.0011441560927778482,0.00045663982746191323,0.0004999999655410647,0.0005347493570297956,0.011630482040345669,0.010127462446689606,0.008572631515562534,passive,0
1.2209,rehab,small_slow,53.266016207944894,-666.6338287018767,286.87910883540366,-177.65361891232934,0.29330623597735106,-149.85138452476275,-32.4154,0.025,26.1161,-6.518,0.5219,12.8125,82.07912936068998,28.40615754080291,84.11966304967899,-24.223844740125866,-89.05528598361545,-38.12909444173177,-2.938502849918781,-1.686918050935953,-1.9272847694925743,3.6061520046657987,0.06785074869791667,-2.714114718967014,-3.0606,-0.4192,-3.2484,-0.06299,0.03201,0.07259,0.0008830495062284172,0.0009999999310821295,0.0011441560927778482,0.00045663982746191323,0.0004999999655410647,0.0005347493570297956,0.011630482040345669,0.010127462446689606,0.008572631515562534,passive,0
1.2407,rehab,small_slow,52.498743598596846,-666.632127592492,287.49489338564024,-177.65360732640093,0.293301954613661,-149.85124234726223,-32.8773,0.0349,26.6798,-4.9025,0.3155,8.5936,82.0119060856281,28.366692420279627,84.07549338765664,-24.138624403211804,-89.05359903971355,-38.19541931152344,-2.7208362239422184,-1.5780813387124846,-1.8438947318804146,3.6083560519748263,0.06785074869791667,-2.714114718967014,-3.0497,-0.5154,-3.2249,-0.08272,0.01487,0.072,0.0008830495062284172,0.0009999999310821295,0.0011441560927778482,0.00045663982746191323,0.0004999999655410647,0.0005347493570297956,0.011630482040345669,0.010127462446689606,0.008572631515562534,passive,0
1.2607,rehab,small_slow,51.986633102480965,-666.6321715920568,287.9119176623371,-177.6525834448486,0.29253302316217356,-149.85130675113962,-32.3986,0.0249,26.3325,3.3198,0.0866,-5.2378,81.96726053067954,28.340409533812267,84.04564130424272,-24.082260131835938,-89.05248006184895,-38.23957655164931,-2.884087893042234,-1.6325030940594059,-1.8855217659827506,3.488006591796875,0.06785074869791667,-2.714114718967014,-2.9754,-0.5437,-2.7552,-0.08314,0.0313,0.06166,0.0008830495062284172,0.0009999999310821295,0.0011441560927778482,0.00045663982746191323,0.0004999999655410647,0.0005347493570297956,0.011630482040345669,0.010127462446689606,0.008572631515562534,passive,0
1.2806,rehab,small_slow,51.22869578891964,-666.6345873156466,288.5270748618531,-177.65130249874522,0.2915317640417038,-149.85104241020346,-32.0849,0.0095,25.9222,11.4797,0.0018,-20.3948,81.90075109500697,28.301794222085782,84.00108412940904,-23.998819986979168,-89.05083550347221,-38.30534193250868,-2.7752511808187657,-1.6325030940594059,-1.8549830370610303,3.4911939832899304,-0.0,-2.781973944769965,-3.0485,-0.7115,-2.9554,-0.10129,0.03181,0.06262,0.0008830495062284172,0.0009999999310821295,0.0011441560927778482,0.00045663982746191323,0.0004999999655410647,0.0005347493570297956,0.011630482040345669,0.010127462446689606,0.008572631515562534,passive,0
1.3006,rehab,small_slow,50.729741213154234,-666.6331586284991,288.93409474558763,-177.6504389545747,0.29080651823176157,-149.85002177015264,-31.5942,0.0164,25.1859,19.9294,-0.2344,-34.068,81.85707092285156,28.27614359336324,83.9716399542176,-23.94364251030816,-89.04972500271268,-38.34938049316406,-2.6664212670656715,-1.6325030940594059,-1.7799483195389851,3.3808220757378473,0.13570149739583334,-2.8498246934678817,-3.0197,-0.5943,-3.5137,-0.07465,0.02518,0.06714,0.0008830495062284172,0.0009999999310821295,0.0011441560927778482,0.00045663982746191323,0.0004999999655410647,0.0005347493570297956,0.011630482040345669,0.010127462446689606,0.008572631515562534,passive,0
1.3208,rehab,small_slow,49.856465965152765,-666.6321622476472,289.6297544444111,-177.64967396977372,0.2902460587270933,-149.84904331494073,-31.4367,0.0253,24.5859,23.6887,-0.6001,-40.8259,81.7805541387879,28.232558599793084,83.92097095451733,-23.84810553656684,-89.04781765407986,-38.42583550347222,-2.7208362239422184,-1.5780813387124846,-1.8333367073890006,3.392045762803819,0.13570149739583334,-2.781973944769965,-2.8577,-0.6082,-2.8242,-0.07484,0.02116,0.06244,0.0008830495062284172,0.0009999999310821295,0.0011441560927778482,0.00045663982746191323,0.0004999999655410647,0.0005347493570297956,0.011630482040345669,0.010127462446689606,0.008572631515562534,passive,0
1.3407,rehab,small_slow,49.351746489166,-666.6314392442047,290.02205582154807,-177.64949960516503,0.2900757320931367,-149.84949885919548,-31.2774,0.0123,23.9464,11.0957,-0.8822,-30.6782,81.73679918345839,28.207716989045096,83.8923154018893,-23.79380120171441,-89.04672410753038,-38.46889071994357,-2.7752511808187657,-1.5236663818359375,-1.8179313735206528,3.392240736219618,0.06785074869791667,-2.6462639702690973,-2.9998,-0.6618,-3.6444,-0.07866,0.02029,0.069,0.0008830495062284172,0.0009999999310821295,0.0011441560927778482,0.00045663982746191323,0.0004999999655410647,0.0005347493570297956,0.011630482040345669,0.010127462446689606,0.008572631515562534,passive,0
1.3608,rehab,small_slow,48.845641856771586,-666.6311733420491,290.39896255934025,-177.65005887435328,0.29057272165248466,-149.8501275883774,-30.9033,0.0057,23.1699,-1.5466,-1.0409,-16.8232,81.6924255673248,28.18416708766824,83.86402016819113,-23.739835951063366,-89.04561360677083,-38.51191202799479,-2.6664212670656715,-1.4692514249593904,-1.7229703393312963,3.3703104654947915,0.06785074869791667,-2.714114718967014,-2.926,-0.6929,-3.1461,-0.08193,0.0388,0.0613,0.0008830495062284172,0.0009999999310821295,0.0011441560927778482,0.00045663982746191323,0.0004999999655410647,0.0005347493570297956,0.011630482040345669,0.010127462446689606,0.008572631515562534,passive,0
1.3808,rehab,small_slow,48.08371917858353,-666.6308962698071,290.96174207523984,-177.65069109497512,0.29107137306264635,-149.8515216484701,-30.4775,-0.031,22.4977,-2.8194,-1.0716,-9.651,81.62593652706335,28.148808243251082,83.82203281515896,-23.66024441189236,-89.04397752549913,-38.576295640733505,-2.7208362239422184,-1.4148296696124691,-1.7222089106493657,3.214111328125,0.06785074869791667,-2.781973944769965,-2.891,-0.786,-3.3042,-0.0881,0.02815,0.06224,0.0008830495062284172,0.0009999999310821295,0.0011441560927778482,0.00045663982746191323,0.0004999999655410647,0.0005347493570297956,0.011630482040345669,0.010127462446689606,0.008572631515562534,passive,0
1.4007,rehab,small_slow,47.582504166695955,-666.6312783705224,291.3205867198645,-177.6520452448468,0.2921624359920004,-149.8523779597068,-30.0936,-0.0752,22.0738,-0.1249,-0.788,-4.6984,81.581658089515,28.12667922218247,83.79470976272432,-23.607559204101562,-89.04290093315971,-38.618621826171875,-2.61199951171875,-1.4148296696124691,-1.6998147492361542,3.14605712890625,-0.0,-2.6462639702690973,-2.8402,-0.7749,-2.7949,-0.06831,0.02013,0.05704,0.0008830495062284172,0.0009999999310821295,0.0011441560927778482,0.00045663982746191323,0.0004999999655410647,0.0005347493570297956,0.011630482040345669,0.010127462446689606,0.008572631515562534,passive,0
1.4208,rehab,small_slow,46.84301779726501,-666.6341626838661,291.8659004427046,-177.65276999085785,0.2927051194640515,-149.85292712326083,-31.5631,-0.0902,23.2451,2.0454,-0.0192,0.3596,81.5169910393139,28.09328513570351,83.75274960357363,-23.52941724989149,-89.04132419162326,-38.68185255262587,-2.61199951171875,-1.360414712735922,-1.6833624509301517,3.24295891655816,0.13570149739583334,-2.510553995768229,-2.9812,-0.8361,-3.6525,-0.08199,0.02756,0.06505,0.0008830495062284172,0.0009999999310821295,0.0011441560927778482,0.00045663982746191323,0.0004999999655410647,0.0005347493570297956,0.011630482040345669,0.010127462446689606,0.008572631515562534,passive,0
1.4405,rehab,small_slow,46.3551827561634,-666.6368139677899,292.22403180193953,-177.65346703823997,0.29326085559620985,-149.8527168833731,-32.1843,-0.0819,23.8692,4.5044,0.9066,3.3958,81.47409948972192,28.071774775438968,83.72520220161664,-23.477859497070312,-89.04028998480902,-38.72420416937934,-2.7208362239422184,-1.360414712735922,-1.7837554629486385,3.215196397569444,0.06785074869791667,-2.6462639702690973,-3.0876,-0.7263,-3.0789,-0.08836,0.03985,0.06034,0.0008830495062284172,0.0009999999310821295,0.0011441560927778482,0.00045663982746191323,0.0004999999655410647,0.0005347493570297956,0.011630482040345669,0.010127462446689606,0.008572631515562534,passive,0
1.4604,rehab,small_slow,45.62893820341654,-666.6366499241367,292.7719099042987,-177.65341834624337,0.2932100715330562,-149.85249134438013,-30.7689,-0.0437,22.9434,10.9751,1.7976,0.2234,81.4106017764252,28.038509859897122,83.6833644149327,-23.401082356770832,-89.0386962890625,-38.78713819715712,-2.6664212670656715,-1.4148296696124691,-1.719163195921643,3.1731753879123263,0.06785074869791667,-2.6462639702690973,-3.0533,-0.8575,-2.9864,-0.09575,0.02783,0.06391,0.0008830495062284172,0.0009999999310821295,0.0011441560927778482,0.00045663982746191323,0.0004999999655410647,0.0005347493570297956,0.011630482040345669,0.010127462446689606,0.008572631515562534,passive,0
1.4806,rehab,small_slow,45.13797253317373,-666.6412961004996,293.1397930150294,-177.652587859083,0.2926022464501978,-149.85356833824014,-29.9683,-0.0016,22.489,22.7691,2.3107,-10.7027,81.36787339012221,28.0164896143545,83.65520515064202,-23.35031297471788,-89.03764512803819,-38.828464084201386,-2.7752511808187657,-1.305999755859375,-1.805877685546875,3.1271786159939237,0.13570149739583334,-2.6462639702690973,-3.0553,-0.7878,-2.8503,-0.08871,0.02619,0.06679,0.0008830495062284172,0.0009999999310821295,0.0011441560927778482,0.00045663982746191323,0.0004999999655410647,0.0005347493570297956,0.011630482040345669,0.010127462446689606,0.008572631515562534,passive,0
1.5009,rehab,small_slow,44.29620498863405,-666.637773390622,293.78014617637297,-177.65127538934928,0.29153422409644403,-149.85426169383555,-29.8061,0.0605,22.5036,34.4977,2.0388,-24.4179,81.29389923397858,27.977269238764695,83.60728953144339,-23.262981838650173,-89.03583102756076,-38.900366889105904,-2.557584554842203,-1.4148296696124691,-1.6703229847520884,3.0616590711805554,0.06785074869791667,-2.6462639702690973,-3.0466,-0.7865,-3.1091,-0.08719,0.02734,0.06718,0.0008830495062284172,0.0009999999310821295,0.0011441560927778482,0.00045663982746191323,0.0004999999655410647,0.0005347493570297956,0.011630482040345669,0.010127462446689606,0.008572631515562534,passive,0
1.5206,rehab,small_slow,43.81792865873362,-666.6369291165689,294.1303839220434,-177.65120585575008,0.2915270937534928,-149.85458698932499,-29.5024,0.1115,22.3415,29.9947,1.1236,-26.7345,81.25224500599474,27.955833661674273,83.58040837958308,-23.213636610243054,-89.0347883436415,-38.94161648220486,-2.448754641089109,-1.360414712735922,-1.6648638130414604,3.040830824110243,0.06785074869791667,-2.510553995768229,-2.987,-0.8842,-2.7267,-0.07842,0.02077,0.0567,0.0008830495062284172,0.0009999999310821295,0.0011441560927778482,0.00045663982746191323,0.0004999999655410647,0.0005347493570297956,0.011630482040345669,0.010127462446689606,0.008572631515562534,passive,0
1.5405,rehab,small_slow,43.35206414947647,-666.632060756893,294.47870835055187,-177.651318951957,0.2915766699234617,-149.85442790911264,-28.7344,0.129,21.6328,14.3389,-0.1639,-20.3277,81.21136580363358,27.934500061639465,83.55437703651957,-23.164757622612846,-89.03377109103732,-38.98206922743056,-2.503169597965656,-1.360414712735922,-1.6531840409382734,3.089472452799479,0.06785074869791667,-2.4427032470703125,-3.0055,-0.9504,-2.5435,-0.07813,0.00884,0.05887,0.0008830495062284172,0.0009999999310821295,0.0011441560927778482,0.00045663982746191323,0.0004999999655410647,0.0005347493570297956,0.011630482040345669,0.010127462446689606,0.008572631515562534,passive,0
1.5605,rehab,small_slow,42.6642034078829,-666.6304934589167,294.9969298946845,-177.65099630234715,0.2912840355604464,-149.8533680164265,-28.124,0.1199,20.8667,6.7803,-1.3443,-18.9556,81.15119254234993,27.90305713615795,83.51455839553682,-23.09221903483073,-89.03225368923611,-39.04240078396267,-2.503169597965656,-1.251584798982828,-1.642490047039372,3.0262247721354165,0.06785074869791667,-2.510553995768229,-2.9346,-0.7233,-2.6155,-0.06393,0.01949,0.06651,0.0008830495062284172,0.0009999999310821295,0.0011441560927778482,0.00045663982746191323,0.0004999999655410647,0.0005347493570297956,0.011630482040345669,0.010127462446689606,0.008572631515562534,passive,0
1.5806,rehab,small_slow,42.210698266083284,-666.6290287558109,295.3444620262787,-177.6502903186918,0.2907182750041551,-149.8522159374433,-27.8163,0.0575,20.2221,7.1134,-2.1975,-21.6548,81.11106797020034,27.88236939080871,83.4880239656656,-23.044450547960068,-89.03123643663194,-39.082700941297745,-2.503169597965656,-1.360414712735922,-1.655563505569307,3.031429714626736,-0.06785074869791667,-2.5784132215711804,-3.0498,-0.8358,-2.5526,-0.07379,0.02028,0.06256,0.0008830495062284172,0.0009999999310821295,0.0011441560927778482,0.00045663982746191323,0.0004999999655410647,0.0005347493570297956,0.011630482040345669,0.010127462446689606,0.008572631515562534,passive,0
1.6006,rehab,small_slow,41.5327749943582,-666.6254972339337,295.8437734412547,-177.65060568716154,0.2909849460116606,-149.85075419650803,-28.6383,-0.016,20.4729,6.1863,-2.5573,-20.2808,81.04207029437075,27.84716011273979,83.44271216062036,-22.961705525716145,-89.0294901529948,-39.152611626519096,-2.448754641089109,-1.1971630436359066,-1.5383102870223546,2.970140245225694,0.06785074869791667,-2.374852498372396,-3.0523,-0.8853,-2.3127,-0.09287,0.00867,0.06135,0.0008830495062284172,0.0009999999310821295,0.0011441560927778482,0.00045663982746191323,0.0004999999655410647,0.0005347493570297956,0.011630482040345669,0.010127462446689606,0.008572631515562534,passive,0
1.6208,rehab,small_slow,41.068408687408564,-666.6282433126979,296.16605486717157,-177.6511873698115,0.29149077314526695,-149.85154496043282,-28.8839,-0.0736,20.3891,3.0314,-2.1942,-13.5092,81.00154461246906,27.828389536036124,83.41663322826423,-22.91491190592448,-89.02848137749565,-39.19181823730469,-2.503169597965656,-1.1427480867593596,-1.6612402283319152,2.8632439507378473,0.06785074869791667,-2.307001749674479,-3.0388,-0.9058,-3.6063,-0.07495,0.01716,0.06681,0.0008830495062284172,0.0009999999310821295,0.0011441560927778482,0.00045663982746191323,0.0004999999655410647,0.0005347493570297956,0.011630482040345669,0.010127462446689606,0.008572631515562534,passive,0
1.6406,rehab,small_slow,40.37238571409595,-666.629431148953,296.6370696286633,-177.6526581387126,0.2927234670396202,-149.85344190540934,-28.0911,-0.1102,19.589,4.4563,-1.2101,-7.9387,80.94077308579247,27.800685769260518,83.37867056969368,-22.84558614095052,-89.02699788411458,-39.249911838107636,-2.503169597965656,-1.1971630436359066,-1.5770615681563274,2.8440009223090277,-0.0,-2.510553995768229,-3.0096,-0.8112,-2.829,-0.06738,0.01865,0.07142,0.0008830495062284172,0.0009999999310821295,0.0011441560927778482,0.00045663982746191323,0.0004999999655410647,0.0005347493570297956,0.011630482040345669,0.010127462446689606,0.008572631515562534,passive,0
1.6606,rehab,small_slow,39.90758079796153,-666.6353485776023,296.9530266478971,-177.6528767641534,0.2929263027698399,-149.85485362770228,-27.9591,-0.1067,19.4432,8.8565,0.1605,-4.827,80.91061507121171,27.787177208626623,83.35909097501548,-22.811414930555554,-89.02627733018663,-39.27872551812066,-2.557584554842203,-1.1427480867593596,-1.6455833510597153,2.836473253038194,-0.0,-2.510553995768229,-2.9463,-1.0294,-3.1277,-0.06538,0.0176,0.06346,0.0008830495062284172,0.0009999999310821295,0.0011441560927778482,0.00045663982746191323,0.0004999999655410647,0.0005347493570297956,0.011630482040345669,0.010127462446689606,0.008572631515562534,passive,0
1.6805,rehab,small_slow,39.220497023728676,-666.6370875963378,297.4317929320377,-177.6527124247758,0.29275673742409086,-149.8561271070049,-27.5415,-0.1003,19.2266,13.5036,1.3459,-4.5049,80.8502990420502,27.75965700055113,83.3206864158706,-22.743810017903645,-89.02482774522569,-39.33680216471354,-2.3943328857421875,-1.251584798982828,-1.5630431222443533,2.8380245632595487,-0.0,-2.4427032470703125,-2.9976,-1.014,-3.487,-0.06715,0.01852,0.06426,0.0008830495062284172,0.0009999999310821295,0.0011441560927778482,0.00045663982746191323,0.0004999999655410647,0.0005347493570297956,0.011630482040345669,0.010127462446689606,0.008572631515562534,passive,0
1.7009,rehab,small_slow,38.780912733896045,-666.6382714033971,297.7548795108305,-177.65189423607296,0.2920559533220916,-149.85577980967187,-27.5542,-0.0606,19.4832,13.3307,2.0526,-3.2549,80.8114457838606,27.740662074325108,83.29514456267404,-22.69904242621528,-89.02388678656683,-39.37496609157986,-2.3399179288656407,-1.1427480867593596,-1.630184815661742,2.881173027886285,0.06785074869791667,-2.307001749674479,-2.9188,-0.9587,-3.4443,-0.06214,0.02589,0.06691,0.0008830495062284172,0.0009999999310821295,0.0011441560927778482,0.00045663982746191323,0.0004999999655410647,0.0005347493570297956,0.011630482040345669,0.010127462446689606,0.008572631515562534,passive,0
1.7204,rehab,small_slow,38.34410484050595,-666.6378570444134,298.06244890721746,-177.65227928592586,0.29237720367766745,-149.8556763641689,-27.2666,0.0015,19.5379,9.4146,2.2035,-1.3011,80.77315000024173,27.722652926303372,83.27004461005183,-22.654800415039062,-89.02294582790799,-39.41289265950521,-2.3399179288656407,-1.1427480867593596,-1.540064292378945,2.734858194986979,-0.0,-2.374852498372396,-2.8355,-0.778,-2.9617,-0.0487,0.04155,0.06711,0.0008830495062284172,0.0009999999310821295,0.0011441560927778482,0.00045663982746191323,0.0004999999655410647,0.0005347493570297956,0.011630482040345669,0.010127462446689606,0.008572631515562534,passive,0
1.7408,rehab,small_slow,37.600446882881265,-666.6372281561237,298.604869670694,-177.65184479117602,0.2920358125004985,-149.85358348386723,-26.9649,0.0594,19.4128,10.4771,1.9399,-4.8131,80.69884951752012,27.68688617366375,83.22039538090772,-22.56740993923611,-89.02103847927518,-39.48854234483507,-2.3399179288656407,-1.0883331298828125,-1.5319265233408106,2.6441446940104165,0.06785074869791667,-2.2391425238715277,-2.9058,-0.8654,-2.8004,-0.07253,0.02901,0.06614,0.0008830495062284172,0.0009999999310821295,0.0011441560927778482,0.00045663982746191323,0.0004999999655410647,0.0005347493570297956,0.011630482040345669,0.010127462446689606,0.008572631515562534,passive,0
1.7605,rehab,small_slow,37.1716973578839,-666.634519391863,298.9033485737038,-177.6523103475072,0.29239902041392374,-149.85312818282605,-27.1115,0.0931,19.4492,8.3403,1.4138,-6.857,80.6613831472869,27.669386910920096,83.19650555601214,-22.524303860134548,-89.02011447482639,-39.525977240668404,-2.2855029719890934,-1.0883331298828125,-1.4948272705078125,2.7265167236328125,-0.0,-2.374852498372396,-3.0166,-0.982,-2.8105,-0.0785,0.0106,0.06126,0.0008830495062284172,0.0009999999310821295,0.0011441560927778482,0.00045663982746191323,0.0004999999655410647,0.0005347493570297956,0.011630482040345669,0.010127462446689606,0.008572631515562534,passive,0
1.7806,rehab,small_slow,36.53163238200162,-666.6365412905292,299.36064653702266,-177.65136730935694,0.29166493740906707,-149.85327331818996,-26.727,0.1009,19.0125,6.8394,0.516,-9.3383,80.60554051163173,27.64334197091584,83.15946748941252,-22.46075948079427,-89.01870727539062,-39.58095126681857,-2.3943328857421875,-1.1427480867593596,-1.4663960674021503,2.5681644015842013,-0.0,-2.2391425238715277,-3.0539,-0.9922,-3.4672,-0.07693,0.02262,0.06412,0.0008830495062284172,0.0009999999310821295,0.0011441560927778482,0.00045663982746191323,0.0004999999655410647,0.0005347493570297956,0.011630482040345669,0.010127462446689606,0.008572631515562534,passive,0
1.8006,rehab,small_slow,36.11472431313164,-666.6301874244812,299.66355730235864,-177.65110287058081,0.2914360069331771,-149.85277986814043,-26.6391,0.0925,18.8043,8.6501,-0.5367,-13.1891,80.5690599196028,27.62527843513111,83.13607395285428,-22.41855197482639,-89.0178002251519,-39.61744520399306,-2.3399179288656407,-1.1427480867593596,-1.4351027082688737,2.63991461859809,-0.0,-2.307001749674479,-3.0041,-0.9174,-3.1549,-0.06618,0.02867,0.0615,0.0008830495062284172,0.0009999999310821295,0.0011441560927778482,0.00045663982746191323,0.0004999999655410647,0.0005347493570297956,0.011630482040345669,0.010127462446689606,0.008572631515562534,passive,0
1.8209,rehab,small_slow,35.480835758601245,-666.629889011528,300.10832595262,-177.65022343171412,0.2906862759783044,-149.85263471740706,-26.0374,0.0812,18.2494,6.01,-1.3718,-12.7847,80.51374076616646,27.599804566638305,83.10028000633315,-22.356787787543404,-89.01644388834636,-39.67220730251736,-2.176666259765625,-0.979496417659344,-1.4610796635693843,2.6104736328125,-0.0,-2.2391425238715277,-3.0613,-0.9027,-2.5138,-0.0734,0.03505,0.0587,0.0008830495062284172,0.0009999999310821295,0.0011441560927778482,0.00045663982746191323,0.0004999999655410647,0.0005347493570297956,0.011630482040345669,0.010127462446689606,0.008572631515562534,passive,0
1.8406,rehab,small_slow,35.06373027099626,-666.6273118639599,300.3946147257062,-177.6504345636281,0.29084573945867415,-149.85264341974784,-26.2976,0.0545,18.3103,6.9625,-1.8095,-14.17,80.47730776343015,27.583236694335938,83.0771516101195,-22.31574164496528,-89.0155537923177,-39.708167182074654,-2.2310880151125465,-1.0339181730062654,-1.433912975953357,2.54593743218316,-0.0,-2.171291775173611,-3.0047,-0.9722,-2.782,-0.07608,0.01565,0.06449,0.0008830495062284172,0.0009999999310821295,0.0011441560927778482,0.00045663982746191323,0.0004999999655410647,0.0005347493570297956,0.011630482040345669,0.010127462446689606,0.008572631515562534,passive,0
1.8605,rehab,small_slow,34.45470707272997,-666.628075115818,300.8170015423558,-177.65061181301246,0.29096493650626065,-149.85172367118426,-26.6293,0.0067,18.3882,10.0341,-1.8975,-16.9306,80.42417771745436,27.559510032729346,83.04195592899134,-22.254994710286457,-89.01423984103732,-39.76153055826823,-2.176666259765625,-0.979496417659344,-1.3750382225112159,2.435480753580729,-0.0,-2.2391425238715277,-3.0703,-1.0361,-3.2655,-0.0913,0.01988,0.05899,0.0008830495062284172,0.0009999999310821295,0.0011441560927778482,0.00045663982746191323,0.0004999999655410647,0.0005347493570297956,0.011630482040345669,0.010127462446689606,0.008572631515562534,passive,0
1.8806,rehab,small_slow,34.05636197823386,-666.627164546133,301.08671654635054,-177.6513683789785,0.2915437690986858,-149.85068480073835,-25.5533,-0.0446,17.4375,13.2534,-1.6513,-19.6993,80.39809878509824,27.54807500555964,83.02504133469988,-22.225062052408855,-89.01360405815971,-39.788106282552086,-2.176666259765625,-0.9250814607827971,-1.4148500650235922,2.536807590060764,0.06785074869791667,-2.171291775173611,-3.054,-1.0247,-3.5059,-0.06738,0.01937,0.06554,0.0008830495062284172,0.0009999999310821295,0.0011441560927778482,0.00045663982746191323,0.0004999999655410647,0.0005347493570297956,0.011630482040345669,0.010127462446689606,0.008572631515562534,passive,0
1.9013,rehab,small_slow,33.364978152095496,-666.6302736048232,301.56564942012085,-177.65119137173176,0.29144170348540305,-149.84886620398677,-25.7607,-0.0789,17.3197,19.9654,-1.232,-24.5628,80.33774196511447,27.521703738977415,82.98434569103883,-22.156253390842014,-89.01204427083333,-39.849633110894096,-2.176666259765625,-0.979496417659344,-1.4302078095993194,2.38800048828125,0.13570149739583334,-2.171291775173611,-3.0663,-1.1212,-3.3629,-0.0704,0.02512,0.06763,0.0008830495062284172,0.0009999999310821295,0.0011441560927778482,0.00045663982746191323,0.0004999999655410647,0.0005347493570297956,0.011630482040345669,0.010127462446689606,0.008572631515562534,passive,0
1.9204,rehab,small_slow,32.962332870553595,-666.6286464524364,301.8341071954445,-177.65139666163418,0.29164112968543726,-149.848903882111,-25.5873,-0.0877,16.9576,26.2342,-0.618,-27.6224,80.30270264880492,27.506325598990564,82.96229145314433,-22.117419772677952,-89.01115417480469,-39.88432142469618,-2.122251302889078,-0.9250814607827971,-1.387649385055693,2.364222208658854,-0.0,-2.103441026475694,-3.0843,-1.0977,-2.7418,-0.0978,0.01951,0.0566,0.0008830495062284172,0.0009999999310821295,0.0011441560927778482,0.00045663982746191323,0.0004999999655410647,0.0005347493570297956,0.011630482040345669,0.010127462446689606,0.008572631515562534,passive,0
1.9407,rehab,small_slow,32.35876841777631,-666.6358607947833,302.2347244383038,-177.65097118456933,0.2913327969435178,-149.84984816769554,-24.4532,-0.0962,15.9706,25.9393,0.2418,-24.532,80.25025244986657,27.484665672377783,82.92755126953125,-22.060089111328125,-89.00984870062933,-39.93534511990017,-2.176666259765625,-0.87066650390625,-1.329916774636448,2.375174628363715,0.06785074869791667,-2.0355902777777777,-2.7943,-1.0581,-3.2405,-0.0626,0.0252,0.06603,0.0008830495062284172,0.0009999999310821295,0.0011441560927778482,0.00045663982746191323,0.0004999999655410647,0.0005347493570297956,0.011630482040345669,0.010127462446689606,0.008572631515562534,passive,0
1.9608,rehab,small_slow,31.958385246331414,-666.6352094079014,302.4894963321124,-177.65168813237452,0.29183830202219113,-149.85060504217904,-24.0622,-0.078,15.5745,16.689,0.9391,-14.8374,80.21531511061262,27.470450070824953,82.90577576892211,-22.022264268663193,-89.00905185275607,-39.96913486056857,-2.2310880151125465,-0.87066650390625,-1.383849040116414,2.3738776312934027,0.06785074869791667,-2.0355902777777777,-2.9863,-1.0134,-3.52,-0.06496,0.02357,0.06633,0.0008830495062284172,0.0009999999310821295,0.0011441560927778482,0.00045663982746191323,0.0004999999655410647,0.0005347493570297956,0.011630482040345669,0.010127462446689606,0.008572631515562534,passive,0
1.9808,rehab,small_slow,31.5504245495515,-666.6367680432311,302.7467599533984,-177.65190006497548,0.2920383929441672,-149.8524262949733,-23.4606,-0.0503,15.1618,14.2854,1.3077,-9.7233,80.1797863044361,27.45622767080175,82.8838303065536,-21.98471917046441,-89.00818718804253,-40.00251770019531,-2.176666259765625,-0.87066650390625,-1.3289989811359066,2.318479749891493,-0.0,-1.9677310519748263,-3.2063,-1.1031,-3.2527,-0.07714,0.03487,0.06569,0.0008830495062284172,0.0009999999310821295,0.0011441560927778482,0.00045663982746191323,0.0004999999655410647,0.0005347493570297956,0.011630482040345669,0.010127462446689606,0.008572631515562534,passive,0
2.0007,rehab,small_slow,30.96197916027303,-666.6361557166517,303.1179249785531,-177.65276248840544,0.2927944023760736,-149.85326759727795,-23.1416,-0.0247,15.0232,16.8539,1.3441,-9.479,80.12810433265007,27.435539925452506,82.85205425602375,-21.92960951063368,-89.00691562228732,-40.05253261990017,-2.067836346012531,-0.8162515470297029,-1.281368897692992,2.2657352023654513,0.06785074869791667,-2.0355902777777777,-3.0912,-1.0881,-3.1869,-0.07786,0.02905,0.0662,0.0008830495062284172,0.0009999999310821295,0.0011441560927778482,0.00045663982746191323,0.0004999999655410647,0.0005347493570297956,0.011630482040345669,0.010127462446689606,0.008572631515562534,passive,0
2.0207,rehab,small_slow,30.585490348141587,-666.6384014808937,303.3686443489126,-177.65280876572817,0.2927725471934583,-149.85309771587688,-23.3326,0.0125,15.2455,13.9505,1.21,-7.4661,80.09506376663057,27.421990573996364,82.83042152329247,-21.89329359266493,-89.00616963704427,-40.08522033691406,-2.067836346012531,-0.87066650390625,-1.3379729620300898,2.220730251736111,0.06785074869791667,-1.9677310519748263,-3.1787,-1.0683,-3.1112,-0.07733,0.01507,0.06461,0.0008830495062284172,0.0009999999310821295,0.0011441560927778482,0.00045663982746191323,0.0004999999655410647,0.0005347493570297956,0.011630482040345669,0.010127462446689606,0.008572631515562534,passive,0
2.0404,rehab,small_slow,30.03204153286006,-666.6369782680447,303.7360785678367,-177.65319368666334,0.29312478584506046,-149.8523295700761,-23.6848,0.0356,15.5388,12.3869,0.8606,-7.4478,80.04640711416113,27.401867101688197,82.79865906970336,-21.839591132269966,-89.00496588812933,-40.13370937771267,-1.9589996337890625,-0.87066650390625,-1.251584798982828,2.2524346245659723,0.06785074869791667,-2.0355902777777777,-3.0671,-1.1055,-2.5567,-0.07649,0.03112,0.06013,0.0008830495062284172,0.0009999999310821295,0.0011441560927778482,0.00045663982746191323,0.0004999999655410647,0.0005347493570297956,0.011630482040345669,0.010127462446689606,0.008572631515562534,passive,0
2.0605,rehab,small_slow,29.666807582624855,-666.6347784854189,303.9859309170392,-177.6526824967438,0.29275405423440415,-149.85197696669363,-23.1391,0.0454,15.211,11.8503,0.4371,-8.2314,80.00674483799698,27.384503808352026,82.7729608516882,-21.795764499240452,-89.00390625,-40.17351786295573,-2.0134145906656093,-0.8162515470297029,-1.3289785857247833,2.1289825439453125,-0.0,-2.0355902777777777,-2.9705,-1.103,-3.3835,-0.06614,0.01849,0.06202,0.0008830495062284172,0.0009999999310821295,0.0011441560927778482,0.00045663982746191323,0.0004999999655410647,0.0005347493570297956,0.011630482040345669,0.010127462446689606,0.008572631515562534,passive,0
2.0807,rehab,small_slow,29.118493976650353,-666.6358753065114,304.347422672808,-177.65232002792956,0.29244275551598764,-149.85141396099417,-21.9461,0.0421,14.3455,13.9413,0.0846,-9.8254,79.9589719866762,27.364944609084933,82.74194622984027,-21.744215223524304,-89.00271945529514,-40.22126939561632,-2.067836346012531,-0.7618297916827815,-1.2218346926245358,2.1605936686197915,-0.0,-2.0355902777777777,-3.1017,-1.0961,-2.4208,-0.08501,0.02787,0.05625,0.0008830495062284172,0.0009999999310821295,0.0011441560927778482,0.00045663982746191323,0.0004999999655410647,0.0005347493570297956,0.011630482040345669,0.010127462446689606,0.008572631515562534,passive,0
2.1009,rehab,small_slow,28.750208215503203,-666.6335474162814,304.5799008904329,-177.65271518825045,0.29272181439598505,-149.85162686181826,-21.7579,0.0387,14.0739,17.6403,-0.3009,-11.4757,79.92684921415726,27.352041112314357,82.72223066575457,-21.710154215494793,-89.00197347005208,-40.25279574924045,-1.9045846769125154,-0.87066650390625,-1.2199243224493348,2.1755218505859375,-0.0,-2.0355902777777777,-3.0827,-1.1774,-3.0039,-0.07383,0.03538,0.06347,0.0008830495062284172,0.0009999999310821295,0.0011441560927778482,0.00045663982746191323,0.0004999999655410647,0.0005347493570297956,0.011630482040345669,0.010127462446689606,0.008572631515562534,passive,0
2.1208,rehab,small_slow,28.201107952485735,-666.63340950083,304.93126533072535,-177.6525556103355,0.29257416866762614,-149.8528579803071,-21.7916,0.0313,14.0668,16.9362,-0.5053,-9.8718,79.87900837813274,27.332971402914218,82.69210664352568,-21.659774780273438,-89.00083753797743,-40.29883490668403,-1.9589996337890625,-0.7618297916827815,-1.173470374381188,2.1529557969835067,-0.0,-1.832029554578993,-2.9635,-1.1441,-3.0632,-0.06456,0.03673,0.06491,0.0008830495062284172,0.0009999999310821295,0.0011441560927778482,0.00045663982746191323,0.0004999999655410647,0.0005347493570297956,0.011630482040345669,0.010127462446689606,0.008572631515562534,passive,0
2.1409,rehab,small_slow,27.850413126658694,-666.6314134052343,305.1565518967872,-177.65277027628863,0.2928123965417329,-149.8531371212091,-21.8534,0.0177,14.2134,11.1354,-0.5449,-4.9871,79.84841526144803,27.320611783773593,82.67283977848469,-21.626917521158855,-89.0000491672092,-40.328776041666664,-1.9589996337890625,-0.8162515470297029,-1.222371771784112,2.0644463433159723,0.06785074869791667,-1.832029554578993,-3.0045,-1.1703,-2.7013,-0.07354,0.02545,0.06255,0.0008830495062284172,0.0009999999310821295,0.0011441560927778482,0.00045663982746191323,0.0004999999655410647,0.0005347493570297956,0.011630482040345669,0.010127462446689606,0.008572631515562534,passive,0
2.1604,rehab,small_slow,27.495390608162467,-666.63269025251,305.38342881596316,-177.65259168192608,0.29265957867494186,-149.85392821059122,-21.496,0.019,14.1231,3.3904,-0.4679,0.3832,79.81750941512608,27.30855129732944,82.65302903581373,-21.594373914930554,-88.99931165907118,-40.358522203233505,-1.7413330078125,-0.7618297916827815,-1.278105631913289,1.9549221462673612,0.06785074869791667,-1.9677310519748263,-3.0964,-1.1981,-2.8102,-0.08855,0.0187,0.05715,0.0008830495062284172,0.0009999999310821295,0.0011441560927778482,0.00045663982746191323,0.0004999999655410647,0.0005347493570297956,0.011630482040345669,0.010127462446689606,0.008572631515562534,passive,0
2.1807,rehab,small_slow,26.983120270810378,-666.6345844295155,305.71728324816047,-177.65234599282186,0.2924588271379858,-149.85384206669232,-20.9637,-0.0042,13.8942,3.0821,-0.3338,-0.8519,79.77291144947014,27.290936460589418,82.62365964379642,-21.54635959201389,-88.99820963541667,-40.40266248914931,-1.8501697200359684,-0.7618297916827815,-1.162232502852336,1.959440443250868,-0.0,-1.832029554578993,-3.0078,-1.2212,-2.9412,-0.06868,0.031,0.06183,0.0008830495062284172,0.0009999999310821295,0.0011441560927778482,0.00045663982746191323,0.0004999999655410647,0.0005347493570297956,0.011630482040345669,0.010127462446689606,0.008572631515562534,passive,0
2.2007,rehab,small_slow,26.576577963745677,-666.6309541636484,305.99797573165046,-177.651699964992,0.29189022382461,-149.85252068387922,-21.1568,-0.0098,14.0002,9.9401,-0.2694,-8.9203,79.73743703105661,27.275558320602567,82.60008934700843,-21.507161458333332,-88.99731953938802,-40.43901231553819,-1.7413330078125,-0.7074148348062346,-1.2192648708230198,1.9838290744357638,-0.0,-1.832029554578993,-3.1081,-1.2133,-2.9234,-0.08647,0.02792,0.05941,0.0008830495062284172,0.0009999999310821295,0.0011441560927778482,0.00045663982746191323,0.0004999999655410647,0.0005347493570297956,0.011630482040345669,0.010127462446689606,0.008572631515562534,passive,0
2.2204,rehab,small_slow,26.088706840434426,-666.6331607399579,306.33183449775737,-177.65028230178368,0.2907593695778098,-149.85173140640774,-20.9621,-0.0055,13.7646,14.1336,-0.0902,-15.789,79.69496698662786,27.25805905785891,82.57109387086169,-21.461173163519966,-88.99620056152344,-40.48174540201823,-1.7413330078125,-0.7074148348062346,-1.13565728215888,1.8995157877604165,0.06785074869791667,-1.7641703287760415,-3.1695,-1.1813,-2.6297,-0.08388,0.0268,0.06343,0.0008830495062284172,0.0009999999310821295,0.0011441560927778482,0.00045663982746191323,0.0004999999655410647,0.0005347493570297956,0.011630482040345669,0.010127462446689606,0.008572631515562534,passive,0
2.2409,rehab,small_slow,25.769230182364502,-666.6312394669687,306.53745753852434,-177.6504491534357,0.2908701131402118,-149.85110219443456,-20.9246,-0.009,13.5677,14.3515,0.2291,-18.7644,79.66711365350402,27.24697755114867,82.5532342891882,-21.431172688802082,-88.99552239312065,-40.509889390733505,-1.7413330078125,-0.6529998779296875,-1.0960425952873607,1.8653361002604165,-0.0,-1.7641703287760415,-3.1187,-1.2089,-2.949,-0.07567,0.02904,0.06327,0.0008830495062284172,0.0009999999310821295,0.0011441560927778482,0.00045663982746191323,0.0004999999655410647,0.0005347493570297956,0.011630482040345669,0.010127462446689606,0.008572631515562534,passive,0
2.2609,rehab,small_slow,25.28535186279776,-666.6342032893616,306.8439016423573,-177.6503432569284,0.2907792394327049,-149.8510655968686,-20.7585,0.0041,13.1947,14.8259,0.4925,-19.6789,79.62502432341623,27.231184704468983,82.52563929793858,-21.38665093315972,-88.99448818630643,-40.551511976453995,-1.7413330078125,-0.7074148348062346,-1.1185999199895575,1.8394131130642362,0.06785074869791667,-1.7641703287760415,-3.0963,-1.1694,-3.0414,-0.06614,0.01787,0.06141,0.0008830495062284172,0.0009999999310821295,0.0011441560927778482,0.00045663982746191323,0.0004999999655410647,0.0005347493570297956,0.011630482040345669,0.010127462446689606,0.008572631515562534,passive,0
2.2808,rehab,small_slow,24.954478989750875,-666.6338721357724,307.0417177600445,-177.65055309441698,0.2909240128714984,-149.85197571536688,-19.8328,0.0001,12.3159,19.2336,0.4569,-21.1593,79.59621920443998,27.22069466468131,82.50816722907642,-21.357591417100693,-88.99382697211371,-40.57907952202691,-1.8501697200359684,-0.6529998779296875,-1.0590861103322247,1.7735036214192708,-0.0,-1.696319580078125,-3.0642,-1.2434,-3.4441,-0.06178,0.01741,0.06203,0.0008830495062284172,0.0009999999310821295,0.0011441560927778482,0.00045663982746191323,0.0004999999655410647,0.0005347493570297956,0.011630482040345669,0.010127462446689606,0.008572631515562534,passive,0
2.3006,rehab,small_slow,24.472005034500572,-666.6312259819398,307.3430141686324,-177.65020678416246,0.29063760227920804,-149.85330596001126,-19.2224,0.0094,11.7356,23.5791,0.2231,-21.6524,79.5541774636448,27.204487111308786,82.48223786306853,-21.314671834309895,-88.99281819661458,-40.619303385416664,-1.795747964689047,-0.6529998779296875,-1.1414563773882271,1.7435116238064237,0.06785074869791667,-1.7641703287760415,-3.124,-1.2796,-3.3393,-0.06473,0.01676,0.06368,0.0008830495062284172,0.0009999999310821295,0.0011441560927778482,0.00045663982746191323,0.0004999999655410647,0.0005347493570297956,0.011630482040345669,0.010127462446689606,0.008572631515562534,passive,0
2.3207,rehab,small_slow,24.152742274593567,-666.6338401685466,307.5406908827496,-177.64973518849774,0.2902225895379024,-149.85412296622107,-19.1762,0.0385,11.6703,24.4656,-0.0159,-19.5563,79.52643290604695,27.19440497974358,82.46447345998027,-21.286638047960068,-88.9921654595269,-40.64591301812066,-1.6325030940594059,-0.6529998779296875,-1.0857701065516707,1.7277442084418402,-0.0,-1.5606180826822915,-2.9954,-1.2616,-2.721,-0.05991,0.01605,0.06418,0.0008830495062284172,0.0009999999310821295,0.0011441560927778482,0.00045663982746191323,0.0004999999655410647,0.0005347493570297956,0.011630482040345669,0.010127462446689606,0.008572631515562534,passive,0
2.3405,rehab,small_slow,23.69714664609789,-666.632158429796,307.8172495170399,-177.65028307735474,0.29068580435492675,-149.85465208892134,-18.9128,0.0404,11.5473,22.4397,-0.3542,-15.2702,79.48675023447169,27.179829059260907,82.43978821405089,-21.245473225911457,-88.99120754665799,-40.68460252549913,-1.686918050935953,-0.5985781225827661,-0.9727251411664604,1.6949039035373263,-0.0,-1.5606180826822915,-3.0158,-1.2715,-2.7484,-0.06692,0.02365,0.05659,0.0008830495062284172,0.0009999999310821295,0.0011441560927778482,0.00045663982746191323,0.0004999999655410647,0.0005347493570297956,0.011630482040345669,0.010127462446689606,0.008572631515562534,passive,0
2.3604,rehab,small_slow,23.396539571096287,-666.629974971001,307.9966815238105,-177.6507946715045,0.2911495186098158,-149.85508382584413,-18.3473,0.0105,11.2131,18.3302,-0.5595,-10.0433,79.46054892964882,27.170270409914526,82.42385259949334,-21.218507554796005,-88.99055480957031,-40.71006774902344,-1.6325030940594059,-0.5985781225827661,-1.060037896184638,1.6521199544270833,0.06785074869791667,-1.6284688313802083,-2.9663,-1.1834,-2.4787,-0.06884,0.02045,0.05582,0.0008830495062284172,0.0009999999310821295,0.0011441560927778482,0.00045663982746191323,0.0004999999655410647,0.0005347493570297956,0.011630482040345669,0.010127462446689606,0.008572631515562534,passive,0
2.3804,rehab,small_slow,23.105996922514294,-666.631374452149,308.176543714956,-177.650867858036,0.29120677450289084,-149.85524444261065,-17.7149,-0.0173,10.7934,16.7411,-0.6596,-8.0165,79.43528581373762,27.16115366114248,82.40736630883548,-21.19205050998264,-88.98994445800781,-40.734871758355034,-1.5780813387124846,-0.5985781225827661,-1.025651233031018,1.628502739800347,-0.0,-1.4927588568793402,-2.8702,-1.1822,-2.9845,-0.05507,0.02506,0.06609,0.0008830495062284172,0.0009999999310821295,0.0011441560927778482,0.00045663982746191323,0.0004999999655410647,0.0005347493570297956,0.011630482040345669,0.010127462446689606,0.008572631515562534,passive,0
2.4007,rehab,small_slow,22.609395892137965,-666.6293626715291,308.4798865265623,-177.65148061554973,0.29173446604691977,-149.85501541138635,-17.32,-0.0234,10.5474,18.5986,-0.8777,-9.697,79.39203394521581,27.14532682211092,82.38003645793046,-21.146765814887154,-88.98887634277344,-40.77784220377604,-1.4148296696124691,-0.544163165706219,-0.9687276405863242,1.5821499294704862,-0.0,-1.4927588568793402,-3.0107,-1.2561,-2.6797,-0.06958,0.02076,0.05784,0.0008830495062284172,0.0009999999310821295,0.0011441560927778482,0.00045663982746191323,0.0004999999655410647,0.0005347493570297956,0.011630482040345669,0.010127462446689606,0.008572631515562534,passive,0
2.4207,rehab,small_slow,22.33752109315157,-666.6304285990503,308.6488141541241,-177.65160645504702,0.291853691484073,-149.8544387787139,-17.2956,-0.0449,10.6054,18.0566,-0.8306,-10.6948,79.3683888652537,27.136815137202195,82.36444076689163,-21.121749877929688,-88.98827446831596,-40.801781548394096,-1.4148296696124691,-0.544163165706219,-0.9882732429126702,1.5471649169921875,-0.0,-1.4927588568793402,-2.9953,-1.2651,-2.8165,-0.06814,0.02402,0.06138,0.0008830495062284172,0.0009999999310821295,0.0011441560927778482,0.00045663982746191323,0.0004999999655410647,0.0005347493570297956,0.011630482040345669,0.010127462446689606,0.008572631515562534,passive,0
2.4404,rehab,small_slow,21.94053785068062,-666.6358399808371,308.8909007617955,-177.6520923827209,0.29229632520366955,-149.8535445021826,-16.9682,-0.0518,10.4752,13.7103,-0.4195,-9.3298,79.33392741892597,27.125189752862006,82.34104043186301,-21.08499315049913,-88.98739284939236,-40.83672417534722,-1.360414712735922,-0.489748208829672,-0.9244627999787284,1.492860582139757,-0.0,-1.4249081081814237,-3.07,-1.3598,-3.3412,-0.06545,0.02332,0.06509,0.0008830495062284172,0.0009999999310821295,0.0011441560927778482,0.00045663982746191323,0.0004999999655410647,0.0005347493570297956,0.011630482040345669,0.010127462446689606,0.008572631515562534,passive,0
2.4604,rehab,small_slow,21.68116687502634,-666.6355047634851,309.04507615726874,-177.65270019966448,0.2928387284268271,-149.85284884959273,-16.5656,-0.0412,10.2065,11.16,-0.0994,-8.7023,79.31134969881265,27.11734431804997,82.32668886090269,-21.06127421061198,-88.98680792914496,-40.85973103841146,-1.5236663818359375,-0.489748208829672,-0.904624863426284,1.4609188503689237,-0.0,-1.357057359483507,-3.069,-1.411,-3.5386,-0.06815,0.01773,0.06365,0.0008830495062284172,0.0009999999310821295,0.0011441560927778482,0.00045663982746191323,0.0004999999655410647,0.0005347493570297956,0.011630482040345669,0.010127462446689606,0.008572631515562534,passive,0
2.4808,rehab,small_slow,21.292943041481088,-666.6341482165426,309.28534505822944,-177.65267730077798,0.2928066683349628,-149.85267904645806,-16.2819,-0.0608,9.95,13.3555,0.0369,-10.8376,79.27755450258161,27.104937109616724,82.30509691899366,-21.026280721028645,-88.98598564995659,-40.89330037434896,-1.4148296696124691,-0.489748208829672,-0.9258360909943534,1.4414554172092013,-0.0,-1.357057359483507,-3.1589,-1.3054,-3.1394,-0.06705,0.02217,0.06739,0.0008830495062284172,0.0009999999310821295,0.0011441560927778482,0.00045663982746191323,0.0004999999655410647,0.0005347493570297956,0.011630482040345669,0.010127462446689606,0.008572631515562534,passive,0
2.5006,rehab,small_slow,21.03774736500119,-666.6365328920598,309.4484520809815,-177.65199891852947,0.2922027163901013,-149.85274837295452,-15.9631,-0.0702,9.6494,17.7394,0.2811,-13.6572,79.2553982876315,27.096887720693456,82.2901742765219,-21.00354512532552,-88.98546006944444,-40.91512891981337,-1.360414712735922,-0.489748208829672,-0.9110018286374536,1.3942294650607638,0.06785074869791667,-1.357057359483507,-3.042,-1.3208,-3.1847,-0.05907,0.02481,0.06539,0.0008830495062284172,0.0009999999310821295,0.0011441560927778482,0.00045663982746191323,0.0004999999655410647,0.0005347493570297956,0.011630482040345669,0.010127462446689606,0.008572631515562534,passive,0
2.5209,rehab,small_slow,20.653930555529314,-666.6362546056355,309.68237494105955,-177.651454429868,0.29170390957002873,-149.85345498966655,-15.8314,-0.0404,9.4599,21.3261,0.6114,-14.819,79.22201779809329,27.08490201742342,82.26926218165029,-20.97039116753472,-88.98468017578125,-40.94742668999566,-1.360414712735922,-0.489748208829672,-0.8459608625657488,1.3267178005642362,-0.0,-1.2892066107855902,-3.1545,-1.3936,-3.1713,-0.08003,0.02408,0.0613,0.0008830495062284172,0.0009999999310821295,0.0011441560927778482,0.00045663982746191323,0.0004999999655410647,0.0005347493570297956,0.011630482040345669,0.010127462446689606,0.008572631515562534,passive,0
2.5405,rehab,small_slow,20.40935510601898,-666.6355847363768,309.8273052167866,-177.65170049207657,0.29189904587048743,-149.8537472739433,-15.4715,-0.0231,9.2301,24.6885,0.9217,-14.9434,79.20073858582147,27.077512080126468,82.25597117206839,-20.94875759548611,-88.9841800265842,-40.968170166015625,-1.4148296696124691,-0.435333251953125,-0.8513724449837562,1.3477749294704862,0.06785074869791667,-1.2892066107855902,-3.1562,-1.2522,-3.2431,-0.07814,0.01495,0.06621,0.0008830495062284172,0.0009999999310821295,0.0011441560927778482,0.00045663982746191323,0.0004999999655410647,0.0005347493570297956,0.011630482040345669,0.010127462446689606,0.008572631515562534,passive,0
2.5605,rehab,small_slow,19.986986512268338,-666.6409757617819,310.0695047080995,-177.6520559331874,0.29219928605285894,-149.85439490637484,-14.7139,-0.0215,8.8094,29.4907,1.1772,-15.6893,79.16903731846573,27.0675795149095,82.23573892423423,-20.917256673177082,-88.98342556423611,-40.998687744140625,-1.305999755859375,-0.435333251953125,-0.8264560510616491,1.2331983778211806,0.06785074869791667,-1.2213473849826388,-3.0984,-1.141,-2.8888,-0.06119,0.03238,0.06619,0.0008830495062284172,0.0009999999310821295,0.0011441560927778482,0.00045663982746191323,0.0004999999655410647,0.0005347493570297956,0.011630482040345669,0.010127462446689606,0.008572631515562534,passive,0
2.5806,rehab,small_slow,19.76347262239463,-666.6417503869689,310.2029138704996,-177.65240194590007,0.2924779924059561,-149.8540595123739,-14.0496,0.0052,8.4996,31.2989,0.9674,-15.2875,79.14467839911433,27.059448544341738,82.2197693173248,-20.89188469780816,-88.98284064398871,-41.02327982584635,-1.251584798982828,-0.3809114966062036,-0.7623736693127321,1.247923109266493,-0.06785074869791667,-1.2213473849826388,-3.1188,-1.1533,-2.6735,-0.0775,0.01564,0.05749,0.0008830495062284172,0.0009999999310821295,0.0011441560927778482,0.00045663982746191323,0.0004999999655410647,0.0005347493570297956,0.011630482040345669,0.010127462446689606,0.008572631515562534,passive,0
2.6007,rehab,small_slow,19.535193430345426,-666.6391173629156,310.33489233628416,-177.65273758977452,0.2927919688071366,-149.85488335355228,-13.3694,0.0365,8.2155,30.1431,0.291,-14.3324,79.12478607479889,27.05251410455987,82.207933180403,-20.872073703342014,-88.98235744900174,-41.04212443033854,-1.1971630436359066,-0.3809114966062036,-0.7320252975614944,1.2375640869140625,-0.0,-1.2213473849826388,-3.1652,-1.2383,-2.895,-0.07726,0.02075,0.06354,0.0008830495062284172,0.0009999999310821295,0.0011441560927778482,0.00045663982746191323,0.0004999999655410647,0.0005347493570297956,0.011630482040345669,0.010127462446689606,0.008572631515562534,passive,0
2.6207,rehab,small_slow,19.21973310200703,-666.635366500552,310.5388071793284,-177.6522131537833,0.29232620306971413,-149.85433859273078,-12.7955,0.0544,7.9376,28.5937,-0.2026,-14.6955,79.09729306060488,27.041820110660968,82.1901279864925,-20.843421088324654,-88.98167928059895,-41.069836086697045,-1.0883331298828125,-0.435333251953125,-0.763923720558091,1.1679585774739583,-0.0,-1.153496636284722,-3.2352,-1.2477,-3.11,-0.0785,0.01807,0.06294,0.0008830495062284172,0.0009999999310821295,0.0011441560927778482,0.00045663982746191323,0.0004999999655410647,0.0005347493570297956,0.011630482040345669,0.010127462446689606,0.008572631515562534,passive,0
2.6405,rehab,small_slow,19.015719698218373,-666.6357964626308,310.67441577061976,-177.65149245517753,0.29168201889208095,-149.85380958526278,-12.1089,0.0565,7.5603,24.206,-0.3004,-14.0577,79.0795626498685,27.035062431108834,82.17791113522973,-20.82485622829861,-88.98124694824219,-41.08788384331597,-1.0339181730062654,-0.435333251953125,-0.761836590153156,1.1542510986328125,0.06785074869791667,-1.153496636284722,-3.398,-1.0916,-2.5729,-0.0808,0.03281,0.06178,0.0008830495062284172,0.0009999999310821295,0.0011441560927778482,0.00045663982746191323,0.0004999999655410647,0.0005347493570297956,0.011630482040345669,0.010127462446689606,0.008572631515562534,passive,0
2.6607,rehab,small_slow,18.7179632082349,-666.6358854611104,310.8629991292053,-177.65108755444692,0.2913462458241234,-149.85345188318837,-11.7731,0.0144,7.3582,19.3909,-0.3703,-12.8713,79.05367407468286,27.025680541992188,82.16060222965656,-20.79789055718316,-88.98059421115451,-41.11382378472222,-1.0339181730062654,-0.3809114966062036,-0.685612140315594,1.0902150472005208,0.06785074869791667,-1.0856458875868056,-3.1529,-1.162,-2.6789,-0.07109,0.01861,0.06348,0.0008830495062284172,0.0009999999310821295,0.0011441560927778482,0.00045663982746191323,0.0004999999655410647,0.0005347493570297956,0.011630482040345669,0.010127462446689606,0.008572631515562534,passive,0
2.6806,rehab,small_slow,18.5375920737411,-666.6340137327572,310.97403193188865,-177.65164179532368,0.29181765445174374,-149.85220035074536,-11.7905,-0.0312,7.3097,17.2317,-0.4352,-12.4823,79.03795601117729,27.020044610051826,82.15020736845413,-20.780614217122395,-88.98018731011284,-41.13059997558594,-0.9250814607827971,-0.32649653972965653,-0.6198981256768255,1.0610198974609375,-0.0,-1.0177951388888888,-3.1849,-1.1116,-2.5405,-0.07585,0.01198,0.06116,0.0008830495062284172,0.0009999999310821295,0.0011441560927778482,0.00045663982746191323,0.0004999999655410647,0.0005347493570297956,0.011630482040345669,0.010127462446689606,0.008572631515562534,passive,0
2.7004,rehab,small_slow,18.264547013429,-666.63446602003,311.1303611012807,-177.65267753688715,0.29271859097480446,-149.85123191228118,-11.2011,-0.0296,6.8459,15.4841,-0.2529,-11.4451,79.01422255110032,27.012511904877012,82.13480883305616,-20.755555894639755,-88.97958543565538,-41.15502251519097,-0.979496417659344,-0.2720815828531095,-0.6338213930035581,1.0230763753255208,-0.0,-1.0177951388888888,-3.1487,-1.1372,-2.8414,-0.0516,0.02801,0.06623,0.0008830495062284172,0.0009999999310821295,0.0011441560927778482,0.00045663982746191323,0.0004999999655410647,0.0005347493570297956,0.011630482040345669,0.010127462446689606,0.008572631515562534,passive,0
2.7209,rehab,small_slow,18.086049270754884,-666.6372729253637,311.23479750188784,-177.65288036537655,0.2929282776221543,-149.85097797786693,-10.7616,0.0061,6.4995,14.0145,0.1507,-10.5009,78.99874923252823,27.00774617714457,82.12433239020923,-20.739542643229168,-88.97917853461371,-41.170569525824654,-0.9250814607827971,-0.32649653972965653,-0.6982708921526918,1.0242886013454862,-0.0,-0.9499359130859375,-3.1376,-1.2986,-2.5198,-0.07975,0.01236,0.06073,0.0008830495062284172,0.0009999999310821295,0.0011441560927778482,0.00045663982746191323,0.0004999999655410647,0.0005347493570297956,0.011630482040345669,0.010127462446689606,0.008572631515562534,passive,0
2.7409,rehab,small_slow,17.833140269748984,-666.6401111658739,311.3967178955112,-177.65232350598623,0.29245800963112284,-149.85036894608325,-10.671,0.0277,6.4477,15.6065,0.5582,-11.71,78.9768105686301,27.00009789797339,82.10893385481126,-20.71653578016493,-88.97861904568143,-41.19285583496094,-0.87066650390625,-0.3809114966062036,-0.5837166663443688,0.9499359130859375,-0.0,-0.8142344156901041,-3.0749,-1.1751,-2.4783,-0.06069,0.02291,0.06529,0.0008830495062284172,0.0009999999310821295,0.0011441560927778482,0.00045663982746191323,0.0004999999655410647,0.0005347493570297956,0.011630482040345669,0.010127462446689606,0.008572631515562534,passive,0
2.7604,rehab,small_slow,17.667123690823907,-666.6384879561274,311.49928539625984,-177.65212850173242,0.2922741118532744,-149.85050868288798,-10.2858,0.0214,6.2384,18.9287,0.5788,-13.6934,78.96235702061416,26.994822284962872,82.09978991215772,-20.701946682400173,-88.97827996148003,-41.207004123263886,-0.9250814607827971,-0.2720815828531095,-0.5319803067953279,0.8517371283637153,-0.0,-0.8820851643880208,-3.2812,-1.2031,-2.6572,-0.08195,0.02233,0.06152,0.0008830495062284172,0.0009999999310821295,0.0011441560927778482,0.00045663982746191323,0.0004999999655410647,0.0005347493570297956,0.011630482040345669,0.010127462446689606,0.008572631515562534,passive,0
2.7808,rehab,small_slow,17.42214396817162,-666.6333987903315,311.6456898889868,-177.6520235560215,0.2921882625295992,-149.8509687483977,-9.8387,0.0215,5.9676,20.1117,0.0829,-14.3567,78.94098262975712,26.98694965626934,82.08718554808361,-20.680965847439236,-88.97776285807292,-41.22767978244357,-0.8162515470297029,-0.2720815828531095,-0.5255081629989171,0.8429124620225694,-0.0,-0.8820851643880208,-3.1671,-1.1675,-3.065,-0.07436,0.02343,0.06796,0.0008830495062284172,0.0009999999310821295,0.0011441560927778482,0.00045663982746191323,0.0004999999655410647,0.0005347493570297956,0.011630482040345669,0.010127462446689606,0.008572631515562534,passive,0
2.8007,rehab,small_slow,17.232920592735,-666.6315007651374,311.76030390943396,-177.65199380928544,0.29214043368593556,-149.8511297006805,-9.6068,0.0301,5.7422,20.4976,-0.4438,-15.0808,78.92450993604,26.981089374806622,82.07682467923306,-20.66429985894097,-88.97738138834636,-41.24380323621962,-0.8162515470297029,-0.2176666259765625,-0.5014279809328589,0.8400980631510416,-0.0,-0.8142344156901041,-3.0918,-1.1724,-3.4326,-0.06721,0.03367,0.06344,0.0008830495062284172,0.0009999999310821295,0.0011441560927778482,0.00045663982746191323,0.0004999999655410647,0.0005347493570297956,0.011630482040345669,0.010127462446689606,0.008572631515562534,passive,0
2.8204,rehab,small_slow,17.0836670539766,-666.6324658041673,311.84957143426396,-177.65181887144382,0.2919879716363412,-149.85153286467144,-9.121,0.0262,5.3207,22.9426,-0.6156,-17.1236,78.9115588499768,26.97681993541151,82.06836058361695,-20.651414659288193,-88.97707621256511,-41.256205240885414,-0.8162515470297029,-0.2176666259765625,-0.5423003848236386,0.802883572048611,0.13570149739583334,-0.7463751898871528,-3.2151,-1.0738,-2.9627,-0.07324,0.02533,0.07095,0.0008830495062284172,0.0009999999310821295,0.0011441560927778482,0.00045663982746191323,0.0004999999655410647,0.0005347493570297956,0.011630482040345669,0.010127462446689606,0.008572631515562534,passive,0
2.8404,rehab,small_slow,16.866669734197036,-666.6354956246021,311.97486659534064,-177.65148367820174,0.2917562194170204,-149.85267692957953,-8.4678,0.0031,4.8608,24.8118,-0.516,-17.9385,78.89275428092125,26.971020840182163,82.05620491858757,-20.633324517144096,-88.97660149468315,-41.27365960015191,-0.7618297916827815,-0.2176666259765625,-0.4897210149481745,0.7433997260199653,-0.0,-0.678524441189236,-3.1776,-1.1202,-2.8907,-0.08506,0.03448,0.06409,0.0008830495062284172,0.0009999999310821295,0.0011441560927778482,0.00045663982746191323,0.0004999999655410647,0.0005347493570297956,0.011630482040345669,0.010127462446689606,0.008572631515562534,passive,0
2.8606,rehab,small_slow,16.73149037536441,-666.6360689800326,312.0507610884339,-177.65161199326556,0.2918744666946871,-149.85310048464595,-7.8976,-0.0258,4.4985,25.9971,-0.4402,-17.0566,78.88102012105507,26.967397255472616,82.04886257058322,-20.621838039822048,-88.97632175021701,-41.28484090169271,-0.7074148348062346,-0.2720815828531095,-0.45626574223584465,0.7332017686631944,-0.0,-0.678524441189236,-3.2532,-1.3084,-3.5631,-0.08636,0.03888,0.0666,0.0008830495062284172,0.0009999999310821295,0.0011441560927778482,0.00045663982746191323,0.0004999999655410647,0.0005347493570297956,0.011630482040345669,0.010127462446689606,0.008572631515562534,passive,0
2.8807,rehab,small_slow,16.54563932014257,-666.6357107732728,312.153716589629,-177.65212756223974,0.29226820862536096,-149.85321561447785,-7.5759,-0.033,4.2801,28.3324,-0.3545,-15.7147,78.86487375391592,26.962393581277073,82.03888921454401,-20.605723063151043,-88.97597418891058,-41.300693088107636,-0.6529998779296875,-0.16324487062964108,-0.4054335792465965,0.6412675645616319,-0.0,-0.678524441189236,-3.2328,-1.1847,-3.5982,-0.07233,0.02947,0.06513,0.0008830495062284172,0.0009999999310821295,0.0011441560927778482,0.00045663982746191323,0.0004999999655410647,0.0005347493570297956,0.011630482040345669,0.010127462446689606,0.008572631515562534,passive,0
2.9004,rehab,small_slow,16.433473806203178,-666.6348145392803,312.2178254128961,-177.6525067773399,0.2926089085949843,-149.8531329234996,-7.1183,-0.0233,4.0211,28.5537,-0.1349,-13.021,78.85511115045831,26.959218695612236,82.0327365988552,-20.595584445529514,-88.97572835286458,-41.3104248046875,-0.544163165706219,-0.16324487062964108,-0.35374480899017635,0.64239501953125,-0.0,-0.5428229437934028,-3.1485,-1.2107,-3.5564,-0.07123,0.02834,0.06425,0.0008830495062284172,0.0009999999310821295,0.0011441560927778482,0.00045663982746191323,0.0004999999655410647,0.0005347493570297956,0.011630482040345669,0.010127462446689606,0.008572631515562534,passive,0
2.9207,rehab,small_slow,16.27707626801931,-666.6342475903506,312.30934689237034,-177.65282780065132,0.292932465184468,-149.85303074131815,-6.3188,-0.0152,3.6455,27.9458,0.1303,-11.019,78.84150741123916,26.95475889904664,82.02393937819075,-20.58145311143663,-88.97536383734808,-41.32397121853298,-0.5985781225827661,-0.16324487062964108,-0.3378023959622525,0.5755106608072916,-0.0,-0.5428229437934028,-3.0719,-1.1698,-3.0908,-0.07492,0.01751,0.0666,0.0008830495062284172,0.0009999999310821295,0.0011441560927778482,0.00045663982746191323,0.0004999999655410647,0.0005347493570297956,0.011630482040345669,0.010127462446689606,0.008572631515562534,passive,0
2.9407,rehab,small_slow,16.174235823740833,-666.6348451119866,312.36863198803786,-177.65273384404188,0.2928367529436958,-149.85350342116618,-5.7559,-0.0157,3.464,29.2573,0.3243,-11.7781,78.83258781810798,26.951937533841274,82.01828984930964,-20.572857326931423,-88.9751688639323,-41.33232116699219,-0.544163165706219,-0.16324487062964108,-0.3590136235303218,0.5557505289713541,-0.0,-0.4749637179904514,-3.3728,-1.1141,-2.7678,-0.08619,0.03829,0.06766,0.0008830495062284172,0.0009999999310821295,0.0011441560927778482,0.00045663982746191323,0.0004999999655410647,0.0005347493570297956,0.011630482040345669,0.010127462446689606,0.008572631515562534,passive,0
2.9607,rehab,small_slow,16.030474132991714,-666.6369724730496,312.4525939686585,-177.65232803634683,0.29243552620567376,-149.85439375138134,-5.1336,-0.0129,3.2574,30.517,0.3938,-13.8543,78.82014661732286,26.94806920419825,82.01022686344562,-20.561141967773438,-88.97492302788628,-41.34373982747396,-0.435333251953125,-0.10882991375309406,-0.3258234911625928,0.452024671766493,-0.0,-0.4749637179904514,-3.243,-1.12,-2.5444,-0.07751,0.03058,0.06716,0.0008830495062284172,0.0009999999310821295,0.0011441560927778482,0.00045663982746191323,0.0004999999655410647,0.0005347493570297956,0.011630482040345669,0.010127462446689606,0.008572631515562534,passive,0
2.9808,rehab,small_slow,15.9504704155106,-666.6378833904027,312.5043452310032,-177.6520354087452,0.2921831193563535,-149.85444800092273,-4.5917,-0.0026,3.07,30.4404,0.371,-16.2282,78.81321217754099,26.945655747215348,82.00531836783532,-20.553995768229168,-88.97475348578558,-41.35053846571181,-0.3809114966062036,-0.10882991375309406,-0.30753560585550743,0.4074520534939236,-0.06785074869791667,-0.4749637179904514,-3.2172,-0.9168,-2.6908,-0.06479,0.03909,0.07137,0.0008830495062284172,0.0009999999310821295,0.0011441560927778482,0.00045663982746191323,0.0004999999655410647,0.0005347493570297956,0.011630482040345669,0.010127462446689606,0.008572631515562534,passive,0
3.0004,rehab,small_slow,15.883989441148762,-666.6379556554454,312.55177349684675,-177.65186436010873,0.2920450483838974,-149.8539281144216,-4.0303,0.0,2.7437,29.7528,0.3463,-18.5678,78.80743347772277,26.9433850581103,82.0008653697401,-20.547298855251736,-88.97459242078993,-41.35676066080729,-0.32649653972965653,-0.16324487062964108,-0.26354270406288677,0.4364691840277778,0.06785074869791667,-0.339262220594618,-3.1054,-0.9916,-3.1365,-0.06367,0.01348,0.06701,0.0008830495062284172,0.0009999999310821295,0.0011441560927778482,0.00045663982746191323,0.0004999999655410647,0.0005347493570297956,0.011630482040345669,0.010127462446689606,0.008572631515562534,passive,0
3.0207,rehab,small_slow,15.791337749503546,-666.636274634634,312.62124683536706,-177.6517987921168,0.2920197173172634,-149.85251932065316,-3.3404,0.0068,2.2224,31.1023,0.3335,-21.4092,78.79934329797726,26.939877047397122,81.99453599382154,-20.53723653157552,-88.97433810763889,-41.36614481608073,-0.2720815828531095,-0.10882991375309406,-0.227823540715888,0.3414238823784722,-0.0,-0.339262220594618,-3.2075,-1.1623,-3.1895,-0.07611,0.03369,0.06618,0.0008830495062284172,0.0009999999310821295,0.0011441560927778482,0.00045663982746191323,0.0004999999655410647,0.0005347493570297956,0.011630482040345669,0.010127462446689606,0.008572631515562534,passive,0
3.0415,rehab,small_slow,15.744975134457034,-666.6350547186456,312.6554707437596,-177.65180766717978,0.2920310534221702,-149.85210654675012,-2.7378,0.0219,1.7292,35.3382,0.2975,-24.4434,78.79529140963413,26.93810264662941,81.99147668215308,-20.532251993815105,-88.97422790527344,-41.370552910698784,-0.2176666259765625,-0.10882991375309406,-0.15758174480778156,0.2715216742621528,-0.0,-0.2714114718967014,-3.2985,-1.0665,-2.6363,-0.07959,0.03836,0.06556,0.0008830495062284172,0.0009999999310821295,0.0011441560927778482,0.00045663982746191323,0.0004999999655410647,0.0005347493570297956,0.011630482040345669,0.010127462446689606,0.008572631515562534,passive,0
3.061,rehab,small_slow,15.68125258004334,-666.6340144139683,312.69766195067325,-177.6518432427425,0.29207426945773907,-149.8523599915027,-2.1324,0.028,1.2612,38.2721,0.2084,-24.7841,78.78973705933825,26.93596112846148,81.9876219494508,-20.526038275824654,-88.97409227159288,-41.37578328450521,-0.2176666259765625,-0.05441495687654703,-0.1447802250928218,0.2033657497829861,0.06785074869791667,-0.13570149739583334,-3.0033,-1.1393,-3.1153,-0.05609,0.02783,0.06487,0.0008830495062284172,0.0009999999310821295,0.0011441560927778482,0.00045663982746191323,0.0004999999655410647,0.0005347493570297956,0.011630482040345669,0.010127462446689606,0.008572631515562534,passive,0
3.081,rehab,small_slow,15.645749919922448,-666.6356242173011,312.71253342175964,-177.65221328488246,0.29239014598947266,-149.85294739754292,-1.3728,0.0247,0.7874,38.4198,0.0711,-21.4637,78.78668454614017,26.935492034005648,81.98564359457185,-20.523028903537327,-88.97404140896268,-41.37821621365017,-0.16324487062964108,-0.0,-0.10882991375309406,0.13677808973524305,-0.0,-0.06785074869791667,-3.1408,-1.2715,-3.3209,-0.07723,0.03279,0.06494,0.0008830495062284172,0.0009999999310821295,0.0011441560927778482,0.00045663982746191323,0.0004999999655410647,0.0005347493570297956,0.011630482040345669,0.010127462446689606,0.008572631515562534,passive,0
3.1008,rehab,small_slow,15.615217824469616,-666.6364657141463,312.7166065110633,-177.65327878208035,0.29333597882439105,-149.85337934283743,-0.4082,0.0209,0.2971,35.8999,-0.2247,-16.0225,78.7840467396349,26.93553282482789,81.98436548214147,-20.520299275716145,-88.97398206922743,-41.380394829644096,-0.05441495687654703,0.05441495687654703,-0.048670249410194925,0.07012261284722222,-0.0,-0.13570149739583334,-3.1183,-1.3391,-2.8318,-0.08155,0.02043,0.06364,0.0008830495062284172,0.0009999999310821295,0.0011441560927778482,0.00045663982746191323,0.0004999999655410647,0.0005347493570297956,0.011630482040345669,0.010127462446689606,0.008572631515562534,passive,0
3.1204,rehab,small_slow,15.61994453935945,-666.6347679133967,312.7135190592535,-177.65405021998,0.2940143457299721,-149.85232749552114,0.3466,0.0188,0.0064,30.0082,-0.65,-10.2062,78.78442065550549,26.935600809531635,81.98441307143409,-20.519366794162327,-88.97396511501736,-41.38106452094184,0.05441495687654703,-0.0,0.024576470403387996,0.06749471028645833,-0.0,-0.0,-3.0581,-1.2678,-2.8046,-0.07592,0.02328,0.0659,0.0008830495062284172,0.0009999999310821295,0.0011441560927778482,0.00045663982746191323,0.0004999999655410647,0.0005347493570297956,0.011630482040345669,0.010127462446689606,0.008572631515562534,passive,0
3.1404,rehab,small_slow,15.642396957258349,-666.6337847150019,312.71193902606643,-177.65429098008914,0.2942537673410833,-149.8502298395026,0.8981,0.0118,-0.1112,21.7145,-0.9056,-5.3087,78.78633782415106,26.935655197294633,81.98447425766747,-20.51913791232639,-88.97393968370226,-41.38124254014757,0.16324487062964108,-0.0,-0.0014616711304919555,-0.010782877604166666,-0.0,-0.0,-2.9034,-1.2082,-3.0367,-0.05359,0.01987,0.06204,0.0008830495062284172,0.0009999999310821295,0.0011441560927778482,0.00045663982746191323,0.0004999999655410647,0.0005347493570297956,0.011630482040345669,0.010127462446689606,0.008572631515562534,passive,0
3.1605,rehab,small_slow,15.672415386466188,-666.6331814810152,312.7113458239054,-177.6542665576532,0.29422150309481654,-149.8476735564511,1.2265,-0.0034,-0.1048,12.5419,-0.8602,-1.7785,78.78892124289334,26.935689189646503,81.98453544390084,-20.519273546006943,-88.9739481608073,-41.381217108832466,0.16324487062964108,-0.0,0.026928741152923884,-0.003161960177951389,-0.0,-0.0,-3.124,-1.1978,-2.5992,-0.05709,0.02164,0.0622,0.0008830495062284172,0.0009999999310821295,0.0011441560927778482,0.00045663982746191323,0.0004999999655410647,0.0005347493570297956,0.011630482040345669,0.010127462446689606,0.008572631515562534,passive,0
3.1806,rehab,small_slow,15.709560638747483,-666.6331643255508,312.710841001685,-177.65390407287484,0.29391203459154785,-149.84477653809816,1.3238,-0.0301,-0.0162,4.734,-0.5285,-0.0945,78.79213012091004,26.935757174350247,81.98468501024907,-20.519977145724827,-88.9739481608073,-41.380911933051216,0.10882991375309406,-0.0,-0.01355614992651609,-0.011384752061631944,-0.0,-0.0,-3.1305,-1.2416,-3.1343,-0.0695,0.0223,0.06245,0.0008830495062284172,0.0009999999310821295,0.0011441560927778482,0.00045663982746191323,0.0004999999655410647,0.0005347493570297956,0.011630482040345669,0.010127462446689606,0.008572631515562534,passive,0
3.2005,rehab,small_slow,15.7295650269621,-666.6337935251017,312.71033536758824,-177.65340525811126,0.29349624342351777,-149.84373999050376,1.2526,-0.0605,0.0074,1.0337,0.0594,-0.7039,78.79387052932589,26.935831957524364,81.98488896436031,-20.520926581488716,-88.9739481608073,-41.38021681043837,0.10882991375309406,-0.0,0.0,-0.09179009331597222,0.06785074869791667,0.06785074869791667,-3.2178,-1.2821,-2.8372,-0.07137,0.02948,0.06361,0.0008830495062284172,0.0009999999310821295,0.0011441560927778482,0.00045663982746191323,0.0004999999655410647,0.0005347493570297956,0.011630482040345669,0.010127462446689606,0.008572631515562534,passive,0
3.2209,rehab,small_slow,15.745726031481864,-666.6358802093491,312.7119930303587,-177.65223159007937,0.29248135573574535,-149.84414704675015,1.1577,-0.0587,-0.0665,1.6837,0.8167,-3.3123,78.79531180504524,26.935865949876238,81.98512011235303,-20.52280002170139,-88.97398206922743,-41.37838575575087,0.05441495687654703,-0.0,0.007022819896735768,-0.08885701497395833,-0.0,0.13570149739583334,-3.1619,-1.2507,-2.3391,-0.07669,0.00884,0.05781,0.0008830495062284172,0.0009999999310821295,0.0011441560927778482,0.00045663982746191323,0.0004999999655410647,0.0005347493570297956,0.011630482040345669,0.010127462446689606,0.008572631515562534,passive,0
3.2408,rehab,small_slow,15.764163390476492,-666.6382826337151,312.71191071959674,-177.65072641463013,0.29126335007562154,-149.84684930941245,1.2113,-0.0239,-0.2116,5.2861,1.5384,-6.7389,78.79695703487585,26.93596112846148,81.9857115792756,-20.525555080837673,-88.97401597764757,-41.37406243218316,0.10882991375309406,-0.05441495687654703,0.05494523756574876,-0.09832594129774305,-0.0,0.13570149739583334,-3.0533,-1.2728,-2.9601,-0.07351,0.0137,0.06186,0.0008830495062284172,0.0009999999310821295,0.0011441560927778482,0.00045663982746191323,0.0004999999655410647,0.0005347493570297956,0.011630482040345669,0.010127462446689606,0.008572631515562534,passive,0
3.2604,rehab,small_slow,15.78323728123832,-666.6392599509488,312.7092347471062,-177.64987215889641,0.29059566527137737,-149.84856006883288,1.3814,0.0245,-0.3911,9.869,1.9512,-9.6099,78.79862945858795,26.93610389633934,81.98635743396117,-20.527530246310764,-88.97404140896268,-41.370697021484375,0.10882991375309406,0.05441495687654703,0.014297183197323638,-0.13559129503038195,-0.0,0.20355224609375,-2.9985,-1.2728,-2.8928,-0.05377,0.02044,0.06115,0.0008830495062284172,0.0009999999310821295,0.0011441560927778482,0.00045663982746191323,0.0004999999655410647,0.0005347493570297956,0.011630482040345669,0.010127462446689606,0.008572631515562534,passive,0
3.2807,rehab,small_slow,15.822680526378308,-666.6382414130362,312.69536251703147,-177.64907251953326,0.2899961633561062,-149.85053928230664,1.728,0.0811,-0.6038,14.2552,1.9009,-11.406,78.80203549224551,26.9365389984433,81.98843096742536,-20.531200832790798,-88.97410074869792,-41.365347968207466,0.16324487062964108,-0.0,0.13596940748762376,-0.19510904947916666,-0.0,0.2714114718967014,-3.2387,-1.3632,-3.3943,-0.0891,0.03131,0.06639,0.0008830495062284172,0.0009999999310821295,0.0011441560927778482,0.00045663982746191323,0.0004999999655410647,0.0005347493570297956,0.011630482040345669,0.010127462446689606,0.008572631515562534,passive,0
3.3004,rehab,small_slow,15.855027125550789,-666.6351322871387,312.68159940520934,-177.64864180973692,0.28968806522979723,-149.85163169323704,2.0927,0.122,-0.8208,17.4122,1.2836,-12.1147,78.80478887274714,26.936742952554532,81.99066766417853,-20.534286499023438,-88.97414313422308,-41.36153327094184,0.16324487062964108,0.05441495687654703,0.15193901439704519,-0.18068101671006945,-0.06785074869791667,0.2714114718967014,-3.2051,-1.3663,-3.6019,-0.08009,0.02329,0.06252,0.0008830495062284172,0.0009999999310821295,0.0011441560927778482,0.00045663982746191323,0.0004999999655410647,0.0005347493570297956,0.011630482040345669,0.010127462446689606,0.008572631515562534,passive,0
3.3207,rehab,small_slow,15.91295606870886,-666.630113750052,312.6565485682209,-177.64805908212344,0.2892545615672283,-149.8528634809403,2.5296,0.1383,-1.1124,19.3591,0.2744,-12.3607,78.8097313607093,26.93723244242149,81.99446121064743,-20.53948296440972,-88.97423638237846,-41.35541280110677,0.2176666259765625,-0.0,0.16085860752823328,-0.2567799886067708,-0.0,0.20355224609375,-3.2251,-1.1803,-2.8922,-0.06698,0.02643,0.06237,0.0008830495062284172,0.0009999999310821295,0.0011441560927778482,0.00045663982746191323,0.0004999999655410647,0.0005347493570297956,0.011630482040345669,0.010127462446689606,0.008572631515562534,passive,0
3.3407,rehab,small_slow,15.956901150722521,-666.6276170976938,312.63836691613113,-177.64774046725896,0.2890050138261154,-149.85341696630542,2.8756,0.1301,-1.3585,20.5906,-0.6465,-12.5389,78.81350451176709,26.93776272311069,81.99689506304146,-20.542984008789062,-88.97432115342882,-41.3511233859592,0.2720815828531095,0.05441495687654703,0.14402559488126546,-0.20463731553819445,0.06785074869791667,0.2714114718967014,-3.0089,-1.3008,-3.4605,-0.0651,0.00477,0.0629,0.0008830495062284172,0.0009999999310821295,0.0011441560927778482,0.00045663982746191323,0.0004999999655410647,0.0005347493570297956,0.011630482040345669,0.010127462446689606,0.008572631515562534,passive,0
3.3606,rehab,small_slow,16.029823708427372,-666.6251057488596,312.6055656789386,-177.64752873874855,0.28886984428180024,-149.85284803555035,3.1993,0.0986,-1.5855,20.7559,-1.3288,-12.2241,78.81978629839303,26.939034037070698,82.0006002293955,-20.54838392469618,-88.97442287868924,-41.34546915690104,0.2720815828531095,0.05441495687654703,0.1544272545540687,-0.2308230929904514,-0.06785074869791667,0.13570149739583334,-3.1943,-1.2812,-3.4414,-0.06795,0.01642,0.07265,0.0008830495062284172,0.0009999999310821295,0.0011441560927778482,0.00045663982746191323,0.0004999999655410647,0.0005347493570297956,0.011630482040345669,0.010127462446689606,0.008572631515562534,passive,0
3.3806,rehab,small_slow,16.081626109831994,-666.6245718983315,312.5797194488168,-177.64755731583594,0.28888621876690357,-149.85193900727978,3.563,0.0546,-1.7986,19.686,-1.6631,-11.2627,78.82427328884012,26.94024416479734,82.00310206649327,-20.552173190646702,-88.97451612684462,-41.34193420410156,0.2720815828531095,0.05441495687654703,0.16546797044206374,-0.2605014377170139,-0.0,0.2714114718967014,-3.0153,-1.2341,-3.0991,-0.06986,0.0257,0.06,0.0008830495062284172,0.0009999999310821295,0.0011441560927778482,0.00045663982746191323,0.0004999999655410647,0.0005347493570297956,0.011630482040345669,0.010127462446689606,0.008572631515562534,passive,0
3.4009,rehab,small_slow,16.168855965854004,-666.6248706403437,312.5326573406794,-177.64791674935117,0.2892536815492632,-149.85170910236786,4.0691,0.0125,-2.0554,18.8559,-1.7134,-10.3117,78.83184678483717,26.94265082330987,82.00718794718827,-20.558378431532116,-88.9746602376302,-41.33466084798177,0.2720815828531095,0.10882991375309406,0.18982009132309716,-0.2724456787109375,-0.0,0.339262220594618,-3.177,-1.3012,-2.769,-0.07399,0.02494,0.06355,0.0008830495062284172,0.0009999999310821295,0.0011441560927778482,0.00045663982746191323,0.0004999999655410647,0.0005347493570297956,0.011630482040345669,0.010127462446689606,0.008572631515562534,passive,0
3.4204,rehab,small_slow,16.2516034160726,-666.6247567906979,312.4879750264997,-177.64825513436244,0.28955697914166795,-149.85214487194952,4.4749,-0.0115,-2.2523,17.2061,-1.5158,-9.0214,78.83903276802289,26.944880721592668,82.01117185082767,-20.564371744791668,-88.97484673394096,-41.327107747395836,0.3809114966062036,0.16324487062964108,0.2139818550336479,-0.3128136528862847,-0.0,0.4071129692925347,-3.1918,-1.1825,-2.8848,-0.07007,0.02677,0.06559,0.0008830495062284172,0.0009999999310821295,0.0011441560927778482,0.00045663982746191323,0.0004999999655410647,0.0005347493570297956,0.011630482040345669,0.010127462446689606,0.008572631515562534,passive,0
3.4409,rehab,small_slow,16.326390801504477,-666.6243714920565,312.44938325048855,-177.6485193347647,0.2898082594015131,-149.85201698935487,4.8462,-0.0291,-2.4366,15.4854,-1.116,-7.9953,78.84551850876005,26.94677749482712,82.0146662646001,-20.569593641493054,-88.97499084472656,-41.320809258355034,0.3809114966062036,0.16324487062964108,0.22557324702196782,-0.3163231743706597,-0.06785074869791667,0.4071129692925347,-3.0688,-1.2456,-3.1469,-0.06843,0.01703,0.06317,0.0008830495062284172,0.0009999999310821295,0.0011441560927778482,0.00045663982746191323,0.0004999999655410647,0.0005347493570297956,0.011630482040345669,0.010127462446689606,0.008572631515562534,passive,0
3.4604,rehab,small_slow,16.45372892840729,-666.6252354611569,312.3877261885525,-177.64896419959328,0.2902059737539931,-149.85098683530055,5.0591,-0.0449,-2.5654,14.2078,-0.6609,-7.645,78.85658641852955,26.950033962136448,82.01988748984762,-20.577782524956596,-88.97523668077257,-41.31086561414931,0.489748208829672,0.16324487062964108,0.2159330160310953,-0.3926171196831597,-0.0,0.4749637179904514,-3.0303,-1.2415,-2.7279,-0.07028,0.01646,0.05791,0.0008830495062284172,0.0009999999310821295,0.0011441560927778482,0.00045663982746191323,0.0004999999655410647,0.0005347493570297956,0.011630482040345669,0.010127462446689606,0.008572631515562534,passive,0
3.481,rehab,small_slow,16.54400912558849,-666.6259981942954,312.34616796989945,-177.64901898045656,0.2902456006301209,-149.85033215443707,5.2548,-0.0579,-2.6947,12.528,-0.1582,-7.5163,78.86443865181195,26.952223069597,82.02353826843866,-20.583775838216145,-88.97542317708333,-41.3037363688151,0.489748208829672,0.16324487062964108,0.2363080317431157,-0.3939395480685764,-0.0,0.4071129692925347,-3.0573,-1.2476,-2.7085,-0.07797,0.01795,0.05736,0.0008830495062284172,0.0009999999310821295,0.0011441560927778482,0.00045663982746191323,0.0004999999655410647,0.0005347493570297956,0.011630482040345669,0.010127462446689606,0.008572631515562534,passive,0
3.5005,rehab,small_slow,16.675681720796824,-666.6274047050699,312.2802571349011,-177.64900626103267,0.2902256459905459,-149.8501527239626,5.5278,-0.0661,-2.8476,12.3335,0.2305,-8.0096,78.87590087286317,26.95566989407681,82.02941214684212,-20.593465169270832,-88.97571139865451,-41.29256354437934,0.544163165706219,0.16324487062964108,0.22823824740872525,-0.4366726345486111,-0.0,0.4749637179904514,-3.2897,-1.2548,-2.8888,-0.09672,0.02552,0.06077,0.0008830495062284172,0.0009999999310821295,0.0011441560927778482,0.00045663982746191323,0.0004999999655410647,0.0005347493570297956,0.011630482040345669,0.010127462446689606,0.008572631515562534,passive,0
3.5205,rehab,small_slow,16.759187252291863,-666.6287548153493,312.234438979037,-177.64910583367165,0.2903065923297155,-149.8507957685546,5.6739,-0.0593,-2.9392,13.3733,0.552,-8.6158,78.88318203463413,26.958110544941214,82.03337565507039,-20.599984063042534,-88.97591484917534,-41.28471374511719,0.435333251953125,0.16324487062964108,0.2640865816928373,-0.3997124565972222,-0.0,0.5428229437934028,-3.1305,-1.1994,-2.8546,-0.07543,0.02425,0.05926,0.0008830495062284172,0.0009999999310821295,0.0011441560927778482,0.00045663982746191323,0.0004999999655410647,0.0005347493570297956,0.011630482040345669,0.010127462446689606,0.008572631515562534,passive,0
3.5409,rehab,small_slow,16.88753800942292,-666.6306716031842,312.1623994760864,-177.6491401007195,0.2902753896525063,-149.85200300206816,6.1292,-0.0399,-3.2226,15.5226,0.7745,-9.4755,78.89437911534073,26.96189049446937,82.03976621722231,-20.61052958170573,-88.97627088758681,-41.272430419921875,0.489748208829672,0.16324487062964108,0.28255122722965653,-0.4453277587890625,-0.0,0.4749637179904514,-3.3488,-1.1448,-2.4089,-0.1108,0.03951,0.0618,0.0008830495062284172,0.0009999999310821295,0.0011441560927778482,0.00045663982746191323,0.0004999999655410647,0.0005347493570297956,0.011630482040345669,0.010127462446689606,0.008572631515562534,passive,0
3.5604,rehab,small_slow,16.98297980750828,-666.6316517959169,312.10844562731404,-177.6494635591165,0.2905181521771552,-149.85231843273985,6.3758,-0.0164,-3.4082,15.9673,0.712,-9.5812,78.9026936446086,26.96471865814511,82.04440957248801,-20.617862277560764,-88.97651672363281,-41.263885498046875,0.489748208829672,0.16324487062964108,0.2835166100228187,-0.4446580674913194,-0.0,0.5428229437934028,-3.1167,-1.1556,-2.8938,-0.07157,0.02133,0.0646,0.0008830495062284172,0.0009999999310821295,0.0011441560927778482,0.00045663982746191323,0.0004999999655410647,0.0005347493570297956,0.011630482040345669,0.010127462446689606,0.008572631515562534,passive,0
3.5808,rehab,small_slow,17.146932134518394,-666.6315526529609,312.02667456558544,-177.64962353493394,0.2905599179828329,-149.85148082135498,6.6872,0.0037,-3.6127,15.102,0.3237,-9.4423,78.9169432385133,26.968804538840114,82.05192868072207,-20.629730224609375,-88.97692362467448,-41.2506103515625,0.5985781225827661,0.16324487062964108,0.3344643470084313,-0.4763539632161458,-0.06785074869791667,0.5428229437934028,-3.0,-1.1621,-2.3033,-0.06285,0.0099,0.06383,0.0008830495062284172,0.0009999999310821295,0.0011441560927778482,0.00045663982746191323,0.0004999999655410647,0.0005347493570297956,0.011630482040345669,0.010127462446689606,0.008572631515562534,passive,0
3.6004,rehab,small_slow,17.265744761664575,-666.6303924068827,311.96708450147827,-177.64993224201524,0.2908147419924469,-149.85063480182228,7.0466,0.0104,-3.7919,13.9772,-0.1756,-9.1702,78.92724292113049,26.97168029180848,82.05746263560683,-20.638029310438366,-88.97716946072049,-41.241251627604164,0.6529998779296875,0.10882991375309406,0.3544926407313583,-0.5068376329210069,-0.06785074869791667,0.6106736924913194,-3.1927,-1.2205,-2.544,-0.08154,0.01887,0.06281,0.0008830495062284172,0.0009999999310821295,0.0011441560927778482,0.00045663982746191323,0.0004999999655410647,0.0005347493570297956,0.011630482040345669,0.010127462446689606,0.008572631515562534,passive,0
