t,trajectory_type,trajectory_variant,x,y,z,rx,ry,rz,vx,vy,vz,ax,ay,az,j1,j2,j3,j4,j5,j6,dj1,dj2,dj3,dj4,dj5,dj6,fx,fy,fz,tx,ty,tz,Mx,My,Mz,Bx,By,Bz,Kx,Ky,Kz,mode,comfort
0.0003,rehab,safe_midrange_fast,0.0,84.44167305172583,30.04856328104243,85.86290487717315,-27.980813028724935,-89.09363431310047,0.0,-0.2586,-0.2228,0.0,2.312,2.0022,0.0,7.115e-321,nan,0.0,3.5e-323,8.792833121417e-312,0.0,3.512700564088504e-303,0.0,5.0,0.06581263095880595,24.35,0.0756,-0.3416,0.2755,0.01388,-0.02206,-0.0075,0.0009999999310821295,0.0009095495333895087,0.001110862591303885,0.0004999999655410647,0.00046593454317189753,0.00052916060667485,0.009999999776482582,0.011674760840833187,0.008646746166050434,passive,0
0.0207,rehab,safe_midrange_fast,0.0,84.43720216215495,30.044708919162623,85.85978761256527,-27.973716039949448,-89.09350295624714,0.0,-0.2286,-0.197,0.0,2.3269,2.0112,0.0,7.115e-321,nan,0.0,3.5e-323,8.792833121496e-312,0.0,3.512700564088504e-303,0.0,5.0,0.05289117058666875,24.35,0.1104,-0.396,-0.3991,0.02227,-0.02098,-0.00416,0.0009999999310821295,0.0009095495333895087,0.001110862591303885,0.0004999999655410647,0.00046593454317189753,0.00052916060667485,0.009999999776482582,0.011674760840833187,0.008646746166050434,passive,0
0.0408,rehab,safe_midrange_fast,0.0,84.4322112911187,30.040407712048584,85.85630556215393,-27.965792826070576,-89.09335633085043,0.0,-0.1722,-0.1484,0.0,2.3041,1.9852,0.0,7.115e-321,nan,0.0,3.5e-323,8.792833121615e-312,0.0,3.512700564088504e-303,0.0,5.0,0.03619155669479907,24.35,0.0258,-0.1582,0.4144,0.03537,-0.01107,-0.00395,0.0009999999310821295,0.0009095495333895087,0.001110862591303885,0.0004999999655410647,0.00046593454317189753,0.00052916060667485,0.009999999776482582,0.011674760840833187,0.008646746166050434,passive,0
0.0607,rehab,safe_midrange_fast,0.0,84.42986477236956,30.038385969240302,85.85466761848775,-27.9620673323259,-89.09328739632855,0.0,-0.1226,-0.1057,0.0,2.1766,1.8715,0.0,7.115e-321,nan,0.0,3.5e-323,8.792833121694e-312,0.0,3.512700564088504e-303,0.0,5.0,0.026858477536246362,24.35,0.052,-0.3361,0.0086,0.02335,-0.01678,0.00177,0.0009999999310821295,0.0009095495333895087,0.001110862591303885,0.0004999999655410647,0.00046593454317189753,0.00052916060667485,0.009999999776482582,0.011674760840833187,0.008646746166050434,passive,0
0.0805,rehab,safe_midrange_fast,0.0,84.42753679990756,30.03638053576109,85.85304210539971,-27.958371095396934,-89.0932190086651,0.0,-0.0801,-0.069,0.0,1.9199,1.649,0.0,7.115e-321,nan,0.0,3.5e-323,8.792833121812e-312,0.0,3.512700564088504e-303,0.0,5.0,0.015558855580168805,24.35,-0.092,-0.2482,0.8918,0.01429,-0.01413,-0.0042,0.0009999999310821295,0.0009095495333895087,0.001110862591303885,0.0004999999655410647,0.00046593454317189753,0.00052916060667485,0.009999999776482582,0.011674760840833187,0.008646746166050434,passive,0
0.1009,rehab,safe_midrange_fast,0.0,84.42661643603893,30.035587778335564,85.85239931725712,-27.956909736402206,-89.09319197215787,0.0,-0.0471,-0.0406,0.0,1.5758,1.354,0.0,7.115e-321,nan,0.0,3.5e-323,8.79283312189e-312,0.0,3.512700564088504e-303,0.0,5.0,0.009825772891671537,24.35,0.0898,-0.2761,0.3357,0.03717,-0.00578,-0.00422,0.0009999999310821295,0.0009095495333895087,0.001110862591303885,0.0004999999655410647,0.00046593454317189753,0.00052916060667485,0.009999999776482582,0.011674760840833187,0.008646746166050434,passive,0
0.1208,rehab,safe_midrange_fast,0.0,84.42590402476007,30.034974176602677,85.85190170947885,-27.955778545562772,-89.09317104465853,0.0,-0.0209,-0.0181,0.0,1.1045,0.9511,0.0,7.115e-321,nan,0.0,3.5e-323,8.79283312201e-312,0.0,3.512700564088504e-303,0.0,5.0,0.003926147769534357,24.35,-0.1012,-0.3883,0.5133,0.00816,-0.01332,-0.00502,0.0009999999310821295,0.0009095495333895087,0.001110862591303885,0.0004999999655410647,0.00046593454317189753,0.00052916060667485,0.009999999776482582,0.011674760840833187,0.008646746166050434,passive,0
0.1411,rehab,safe_midrange_fast,0.0,84.42571394729151,30.034810467574857,85.85176893531191,-27.95547673112674,-89.09316546105316,0.0,-0.0027,-0.0025,0.0,0.6063,0.526,0.0,7.115e-321,nan,0.0,3.5e-323,8.79283312209e-312,0.0,3.512700564088504e-303,0.0,5.0,0.0017080410657208903,24.35,-0.1807,-0.2569,0.2301,0.01028,-0.00431,0.00277,0.0009999999310821295,0.0009095495333895087,0.001110862591303885,0.0004999999655410647,0.00046593454317189753,0.00052916060667485,0.009999999776482582,0.011674760840833187,0.008646746166050434,passive,0
0.1605,rehab,safe_midrange_fast,0.0,84.42564419764791,30.03475039447961,85.85172021247261,-27.95536597886777,-89.09316341213149,0.0,0.0021,0.0017,0.0,0.1423,0.1351,0.0,7.115e-321,nan,0.0,3.5e-323,8.79283312217e-312,0.0,3.512700564088504e-303,0.0,5.0,0.0005414652426033356,24.35,0.0046,-0.2537,0.1321,0.03941,-0.0118,0.00209,0.0009999999310821295,0.0009095495333895087,0.001110862591303885,0.0004999999655410647,0.00046593454317189753,0.00052916060667485,0.009999999776482582,0.011674760840833187,0.008646746166050434,passive,0
0.1808,rehab,safe_midrange_fast,0.0,84.42562327002675,30.03473237025898,85.8517055936253,-27.9553327488254,-89.09316279737519,0.0,0.0007,0.0009,0.0,-0.4715,-0.3765,0.0,7.115e-321,nan,0.0,3.5e-323,8.792833122287e-312,0.0,3.512700564088504e-303,0.0,5.0,2.4192357852162353e-05,24.35,-0.3202,-0.1587,0.3263,0.00714,-0.00441,0.00029,0.0009999999310821295,0.0009095495333895087,0.001110862591303885,0.0004999999655410647,0.00046593454317189753,0.00052916060667485,0.009999999776482582,0.011674760840833187,0.008646746166050434,passive,0
0.2007,rehab,safe_midrange_fast,0.0,84.42561191117356,30.034723533283145,85.85169905123672,-27.955317050231287,-89.09316245608228,0.0,-0.0182,-0.0145,0.0,-1.0782,-0.8793,0.0,7.115e-321,nan,0.0,3.5e-323,8.792833122366e-312,0.0,3.512700564088504e-303,0.0,5.0,0.0007535618506047073,24.35,-0.1592,-0.2612,-0.0838,0.018,-0.00631,0.00012,0.0009999999310821295,0.0009095495333895087,0.001110862591303885,0.0004999999655410647,0.00046593454317189753,0.00052916060667485,0.009999999776482582,0.011674760840833187,0.008646746166050434,passive,0
0.2206,rehab,safe_midrange_fast,0.0,84.42520253270942,30.03439788450369,85.85145071531876,-27.95473156279528,-89.0931501567787,0.0,-0.0389,-0.0314,0.0,-1.6271,-1.3339,0.0,7.115e-321,nan,0.0,3.5e-323,8.792833122484e-312,0.0,3.512700564088504e-303,0.0,5.0,0.005622208824274518,24.35,0.0025,-0.152,0.3462,0.04212,-0.00102,0.00403,0.0009999999310821295,0.0009095495333895087,0.001110862591303885,0.0004999999655410647,0.00046593454317189753,0.00052916060667485,0.009999999776482582,0.011674760840833187,0.008646746166050434,passive,0
0.2404,rehab,safe_midrange_fast,0.0,84.42420323439435,30.033590228449267,85.85082659775078,-27.95327171778964,-89.09312026578526,0.0,-0.0736,-0.0599,0.0,-2.191,-1.8003,0.0,7.115e-321,nan,0.0,3.5e-323,8.792833122583e-312,0.0,3.512700564088504e-303,0.0,5.0,0.013179127990240846,24.35,0.2225,-0.1896,0.3246,0.04782,-0.02045,-0.00301,0.0009999999310821295,0.0009095495333895087,0.001110862591303885,0.0004999999655410647,0.00046593454317189753,0.00052916060667485,0.009999999776482582,0.011674760840833187,0.008646746166050434,passive,0
0.2607,rehab,safe_midrange_fast,0.0,84.4217266014228,30.031573127710708,85.84925752271656,-27.94961597717242,-89.09304634766319,0.0,-0.1396,-0.1141,0.0,-2.8625,-2.3546,0.0,7.115e-321,nan,0.0,3.5e-323,8.7928331227e-312,0.0,3.512700564088504e-303,0.0,5.0,0.02644752605602206,24.35,0.1661,-0.2088,0.5302,0.03951,-0.02111,-0.00714,0.0009999999310821295,0.0009095495333895087,0.001110862591303885,0.0004999999655410647,0.00046593454317189753,0.00052916060667485,0.009999999776482582,0.011674760840833187,0.008646746166050434,passive,0
0.2813,rehab,safe_midrange_fast,0.0,84.41904880830756,30.02938374241448,85.84754804164021,-27.945641896680915,-89.09296651933116,0.0,-0.2048,-0.1677,0.0,-3.775,-3.1039,0.0,7.115e-321,nan,0.0,3.5e-323,8.79283312278e-312,0.0,3.512700564088504e-303,0.0,5.0,0.03783867695711743,24.35,-0.165,-0.3699,0.1475,0.01506,-0.006,0.00041,0.0009999999310821295,0.0009095495333895087,0.001110862591303885,0.0004999999655410647,0.00046593454317189753,0.00052916060667485,0.009999999776482582,0.011674760840833187,0.008646746166050434,passive,0
0.3007,rehab,safe_midrange_fast,0.0,84.41308809345101,30.02449804338385,85.84372144904458,-27.93676217250862,-89.09278897348946,0.0,-0.276,-0.2264,0.0,-4.7017,-3.8714,0.0,7.115e-321,nan,0.0,3.5e-323,8.7928331229e-312,0.0,3.512700564088504e-303,0.0,5.0,0.05874374983841216,24.35,-0.1134,-0.1893,0.6671,0.01434,-0.00705,-0.00329,0.0009999999310821295,0.0009095495333895087,0.001110862591303885,0.0004999999655410647,0.00046593454317189753,0.00052916060667485,0.009999999776482582,0.011674760840833187,0.008646746166050434,passive,0
0.3208,rehab,safe_midrange_fast,0.0,84.4090852212614,30.0212124311779,85.84114187253319,-27.93078453727931,-89.09266981146531,0.0,-0.369,-0.3031,0.0,-5.6912,-4.7038,0.0,7.115e-321,nan,0.0,3.5e-323,8.79283312298e-312,0.0,3.512700564088504e-303,0.0,5.0,0.07091454419552232,24.35,0.0658,-0.1311,0.2517,0.03093,-0.00356,-0.00748,0.0009999999310821295,0.0009095495333895087,0.001110862591303885,0.0004999999655410647,0.00046593454317189753,0.00052916060667485,0.009999999776482582,0.011674760840833187,0.008646746166050434,passive,0
0.3405,rehab,safe_midrange_fast,0.0,84.39662290587103,30.01097323612192,85.8330795947356,-27.912132928170028,-89.09229902252224,0.0,-0.5039,-0.4142,0.0,-6.5809,-5.4685,0.0,7.115e-321,nan,0.0,3.5e-323,8.792833123097e-312,0.0,3.512700564088504e-303,0.0,5.0,0.10376780715866502,24.35,-0.109,-0.1728,0.0599,0.03657,-0.01798,0.0061,0.0009999999310821295,0.0009095495333895087,0.001110862591303885,0.0004999999655410647,0.00046593454317189753,0.00052916060667485,0.009999999776482582,0.011674760840833187,0.008646746166050434,passive,0
0.3604,rehab,safe_midrange_fast,0.0,84.3872797743918,30.003292951339407,85.82701267857797,-27.89812317157098,-89.09202117794845,0.0,-0.6444,-0.53,0.0,-7.3827,-6.1663,0.0,7.115e-321,nan,0.0,3.5e-323,8.792833123176e-312,0.0,3.512700564088504e-303,0.0,5.0,0.12534122253794697,24.35,-0.2673,-0.1216,0.6498,0.01561,-0.00583,0.004,0.0009999999310821295,0.0009095495333895087,0.001110862591303885,0.0004999999655410647,0.00046593454317189753,0.00052916060667485,0.009999999776482582,0.011674760840833187,0.008646746166050434,passive,0
0.3805,rehab,safe_midrange_fast,0.0,84.37611877582592,29.9941179905913,85.81974555861603,-27.881367386699452,-89.0916893901349,0.0,-0.8089,-0.6658,0.0,-8.6298,-7.1649,0.0,7.115e-321,nan,0.0,3.5e-323,8.792833123255e-312,0.0,3.512700564088504e-303,0.0,5.0,0.14895108832955548,24.35,-0.0225,-0.2031,0.2515,0.03334,-0.00457,0.00388,0.0009999999310821295,0.0009095495333895087,0.001110862591303885,0.0004999999655410647,0.00046593454317189753,0.00052916060667485,0.009999999776482582,0.011674760840833187,0.008646746166050434,passive,0
0.4005,rehab,safe_midrange_fast,0.0,84.3556152481529,29.977268253400673,85.80634795000387,-27.850543560117927,-89.09108013809286,0.0,-0.9869,-0.8143,0.0,-9.7467,-7.9711,0.0,7.115e-321,nan,0.0,3.5e-323,8.792833123374e-312,0.0,3.512700564088504e-303,0.0,5.0,0.18818422678739258,24.35,0.0834,-0.0364,0.5862,0.04552,-0.01678,-0.00216,0.0009999999310821295,0.0009095495333895087,0.001110862591303885,0.0004999999655410647,0.00046593454317189753,0.00052916060667485,0.009999999776482582,0.011674760840833187,0.008646746166050434,passive,0
0.4205,rehab,safe_midrange_fast,0.0,84.3347332134011,29.96012006455115,85.79264758420909,-27.819107633827787,-89.09045993486274,0.0,-1.18,-0.973,0.0,-10.1811,-8.1568,0.0,7.115e-321,nan,0.0,3.5e-323,8.792833123473e-312,0.0,3.512700564088504e-303,0.0,5.0,0.22437864840259306,24.35,-0.0772,-0.207,0.1797,0.03107,-0.01376,0.00126,0.0009999999310821295,0.0009095495333895087,0.001110862591303885,0.0004999999655410647,0.00046593454317189753,0.00052916060667485,0.009999999776482582,0.011674760840833187,0.008646746166050434,passive,0
0.4404,rehab,safe_midrange_fast,0.0,84.30464758851592,29.93544323015956,85.77282006332807,-27.773756582502173,-89.0895668360506,0.0,-1.3698,-1.1262,0.0,-10.1838,-7.9289,0.0,7.115e-321,nan,0.0,3.5e-323,8.792833123596e-312,0.0,3.512700564088504e-303,0.0,5.0,0.272012114210291,24.35,-0.0812,-0.1558,-0.2515,0.02475,-0.01357,0.00933,0.0009999999310821295,0.0009095495333895087,0.001110862591303885,0.0004999999655410647,0.00046593454317189753,0.00052916060667485,0.009999999776482582,0.011674760840833187,0.008646746166050434,passive,0
0.4608,rehab,safe_midrange_fast,0.0,84.28129116004122,29.916312864521956,85.75735940660724,-27.738507879085827,-89.08887383160621,0.0,-1.6165,-1.3163,0.0,-10.2745,-7.6474,0.0,7.115e-321,nan,0.0,3.5e-323,8.792833123675e-312,0.0,3.512700564088504e-303,0.0,5.0,0.3063133053430455,24.35,-0.087,-0.2264,-0.085,0.01715,-0.02644,0.0043,0.0009999999310821295,0.0009095495333895087,0.001110862591303885,0.0004999999655410647,0.00046593454317189753,0.00052916060667485,0.009999999776482582,0.011674760840833187,0.008646746166050434,passive,0
0.4805,rehab,safe_midrange_fast,0.0,84.24090364852292,29.88337471559318,85.7306072058445,-27.6776794786736,-89.08767530953888,0.0,-1.8731,-1.5012,0.0,-10.4434,-7.329,0.0,7.115e-321,nan,0.0,3.5e-323,8.79283312379e-312,0.0,3.512700564088504e-303,0.0,5.0,0.3601319136885502,24.35,-0.03,-0.0371,0.3099,0.04778,-0.01303,0.00652,0.0009999999310821295,0.0009095495333895087,0.001110862591303885,0.0004999999655410647,0.00046593454317189753,0.00052916060667485,0.009999999776482582,0.011674760840833187,0.008646746166050434,passive,0
0.5008,rehab,safe_midrange_fast,0.0,84.21017518333623,29.858664930234,85.71056837554853,-27.632064172484057,-89.08676088451395,0.0,-2.023,-1.5976,0.0,-10.7323,-7.0308,0.0,7.115e-321,nan,0.0,3.5e-323,8.79283312387e-312,0.0,3.512700564088504e-303,0.0,5.0,0.3961105790742698,24.35,-0.1398,-0.2094,0.015,0.0418,-0.01675,0.00444,0.0009999999310821295,0.0009095495333895087,0.001110862591303885,0.0004999999655410647,0.00046593454317189753,0.00052916060667485,0.009999999776482582,0.011674760840833187,0.008646746166050434,passive,0
0.5208,rehab,safe_midrange_fast,0.0,84.1579909044978,29.817711526986027,85.67762520226931,-27.55669394530433,-89.08519968334826,0.0,-2.2045,-1.71,0.0,-11.1964,-6.8754,0.0,7.115e-321,nan,0.0,3.5e-323,8.792833123986e-312,0.0,3.512700564088504e-303,0.0,5.0,0.4499174995030124,24.35,-0.2551,-0.2068,-0.1767,0.02552,-0.01267,0.00548,0.0009999999310821295,0.0009095495333895087,0.001110862591303885,0.0004999999655410647,0.00046593454317189753,0.00052916060667485,0.009999999776482582,0.011674760840833187,0.008646746166050434,passive,0
0.5407,rehab,safe_midrange_fast,0.0,84.1191172979847,29.787990337484175,85.65392988639921,-27.502178218790387,-89.08403031712339,0.0,-2.4278,-1.8443,0.0,-11.1053,-6.413,0.0,7.115e-321,nan,0.0,3.5e-323,8.792833124065e-312,0.0,3.512700564088504e-303,0.0,5.0,0.48396291504018507,24.35,-0.0021,-0.1892,-0.013,0.04486,-0.01508,0.00446,0.0009999999310821295,0.0009095495333895087,0.001110862591303885,0.0004999999655410647,0.00046593454317189753,0.00052916060667485,0.009999999776482582,0.011674760840833187,0.008646746166050434,passive,0
0.5606,rehab,safe_midrange_fast,0.0,84.05505351042046,29.740145496697743,85.61600464319184,-27.41459409203889,-89.08209468287568,0.0,-2.6777,-1.9845,0.0,-11.5534,-6.3793,0.0,7.115e-321,nan,0.0,3.5e-323,8.792833124184e-312,0.0,3.512700564088504e-303,0.0,5.0,0.5313126934117735,24.35,-0.0627,-0.1066,-0.0101,0.03889,-0.01557,0.0041,0.0009999999310821295,0.0009095495333895087,0.001110862591303885,0.0004999999655410647,0.00046593454317189753,0.00052916060667485,0.009999999776482582,0.011674760840833187,0.008646746166050434,passive,0
0.5808,rehab,safe_midrange_fast,0.0,84.00874434862695,29.70628908563308,85.5892559822909,-27.35267585075069,-89.08069044190604,0.0,-2.9483,-2.1363,0.0,-13.0791,-7.1363,0.0,7.115e-321,nan,0.0,3.5e-323,8.792833124263e-312,0.0,3.512700564088504e-303,0.0,5.0,0.560391836152942,24.35,-0.1871,-0.1813,0.4495,0.02727,-0.02541,0.00219,0.0009999999310821295,0.0009095495333895087,0.001110862591303885,0.0004999999655410647,0.00046593454317189753,0.00052916060667485,0.009999999776482582,0.011674760840833187,0.008646746166050434,passive,0
0.6006,rehab,safe_midrange_fast,0.0,83.95974373155155,29.671036467751023,85.56143477691771,-27.288210882494923,-89.07920094003457,0.0,-3.1914,-2.2653,0.0,-12.9494,-6.8693,0.0,7.115e-321,nan,0.0,3.5e-323,8.79283312434e-312,0.0,3.512700564088504e-303,0.0,5.0,0.5874771411575176,24.35,-0.3176,-0.2314,0.1638,0.03284,-0.0266,0.00537,0.0009999999310821295,0.0009095495333895087,0.001110862591303885,0.0004999999655410647,0.00046593454317189753,0.00052916060667485,0.009999999776482582,0.011674760840833187,0.008646746166050434,passive,0
0.6207,rehab,safe_midrange_fast,0.0,83.88154987026945,29.61585933556357,85.51788219145804,-27.187257766602283,-89.07681768496194,0.0,-3.4029,-2.37,0.0,-10.8274,-5.2907,0.0,7.115e-321,nan,0.0,3.5e-323,8.79283312446e-312,0.0,3.512700564088504e-303,0.0,5.0,0.6243631908091731,24.35,-0.3434,-0.1289,0.5665,0.02766,-0.01593,0.00503,0.0009999999310821295,0.0009095495333895087,0.001110862591303885,0.0004999999655410647,0.00046593454317189753,0.00052916060667485,0.009999999776482582,0.011674760840833187,0.008646746166050434,passive,0
0.6407,rehab,safe_midrange_fast,0.0,83.81243375740344,29.568083032510085,85.48011039616007,-27.09974092306657,-89.074705714163,0.0,-3.6061,-2.4662,0.0,-8.0649,-3.3305,0.0,7.115e-321,nan,0.0,3.5e-323,8.79283312456e-312,0.0,3.512700564088504e-303,0.0,5.0,0.6516706433408522,24.35,-0.2572,-0.1104,0.5233,0.04585,-0.01988,0.00523,0.0009999999310821295,0.0009095495333895087,0.001110862591303885,0.0004999999655410647,0.00046593454317189753,0.00052916060667485,0.009999999776482582,0.011674760840833187,0.008646746166050434,passive,0
0.6608,rehab,safe_midrange_fast,0.0,83.72522137192567,29.509015670465374,85.43327815706643,-26.991352531747907,-89.07203471726073,0.0,-3.9302,-2.6326,0.0,-5.3086,-1.3976,0.0,7.115e-321,nan,0.0,3.5e-323,8.79283312468e-312,0.0,3.512700564088504e-303,0.0,5.0,0.6803242867277941,24.35,-0.2253,-0.178,-0.4333,0.05455,-0.01867,0.01284,0.0009999999310821295,0.0009095495333895087,0.001110862591303885,0.0004999999655410647,0.00046593454317189753,0.00052916060667485,0.009999999776482582,0.011674760840833187,0.008646746166050434,passive,0
0.6806,rehab,safe_midrange_fast,0.0,83.66474274109106,29.46880636101826,85.40129161271177,-26.917427816786248,-89.0701789721535,0.0,-3.9589,-2.6156,0.0,-3.2275,0.0747,0.0,7.115e-321,nan,0.0,3.5e-323,8.792833124757e-312,0.0,3.512700564088504e-303,0.0,5.0,0.6969348739416364,24.35,-0.2434,-0.1252,1.041,0.03826,-0.01937,0.00442,0.0009999999310821295,0.0009095495333895087,0.001110862591303885,0.0004999999655410647,0.00046593454317189753,0.00052916060667485,0.009999999776482582,0.011674760840833187,0.008646746166050434,passive,0
0.7008,rehab,safe_midrange_fast,0.0,83.57092361357513,29.407594000505448,85.35240899987802,-26.804646107422965,-89.0672950642912,0.0,-3.8542,-2.4979,0.0,-2.0453,1.025,0.0,7.115e-321,nan,0.0,3.5e-323,8.792833124876e-312,0.0,3.512700564088504e-303,0.0,5.0,0.71811853634892,24.35,-0.3139,-0.1486,0.1183,0.0453,-0.00486,0.00864,0.0009999999310821295,0.0009095495333895087,0.001110862591303885,0.0004999999655410647,0.00046593454317189753,0.00052916060667485,0.009999999776482582,0.011674760840833187,0.008646746166050434,passive,0
0.7205,rehab,safe_midrange_fast,0.0,83.50654600289405,29.366386754706685,85.31936659566007,-26.72854948921272,-89.06531277025778,0.0,-3.8673,-2.4566,0.0,-1.9983,1.2816,0.0,7.115e-321,nan,0.0,3.5e-323,8.792833124955e-312,0.0,3.512700564088504e-303,0.0,5.0,0.7297571058618278,24.35,-0.3488,-0.1578,0.8324,0.04161,-0.0152,0.01155,0.0009999999310821295,0.0009095495333895087,0.001110862591303885,0.0004999999655410647,0.00046593454317189753,0.00052916060667485,0.009999999776482582,0.011674760840833187,0.008646746166050434,passive,0
0.7407,rehab,safe_midrange_fast,0.0,83.40763680589541,29.304314243055806,85.26938478768731,-26.613652184838227,-89.06226204699986,0.0,-3.8886,-2.4215,0.0,-2.682,1.0831,0.0,7.115e-321,nan,0.0,3.5e-323,8.792833125073e-312,0.0,3.512700564088504e-303,0.0,5.0,0.7434983578279195,24.35,-0.4578,-0.2214,1.0766,0.03244,-0.02717,0.00683,0.0009999999310821295,0.0009095495333895087,0.001110862591303885,0.0004999999655410647,0.00046593454317189753,0.00052916060667485,0.009999999776482582,0.011674760840833187,0.008646746166050434,passive,0
0.7605,rehab,safe_midrange_fast,0.0,83.34037147706002,29.262951054760386,85.23594375922981,-26.5369108549577,-89.06018382853551,0.0,-4.0188,-2.4525,0.0,-5.0882,-0.2079,0.0,7.115e-321,nan,0.0,3.5e-323,8.79283312515e-312,0.0,3.512700564088504e-303,0.0,5.0,0.7501880350184023,24.35,-0.4045,-0.1994,0.4983,0.02942,-0.02862,0.00646,0.0009999999310821295,0.0009095495333895087,0.001110862591303885,0.0004999999655410647,0.00046593454317189753,0.00052916060667485,0.009999999776482582,0.011674760840833187,0.008646746166050434,passive,0
0.7806,rehab,safe_midrange_fast,0.0,83.2893414547427,29.23203087424246,85.2108800158739,-26.479455374843447,-89.05860531076179,0.0,-4.144,-2.4685,0.0,-7.2973,-1.5111,0.0,7.115e-321,nan,0.0,3.5e-323,8.79283312523e-312,0.0,3.512700564088504e-303,0.0,5.0,0.7539117070739405,24.35,-0.3498,-0.2116,0.8775,0.04586,-0.00902,0.00443,0.0009999999310821295,0.0009095495333895087,0.001110862591303885,0.0004999999655410647,0.00046593454317189753,0.00052916060667485,0.009999999776482582,0.011674760840833187,0.008646746166050434,passive,0
0.8008,rehab,safe_midrange_fast,0.0,83.16874767862016,29.160549892027515,85.15275216477129,-26.346362137132854,-89.0548682770744,0.0,-4.3431,-2.5255,0.0,-6.54,-1.0065,0.0,7.115e-321,nan,0.0,3.5e-323,8.79283312535e-312,0.0,3.512700564088504e-303,0.0,5.0,0.7583046518617569,24.35,-0.5692,-0.2582,0.6608,0.03525,-0.02107,0.01571,0.0009999999310821295,0.0009095495333895087,0.001110862591303885,0.0004999999655410647,0.00046593454317189753,0.00052916060667485,0.009999999776482582,0.011674760840833187,0.008646746166050434,passive,0
0.8205,rehab,safe_midrange_fast,0.0,83.099138797796,29.12032302532013,85.11995189116904,-26.27131935089403,-89.05270672659417,0.0,-4.4984,-2.5582,0.0,-5.4821,-0.3119,0.0,7.115e-321,nan,0.0,3.5e-323,8.792833125434e-312,0.0,3.512700564088504e-303,0.0,5.0,0.7581269426911124,24.35,-0.4254,-0.3785,0.6633,0.03392,-0.01111,0.00826,0.0009999999310821295,0.0009095495333895087,0.001110862591303885,0.0004999999655410647,0.00046593454317189753,0.00052916060667485,0.009999999776482582,0.011674760840833187,0.008646746166050434,passive,0
0.8405,rehab,safe_midrange_fast,0.0,82.99420331841377,29.061152474747402,85.07164861272551,-26.160800832545362,-89.04944154083674,0.0,-4.5924,-2.5558,0.0,-4.1484,0.3722,0.0,7.115e-321,nan,0.0,3.5e-323,8.792833125553e-312,0.0,3.512700564088504e-303,0.0,5.0,0.7542253772716464,24.35,-0.4478,-0.3984,0.5817,0.02757,-0.00992,0.00853,0.0009999999310821295,0.0009095495333895087,0.001110862591303885,0.0004999999655410647,0.00046593454317189753,0.00052916060667485,0.009999999776482582,0.011674760840833187,0.008646746166050434,passive,0
0.8605,rehab,safe_midrange_fast,0.0,82.9066101867816,29.01307560026055,85.0323469112659,-26.07087515688906,-89.04671026166461,0.0,-4.6848,-2.5596,0.0,-0.9747,1.8457,0.0,7.115e-321,nan,0.0,3.5e-323,8.792833125646e-312,0.0,3.512700564088504e-303,0.0,5.0,0.7492663635489235,24.35,-0.649,-0.4548,0.544,0.03463,-0.02355,0.00825,0.0009999999310821295,0.0009095495333895087,0.001110862591303885,0.0004999999655410647,0.00046593454317189753,0.00052916060667485,0.009999999776482582,0.011674760840833187,0.008646746166050434,passive,0
0.8807,rehab,safe_midrange_fast,0.0,82.80150463216314,28.95668323514213,84.98599550770297,-25.9650685064568,-89.04342897878077,0.0,-4.5135,-2.411,0.0,2.4704,3.3151,0.0,7.115e-321,nan,0.0,3.5e-323,8.792833125765e-312,0.0,3.512700564088504e-303,0.0,5.0,0.7446939860469358,24.35,-0.5023,-0.6025,0.5503,0.02853,-0.01947,0.00897,0.0009999999310821295,0.0009095495333895087,0.001110862591303885,0.0004999999655410647,0.00046593454317189753,0.00052916060667485,0.009999999776482582,0.011674760840833187,0.008646746166050434,passive,0
0.9008,rehab,safe_midrange_fast,0.0,82.73143919349651,28.919719265868334,84.95534746910887,-25.89541085875794,-89.04124085930032,0.0,-4.4757,-2.3502,0.0,4.5575,4.0309,0.0,7.115e-321,nan,0.0,3.5e-323,8.792833125844e-312,0.0,3.512700564088504e-303,0.0,5.0,0.7426530456334517,24.35,-0.5156,-0.7931,0.7832,0.02271,-0.01509,0.00477,0.0009999999310821295,0.0009095495333895087,0.001110862591303885,0.0004999999655410647,0.00046593454317189753,0.00052916060667485,0.009999999776482582,0.011674760840833187,0.008646746166050434,passive,0
0.9206,rehab,safe_midrange_fast,0.0,82.62634802252283,28.864966752239823,84.90936053185703,-25.79159752791068,-89.03796040672968,0.0,-4.5902,-2.3858,0.0,4.7265,3.6937,0.0,7.115e-321,nan,0.0,3.5e-323,8.792833125963e-312,0.0,3.512700564088504e-303,0.0,5.0,0.7410643575104543,24.35,-0.634,-0.694,0.338,0.0152,-0.00838,0.00502,0.0009999999310821295,0.0009095495333895087,0.001110862591303885,0.0004999999655410647,0.00046593454317189753,0.00052916060667485,0.009999999776482582,0.011674760840833187,0.008646746166050434,passive,0
0.9404,rehab,safe_midrange_fast,0.0,82.55629165947866,28.82878172589441,84.8784599859707,-25.722459181942366,-89.03577610389422,0.0,-4.3108,-2.2237,0.0,3.6383,2.7091,0.0,7.115e-321,nan,0.0,3.5e-323,8.79283312604e-312,0.0,3.512700564088504e-303,0.0,5.0,0.7409752414798958,24.35,-0.6553,-0.6296,0.4823,0.02308,-0.019,0.01032,0.0009999999310821295,0.0009095495333895087,0.001110862591303885,0.0004999999655410647,0.00046593454317189753,0.00052916060667485,0.009999999776482582,0.011674760840833187,0.008646746166050434,passive,0
0.9604,rehab,safe_midrange_fast,0.0,82.45121332676976,28.77473275123838,84.83134185107434,-25.618207792414402,-89.03250621739986,0.0,-4.1111,-2.113,0.0,1.672,1.3115,0.0,7.115e-321,nan,0.0,3.5e-323,8.79283312616e-312,0.0,3.512700564088504e-303,0.0,5.0,0.7422948644044979,24.35,-0.5668,-0.7398,0.5505,0.03362,-0.01805,0.00592,0.0009999999310821295,0.0009095495333895087,0.001110862591303885,0.0004999999655410647,0.00046593454317189753,0.00052916060667485,0.009999999776482582,0.011674760840833187,0.008646746166050434,passive,0
0.9807,rehab,safe_midrange_fast,0.0,82.38116501876962,28.73871474411826,84.79918697522126,-25.54797540267005,-89.03033211230286,0.0,-4.1674,-2.1364,0.0,0.2567,0.3524,0.0,7.115e-321,nan,0.0,3.5e-323,8.79283312624e-312,0.0,3.512700564088504e-303,0.0,5.0,0.7440393364354948,24.35,-0.813,-0.6607,-0.0008,0.02855,-0.02245,0.01156,0.0009999999310821295,0.0009095495333895087,0.001110862591303885,0.0004999999655410647,0.00046593454317189753,0.00052916060667485,0.009999999776482582,0.011674760840833187,0.008646746166050434,passive,0
1.001,rehab,safe_midrange_fast,0.0,82.27609895322426,28.68471411395571,84.74983535577199,-25.44152893910117,-89.0270796681535,0.0,-4.2607,-2.1806,0.0,-0.8172,-0.2523,0.0,7.115e-321,nan,0.0,3.5e-323,8.79283312636e-312,0.0,3.512700564088504e-303,0.0,5.0,0.7456665885441742,24.35,-0.806,-0.6329,0.5812,0.03245,-0.01496,0.014,0.0009999999310821295,0.0009095495333895087,0.001110862591303885,0.0004999999655410647,0.00046593454317189753,0.00052916060667485,0.009999999776482582,0.011674760840833187,0.008646746166050434,passive,0
1.0209,rehab,safe_midrange_fast,0.0,82.20606000047681,28.648867849817442,84.71640966383714,-25.370190810379164,-89.0249157830754,0.0,-4.3756,-2.2357,0.0,-4.0697,-1.9374,0.0,7.115e-321,nan,0.0,3.5e-323,8.792833126437e-312,0.0,3.512700564088504e-303,0.0,5.0,0.745887084159848,24.35,-0.6519,-0.7728,0.7712,0.03217,-0.01634,0.00943,0.0009999999310821295,0.0009095495333895087,0.001110862591303885,0.0004999999655410647,0.00046593454317189753,0.00052916060667485,0.009999999776482582,0.011674760840833187,0.008646746166050434,passive,0
1.0406,rehab,safe_midrange_fast,0.0,82.15353366718058,28.622079764892387,84.69108968370412,-25.31653134874375,-89.0232950296823,0.0,-4.4044,-2.2474,0.0,-5.4571,-2.6517,0.0,7.115e-321,nan,0.0,3.5e-323,8.792833126516e-312,0.0,3.512700564088504e-303,0.0,5.0,0.7463352856026142,24.35,-0.8426,-0.7283,-0.0643,0.03221,-0.02169,0.01514,0.0009999999310821295,0.0009095495333895087,0.001110862591303885,0.0004999999655410647,0.00046593454317189753,0.00052916060667485,0.009999999776482582,0.011674760840833187,0.008646746166050434,passive,0
1.0607,rehab,safe_midrange_fast,0.0,82.01347504626581,28.550746098490524,84.62199668634598,-25.171960434208106,-89.01898525947021,0.0,-4.4564,-2.2703,0.0,-2.4505,-1.1078,0.0,7.115e-321,nan,0.0,3.5e-323,8.792833126654e-312,0.0,3.512700564088504e-303,0.0,5.0,0.7493987973378897,24.35,-0.8614,-0.7547,0.1888,0.03594,-0.00883,0.01333,0.0009999999310821295,0.0009095495333895087,0.001110862591303885,0.0004999999655410647,0.00046593454317189753,0.00052916060667485,0.009999999776482582,0.011674760840833187,0.008646746166050434,passive,0
1.0804,rehab,safe_midrange_fast,0.0,81.94345230033927,28.51509732532471,84.5865197515667,-25.098758720678315,-89.01683745788552,0.0,-4.474,-2.2762,0.0,0.9675,0.6321,0.0,7.115e-321,nan,0.0,3.5e-323,8.792833126733e-312,0.0,3.512700564088504e-303,0.0,5.0,0.7506172553619481,24.35,-0.8789,-0.7707,0.0025,0.0255,-0.00742,0.00993,0.0009999999310821295,0.0009095495333895087,0.001110862591303885,0.0004999999655410647,0.00046593454317189753,0.00052916060667485,0.009999999776482582,0.011674760840833187,0.008646746166050434,passive,0
1.1008,rehab,safe_midrange_fast,0.0,81.83842699269267,28.461655573096376,84.53214093117904,-24.987819317884277,-89.01362455205033,0.0,-4.6017,-2.3389,0.0,3.4782,1.8925,0.0,7.115e-321,nan,0.0,3.5e-323,8.79283312685e-312,0.0,3.512700564088504e-303,0.0,5.0,0.7531641050354347,24.35,-0.9835,-0.8035,-0.2188,0.0304,-0.02485,0.01805,0.0009999999310821295,0.0009095495333895087,0.001110862591303885,0.0004999999655410647,0.00046593454317189753,0.00052916060667485,0.009999999776482582,0.011674760840833187,0.008646746166050434,passive,0
1.1208,rehab,safe_midrange_fast,0.0,81.76841630213782,28.42605148384349,84.49510950472049,-24.913101383378894,-89.01148846746534,0.0,-4.5887,-2.3304,0.0,4.4101,2.3177,0.0,7.115e-321,nan,0.0,3.5e-323,8.79283312693e-312,0.0,3.512700564088504e-303,0.0,5.0,0.754396303910752,24.35,-0.9964,-0.7636,0.0438,0.03788,-0.01825,0.01848,0.0009999999310821295,0.0009095495333895087,0.001110862591303885,0.0004999999655410647,0.00046593454317189753,0.00052916060667485,0.009999999776482582,0.011674760840833187,0.008646746166050434,passive,0
1.1405,rehab,safe_midrange_fast,0.0,81.6634100645748,28.37268583161762,84.4383883882797,-24.799886215814876,-89.00829309875895,0.0,-4.218,-2.1416,0.0,3.8877,1.9649,0.0,7.115e-321,nan,0.0,3.5e-323,8.79283312705e-312,0.0,3.512700564088504e-303,0.0,5.0,0.7569715009019741,24.35,-1.0257,-0.7906,-0.0944,0.01988,-0.02582,0.01653,0.0009999999310821295,0.0009095495333895087,0.001110862591303885,0.0004999999655410647,0.00046593454317189753,0.00052916060667485,0.009999999776482582,0.011674760840833187,0.008646746166050434,passive,0
1.1609,rehab,safe_midrange_fast,0.0,81.5934127455221,28.337138584604627,84.39978832627615,-24.723650143060986,-89.0061686792056,0.0,-4.0544,-2.0583,0.0,2.9756,1.3652,0.0,7.115e-321,nan,0.0,3.5e-323,8.79283312713e-312,0.0,3.512700564088504e-303,0.0,5.0,0.7582172345594266,24.35,-1.0106,-0.951,-0.3911,0.02549,-0.01938,0.01613,0.0009999999310821295,0.0009095495333895087,0.001110862591303885,0.0004999999655410647,0.00046593454317189753,0.00052916060667485,0.009999999776482582,0.011674760840833187,0.008646746166050434,passive,0
1.1805,rehab,safe_midrange_fast,0.0,81.48842749911748,28.283854167257985,84.34067995642441,-24.60811949908273,-89.00299090569277,0.0,-4.0638,-2.0664,0.0,1.4203,0.3966,0.0,7.115e-321,nan,0.0,3.5e-323,8.792833127247e-312,0.0,3.512700564088504e-303,0.0,5.0,0.7611455466163882,24.35,-0.9867,-0.9389,-0.2566,0.0366,-0.01241,0.01457,0.0009999999310821295,0.0009095495333895087,0.001110862591303885,0.0004999999655410647,0.00046593454317189753,0.00052916060667485,0.009999999776482582,0.011674760840833187,0.008646746166050434,passive,0
1.2008,rehab,safe_midrange_fast,0.0,81.4184442585938,28.248225044077707,84.30022772058582,-24.529943191624405,-89.00087967260116,0.0,-4.1355,-2.1112,0.0,-1.9023,-1.5068,0.0,7.115e-321,nan,0.0,3.5e-323,8.792833127326e-312,0.0,3.512700564088504e-303,0.0,5.0,0.7641450893084754,24.35,-1.1808,-0.9662,-0.2931,0.01759,-0.02225,0.01644,0.0009999999310821295,0.0009095495333895087,0.001110862591303885,0.0004999999655410647,0.00046593454317189753,0.00052916060667485,0.009999999776482582,0.011674760840833187,0.008646746166050434,passive,0
1.2208,rehab,safe_midrange_fast,0.0,81.36596034241205,28.22138283422758,84.26921687146012,-24.470517372060563,-88.99930075554795,0.0,-4.3231,-2.221,0.0,-6.1529,-3.9745,0.0,7.115e-321,nan,0.0,3.5e-323,8.792833127405e-312,0.0,3.512700564088504e-303,0.0,5.0,0.7669578546552662,24.35,-1.0297,-0.8731,0.5609,0.02713,-0.01279,0.01851,0.0009999999310821295,0.0009095495333895087,0.001110862591303885,0.0004999999655410647,0.00046593454317189753,0.00052916060667485,0.009999999776482582,0.011674760840833187,0.008646746166050434,passive,0
1.2404,rehab,safe_midrange_fast,0.0,81.24350981369031,28.158284939896514,84.19446973011674,-24.32899747454361,-88.99563235963056,0.0,-4.4036,-2.28,0.0,-7.6177,-5.0479,0.0,7.115e-321,nan,0.0,3.5e-323,8.792833127524e-312,0.0,3.512700564088504e-303,0.0,5.0,0.7733353513981897,24.35,-1.1566,-0.9262,0.2424,0.03244,-0.01582,0.01974,0.0009999999310821295,0.0009095495333895087,0.001110862591303885,0.0004999999655410647,0.00046593454317189753,0.00052916060667485,0.009999999776482582,0.011674760840833187,0.008646746166050434,passive,0
1.2607,rehab,safe_midrange_fast,0.0,81.19103646137951,28.13107598492941,84.16145667757463,-24.26719834120742,-88.99406661177899,0.0,-4.4716,-2.3401,0.0,-5.0458,-3.9596,0.0,7.115e-321,nan,0.0,3.5e-323,8.792833127603e-312,0.0,3.512700564088504e-303,0.0,5.0,0.7762138719249836,24.35,-1.066,-0.8699,0.3662,0.03688,-0.0127,0.01859,0.0009999999310821295,0.0009095495333895087,0.001110862591303885,0.0004999999655410647,0.00046593454317189753,0.00052916060667485,0.009999999776482582,0.011674760840833187,0.008646746166050434,passive,0
1.2807,rehab,safe_midrange_fast,0.0,81.05112310317044,28.057740779138705,84.0699668522047,-24.098161472676285,-88.98991320335658,0.0,-4.626,-2.4485,0.0,-0.7072,-1.8523,0.0,7.115e-321,nan,0.0,3.5e-323,8.79283312774e-312,0.0,3.512700564088504e-303,0.0,5.0,0.7863833339215378,24.35,-1.1567,-0.8767,0.4678,0.0036,-0.01177,0.01505,0.0009999999310821295,0.0009095495333895087,0.001110862591303885,0.0004999999655410647,0.00046593454317189753,0.00052916060667485,0.009999999776482582,0.011674760840833187,0.008646746166050434,passive,0
1.3006,rehab,safe_midrange_fast,0.0,80.9811779530781,28.020486745373397,84.02200396091355,-24.010835498785198,-88.98785030459256,0.0,-4.7157,-2.5271,0.0,3.2938,0.1552,0.0,7.115e-321,nan,0.0,3.5e-323,8.79283312782e-312,0.0,3.512700564088504e-303,0.0,5.0,0.7927996742341459,24.35,-0.9675,-0.9024,-0.0487,0.02986,-0.01834,0.02071,0.0009999999310821295,0.0009095495333895087,0.001110862591303885,0.0004999999655410647,0.00046593454317189753,0.00052916060667485,0.009999999776482582,0.011674760840833187,0.008646746166050434,passive,0
1.3207,rehab,safe_midrange_fast,0.0,80.87647649391837,27.96376437880629,83.94696495335461,-23.875912939377535,-88.9847814725553,0.0,-4.6422,-2.5337,0.0,5.4394,1.2009,0.0,7.115e-321,nan,0.0,3.5e-323,8.79283312794e-312,0.0,3.512700564088504e-303,0.0,5.0,0.8006941786787638,24.35,-1.1188,-0.9838,-0.0289,0.03283,-0.02057,0.01865,0.0009999999310821295,0.0009095495333895087,0.001110862591303885,0.0004999999655410647,0.00046593454317189753,0.00052916060667485,0.009999999776482582,0.011674760840833187,0.008646746166050434,passive,0
1.3405,rehab,safe_midrange_fast,0.0,80.80705154942693,27.92552576265005,83.89503353854306,-23.78364408829322,-88.98275923282975,0.0,-4.3917,-2.4309,0.0,6.2301,1.577,0.0,7.115e-321,nan,0.0,3.5e-323,8.79283312802e-312,0.0,3.512700564088504e-303,0.0,5.0,0.8035619112588898,24.35,-1.1856,-0.9443,0.247,0.02819,-0.02257,0.01831,0.0009999999310821295,0.0009095495333895087,0.001110862591303885,0.0004999999655410647,0.00046593454317189753,0.00052916060667485,0.009999999776482582,0.011674760840833187,0.008646746166050434,passive,0
1.3607,rehab,safe_midrange_fast,0.0,80.70388130932685,27.867806848139292,83.81464359802102,-23.642412251371592,-88.9797723670813,0.0,-4.0399,-2.2705,0.0,6.87,1.9323,0.0,7.115e-321,nan,0.0,3.5e-323,8.792833128137e-312,0.0,3.512700564088504e-303,0.0,5.0,0.8042406872721914,24.35,-1.1567,-0.8687,-0.4077,0.0307,-0.02659,0.02069,0.0009999999310821295,0.0009095495333895087,0.001110862591303885,0.0004999999655410647,0.00046593454317189753,0.00052916060667485,0.009999999776482582,0.011674760840833187,0.008646746166050434,passive,0
1.3807,rehab,safe_midrange_fast,0.0,80.63598093592456,27.829242700513216,83.75960800766245,-23.54675456830866,-88.97781850930049,0.0,-3.9101,-2.2345,0.0,6.5501,1.8061,0.0,7.115e-321,nan,0.0,3.5e-323,8.792833128216e-312,0.0,3.512700564088504e-303,0.0,5.0,0.8022695005202016,24.35,-1.3003,-1.0819,-0.7636,0.01412,-0.02554,0.02138,0.0009999999310821295,0.0009095495333895087,0.001110862591303885,0.0004999999655410647,0.00046593454317189753,0.00052916060667485,0.009999999776482582,0.011674760840833187,0.008646746166050434,passive,0
1.4009,rehab,safe_midrange_fast,0.0,80.53585263271891,27.77152859801195,83.67527884239433,-23.401672873230222,-88.97495469388112,0.0,-3.9767,-2.3066,0.0,4.6734,0.8508,0.0,7.115e-321,nan,0.0,3.5e-323,8.792833128334e-312,0.0,3.512700564088504e-303,0.0,5.0,0.7956670867838214,24.35,-1.3042,-0.9602,-0.4797,0.01865,-0.01407,0.02431,0.0009999999310821295,0.0009095495333895087,0.001110862591303885,0.0004999999655410647,0.00046593454317189753,0.00052916060667485,0.009999999776482582,0.011674760840833187,0.008646746166050434,passive,0
1.4208,rehab,safe_midrange_fast,0.0,80.47048326889833,27.7332874529403,83.61810823355393,-23.30427511241468,-88.97309645121172,0.0,-3.9982,-2.3558,0.0,1.8881,-0.7079,0.0,7.115e-321,nan,0.0,3.5e-323,8.792833128413e-312,0.0,3.512700564088504e-303,0.0,5.0,0.7888316095895368,24.35,-1.3159,-0.9873,-0.1154,0.02791,-0.00508,0.02632,0.0009999999310821295,0.0009095495333895087,0.001110862591303885,0.0004999999655410647,0.00046593454317189753,0.00052916060667485,0.009999999776482582,0.011674760840833187,0.008646746166050434,passive,0
1.4405,rehab,safe_midrange_fast,0.0,80.42229656544222,27.70479965973723,83.5748470388991,-23.23106098046542,-88.97173259551306,0.0,-3.9213,-2.3464,0.0,0.2927,-1.6587,0.0,7.115e-321,nan,0.0,3.5e-323,8.79283312849e-312,0.0,3.512700564088504e-303,0.0,5.0,0.7800479933522274,24.35,-1.3423,-0.9792,0.4064,0.00936,-0.03069,0.01613,0.0009999999310821295,0.0009095495333895087,0.001110862591303885,0.0004999999655410647,0.00046593454317189753,0.00052916060667485,0.009999999776482582,0.011674760840833187,0.008646746166050434,passive,0
1.4607,rehab,safe_midrange_fast,0.0,80.31307210365428,27.639214272510518,83.4730547732542,-23.060358714315388,-88.96866065305308,0.0,-3.8111,-2.318,0.0,2.2902,-0.5116,0.0,7.115e-321,nan,0.0,3.5e-323,8.79283312861e-312,0.0,3.512700564088504e-303,0.0,5.0,0.7632215332188592,24.35,-1.2537,-0.9358,0.1857,0.02255,-0.02548,0.01928,0.0009999999310821295,0.0009095495333895087,0.001110862591303885,0.0004999999655410647,0.00046593454317189753,0.00052916060667485,0.009999999776482582,0.011674760840833187,0.008646746166050434,passive,0
1.4809,rehab,safe_midrange_fast,0.0,80.23818345234737,27.59334329423034,83.40002033432191,-22.939171039668874,-88.96657106157973,0.0,-3.759,-2.3253,0.0,6.2377,1.8076,0.0,7.115e-321,nan,0.0,3.5e-323,8.79283312871e-312,0.0,3.512700564088504e-303,0.0,5.0,0.7458581573311043,24.35,-1.2057,-0.9953,-0.0018,0.027,-0.02592,0.02109,0.0009999999310821295,0.0009095495333895087,0.001110862591303885,0.0004999999655410647,0.00046593454317189753,0.00052916060667485,0.009999999776482582,0.011674760840833187,0.008646746166050434,passive,0
1.5008,rehab,safe_midrange_fast,0.0,80.15225524203771,27.539647522058353,83.31256510338359,-22.79539873410945,-88.96419187363975,0.0,-3.7054,-2.3326,0.0,9.129,3.543,0.0,7.115e-321,nan,0.0,3.5e-323,8.79283312883e-312,0.0,3.512700564088504e-303,0.0,5.0,0.7210265076496909,24.35,-1.4108,-1.0068,-0.1175,0.01772,-0.01428,0.02774,0.0009999999310821295,0.0009095495333895087,0.001110862591303885,0.0004999999655410647,0.00046593454317189753,0.00052916060667485,0.009999999776482582,0.011674760840833187,0.008646746166050434,passive,0
1.5206,rehab,safe_midrange_fast,0.0,80.09760710333458,27.50480294536273,83.25465586075653,-22.700976486723288,-88.96269016996945,0.0,-3.6022,-2.3114,0.0,10.6838,4.4551,0.0,7.115e-321,nan,0.0,3.5e-323,8.792833128907e-312,0.0,3.512700564088504e-303,0.0,5.0,0.702062269749614,24.35,-1.2159,-0.7671,0.421,0.02802,-0.01852,0.02689,0.0009999999310821295,0.0009095495333895087,0.001110862591303885,0.0004999999655410647,0.00046593454317189753,0.00052916060667485,0.009999999776482582,0.011674760840833187,0.008646746166050434,passive,0
1.5404,rehab,safe_midrange_fast,0.0,80.01999155698391,27.454174045554577,83.16884286129154,-22.562163359321218,-88.9605748711599,0.0,-3.2203,-2.1296,0.0,11.6929,5.0189,0.0,7.115e-321,nan,0.0,3.5e-323,8.792833129026e-312,0.0,3.512700564088504e-303,0.0,5.0,0.6700289875264077,24.35,-1.2095,-0.7691,0.2194,0.03113,-0.02249,0.02254,0.0009999999310821295,0.0009095495333895087,0.001110862591303885,0.0004999999655410647,0.00046593454317189753,0.00052916060667485,0.009999999776482582,0.011674760840833187,0.008646746166050434,passive,0
1.5607,rehab,safe_midrange_fast,0.0,79.97138590005385,27.421632018645024,83.11260741840415,-22.47190013300283,-88.95926236961903,0.0,-2.8286,-1.9233,0.0,12.8562,5.6351,0.0,7.115e-321,nan,0.0,3.5e-323,8.792833129105e-312,0.0,3.512700564088504e-303,0.0,5.0,0.6463050126722429,24.35,-1.3291,-0.7271,-0.0151,0.01306,-0.01675,0.02466,0.0009999999310821295,0.0009095495333895087,0.001110862591303885,0.0004999999655410647,0.00046593454317189753,0.00052916060667485,0.009999999776482582,0.011674760840833187,0.008646746166050434,passive,0
1.5807,rehab,safe_midrange_fast,0.0,79.9035847649726,27.37483304499723,83.03018839124786,-22.340608882298703,-88.95745078321127,0.0,-2.619,-1.8351,0.0,13.5084,5.884,0.0,7.115e-321,nan,0.0,3.5e-323,8.792833129223e-312,0.0,3.512700564088504e-303,0.0,5.0,0.6072214505956237,24.35,-1.3391,-0.9186,-0.5825,0.01433,-0.01095,0.02576,0.0009999999310821295,0.0009095495333895087,0.001110862591303885,0.0004999999655410647,0.00046593454317189753,0.00052916060667485,0.009999999776482582,0.011674760840833187,0.008646746166050434,passive,0
1.6009,rehab,safe_midrange_fast,0.0,79.86202233598736,27.345089485704413,82.97681190240048,-22.2562177236065,-88.95635403790662,0.0,-2.4232,-1.7667,0.0,13.1923,5.5518,0.0,7.115e-321,nan,0.0,3.5e-323,8.792833129303e-312,0.0,3.512700564088504e-303,0.0,5.0,0.5788792885595838,24.35,-1.3976,-0.6771,-0.5118,0.01061,-0.02142,0.02892,0.0009999999310821295,0.0009095495333895087,0.001110862591303885,0.0004999999655410647,0.00046593454317189753,0.00052916060667485,0.009999999776482582,0.011674760840833187,0.008646746166050434,passive,0
1.621,rehab,safe_midrange_fast,0.0,79.80553626595444,27.302847992940105,82.89958627761112,-22.135023322242144,-88.95488604289032,0.0,-2.2086,-1.6948,0.0,12.4013,4.8562,0.0,7.115e-321,nan,0.0,3.5e-323,8.79283312942e-312,0.0,3.512700564088504e-303,0.0,5.0,0.5330480464606915,24.35,-1.3416,-0.6523,0.1224,0.02494,-0.02101,0.02514,0.0009999999310821295,0.0009095495333895087,0.001110862591303885,0.0004999999655410647,0.00046593454317189753,0.00052916060667485,0.009999999776482582,0.011674760840833187,0.008646746166050434,passive,0
1.6407,rehab,safe_midrange_fast,0.0,79.77201729859905,27.27637892935075,82.85028004278783,-22.05822354918196,-88.95403169621731,0.0,-1.9516,-1.5911,0.0,11.8362,4.3266,0.0,7.115e-321,nan,0.0,3.5e-323,8.7928331295e-312,0.0,3.512700564088504e-303,0.0,5.0,0.500377153238358,24.35,-1.2902,-0.7231,-0.1407,0.02273,-0.02672,0.02824,0.0009999999310821295,0.0009095495333895087,0.001110862591303885,0.0004999999655410647,0.00046593454317189753,0.00052916060667485,0.009999999776482582,0.011674760840833187,0.008646746166050434,passive,0
1.661,rehab,safe_midrange_fast,0.0,79.74199576274764,27.25135015391202,82.80294448135476,-21.98494233613021,-88.9532818093851,0.0,-1.6741,-1.4841,0.0,13.4457,5.0348,0.0,7.115e-321,nan,0.0,3.5e-323,8.79283312958e-312,0.0,3.512700564088504e-303,0.0,5.0,0.46612299185226197,24.35,-1.1918,-0.6389,0.0306,0.02882,-0.01908,0.02917,0.0009999999310821295,0.0009095495333895087,0.001110862591303885,0.0004999999655410647,0.00046593454317189753,0.00052916060667485,0.009999999776482582,0.011674760840833187,0.008646746166050434,passive,0
1.6806,rehab,safe_midrange_fast,0.0,79.69835521847492,27.211238212982316,82.7254392631412,-21.865994882848902,-88.95223384279807,0.0,-1.4008,-1.3782,0.0,15.5819,6.114,0.0,7.115e-321,nan,0.0,3.5e-323,8.792833129718e-312,0.0,3.512700564088504e-303,0.0,5.0,0.40282501378800806,24.35,-1.2652,-0.5132,0.2186,0.0335,-0.01523,0.02553,0.0009999999310821295,0.0009095495333895087,0.001110862591303885,0.0004999999655410647,0.00046593454317189753,0.00052916060667485,0.009999999776482582,0.011674760840833187,0.008646746166050434,passive,0
1.7008,rehab,safe_midrange_fast,0.0,79.67877705997144,27.19055232196112,82.68453382062997,-21.803808824398665,-88.95179351510723,0.0,-1.0781,-1.2433,0.0,16.4371,6.7496,0.0,7.115e-321,nan,0.0,3.5e-323,8.792833129797e-312,0.0,3.512700564088504e-303,0.0,5.0,0.36515674961323075,24.35,-1.1415,-0.5929,0.5334,0.02806,-0.01685,0.01999,0.0009999999310821295,0.0009095495333895087,0.001110862591303885,0.0004999999655410647,0.00046593454317189753,0.00052916060667485,0.009999999776482582,0.011674760840833187,0.008646746166050434,passive,0
1.7207,rehab,safe_midrange_fast,0.0,79.65714353035499,27.1627705035416,82.62830568191264,-21.71914582876038,-88.95136079696503,0.0,-0.7668,-1.1233,0.0,16.7796,7.2301,0.0,7.115e-321,nan,0.0,3.5e-323,8.792833129915e-312,0.0,3.512700564088504e-303,0.0,5.0,0.3077654495366835,24.35,-1.0908,-0.6954,0.1437,0.01435,-0.02567,0.01983,0.0009999999310821295,0.0009095495333895087,0.001110862591303885,0.0004999999655410647,0.00046593454317189753,0.00052916060667485,0.009999999776482582,0.011674760840833187,0.008646746166050434,passive,0
1.7407,rehab,safe_midrange_fast,0.0,79.64811081431952,27.146525059784164,82.59452081279107,-21.66884686688083,-88.9512306066555,0.0,-0.431,-0.9776,0.0,16.8671,7.6104,0.0,7.115e-321,nan,0.0,3.5e-323,8.792833129994e-312,0.0,3.512700564088504e-303,0.0,5.0,0.27009292396660395,24.35,-1.2409,-0.6586,0.2354,0.00908,-0.02105,0.02321,0.0009999999310821295,0.0009095495333895087,0.001110862591303885,0.0004999999655410647,0.00046593454317189753,0.00052916060667485,0.009999999776482582,0.011674760840833187,0.008646746166050434,passive,0
1.761,rehab,safe_midrange_fast,0.0,79.64304742352202,27.125765516767775,82.54986812208784,-21.603294240534286,-88.95128390301035,0.0,0.0371,-0.7718,0.0,17.3597,8.2056,0.0,7.115e-321,nan,0.0,3.5e-323,8.792833130113e-312,0.0,3.512700564088504e-303,0.0,5.0,0.21841008917850477,24.35,-0.9352,-0.5655,0.4347,0.04731,-0.01798,0.0182,0.0009999999310821295,0.0009095495333895087,0.001110862591303885,0.0004999999655410647,0.00046593454317189753,0.00052916060667485,0.009999999776482582,0.011674760840833187,0.008646746166050434,passive,0
1.7805,rehab,safe_midrange_fast,0.0,79.64550360884517,27.11444549640545,82.52439160292799,-21.56658454535872,-88.95148974582537,0.0,0.3152,-0.625,0.0,17.3485,8.6178,0.0,7.115e-321,nan,0.0,3.5e-323,8.79283313019e-312,0.0,3.512700564088504e-303,0.0,5.0,0.19131656730645363,24.35,-0.7843,-0.6377,0.4604,0.04951,-0.02855,0.01418,0.0009999999310821295,0.0009095495333895087,0.001110862591303885,0.0004999999655410647,0.00046593454317189753,0.00052916060667485,0.009999999776482582,0.011674760840833187,0.008646746166050434,passive,0
1.8005,rehab,safe_midrange_fast,0.0,79.65770307030928,27.101418243259918,82.49311649042491,-21.522675597492007,-88.95204426166124,0.0,0.5843,-0.4656,0.0,16.7526,8.835,0.0,7.115e-321,nan,0.0,3.5e-323,8.79283313031e-312,0.0,3.512700564088504e-303,0.0,5.0,0.16970493995694175,24.35,-0.8047,-0.5859,1.0012,0.03879,-0.01117,0.00992,0.0009999999310821295,0.0009095495333895087,0.001110862591303885,0.0004999999655410647,0.00046593454317189753,0.00052916060667485,0.009999999776482582,0.011674760840833187,0.008646746166050434,passive,0
1.8206,rehab,safe_midrange_fast,0.0,79.67127986430113,27.09546882375781,82.47718617138581,-21.5012260891368,-88.95256892192381,0.0,0.9367,-0.2859,0.0,16.21,9.031,0.0,7.115e-321,nan,0.0,3.5e-323,8.79283313039e-312,0.0,3.512700564088504e-303,0.0,5.0,0.17148002327123024,24.35,-0.8469,-0.7881,0.5695,0.03514,-0.02641,0.01256,0.0009999999310821295,0.0009095495333895087,0.001110862591303885,0.0004999999655410647,0.00046593454317189753,0.00052916060667485,0.009999999776482582,0.011674760840833187,0.008646746166050434,passive,0
1.8408,rehab,safe_midrange_fast,0.0,79.69941179267418,27.090827672865,82.46116135720166,-21.481444496751433,-88.9535732936629,0.0,1.2927,-0.0983,0.0,15.7878,9.2577,0.0,7.115e-321,nan,0.0,3.5e-323,8.79283313051e-312,0.0,3.512700564088504e-303,0.0,5.0,0.19734196665523926,24.35,-0.8427,-0.7549,0.6953,0.03166,-0.02926,0.00951,0.0009999999310821295,0.0009095495333895087,0.001110862591303885,0.0004999999655410647,0.00046593454317189753,0.00052916060667485,0.009999999776482582,0.011674760840833187,0.008646746166050434,passive,0
1.8605,rehab,safe_midrange_fast,0.0,79.72311167297792,27.090698660343055,82.4560047029989,-21.47690020303809,-88.95437902189856,0.0,1.6066,0.088,0.0,15.699,9.4333,0.0,7.115e-321,nan,0.0,3.5e-323,8.792833130587e-312,0.0,3.512700564088504e-303,0.0,5.0,0.22595226994750026,24.35,-0.5517,-0.7219,0.7644,0.06252,-0.02679,0.0143,0.0009999999310821295,0.0009095495333895087,0.001110862591303885,0.0004999999655410647,0.00046593454317189753,0.00052916060667485,0.009999999776482582,0.011674760840833187,0.008646746166050434,passive,0
1.8808,rehab,safe_midrange_fast,0.0,79.74336952975197,27.092214179034002,82.45517192046927,-21.478214961726582,-88.95505052429881,0.0,1.9025,0.284,0.0,15.688,9.7268,0.0,7.115e-321,nan,0.0,3.5e-323,8.792833130666e-312,0.0,3.512700564088504e-303,0.0,5.0,0.2513461779908035,24.35,-0.6749,-0.8933,0.1481,0.02873,-0.02146,0.00953,0.0009999999310821295,0.0009095495333895087,0.001110862591303885,0.0004999999655410647,0.00046593454317189753,0.00052916060667485,0.009999999776482582,0.011674760840833187,0.008646746166050434,passive,0
1.9008,rehab,safe_midrange_fast,0.0,79.8072471265602,27.103200102052003,82.4660859628047,-21.502100901875256,-88.95710317064321,0.0,2.2129,0.48,0.0,14.8555,9.9638,0.0,7.115e-321,nan,0.0,3.5e-323,8.792833130804e-312,0.0,3.512700564088504e-303,0.0,5.0,0.32846371690536563,24.35,-0.5383,-0.7759,0.2705,0.03506,-0.03608,0.01058,0.0009999999310821295,0.0009095495333895087,0.001110862591303885,0.0004999999655410647,0.00046593454317189753,0.00052916060667485,0.009999999776482582,0.011674760840833187,0.008646746166050434,passive,0
1.9207,rehab,safe_midrange_fast,0.0,79.84426256293433,27.112409571640192,82.47852550337134,-21.524897221559154,-88.95826358137911,0.0,2.4851,0.6704,0.0,12.801,9.4563,0.0,7.115e-321,nan,0.0,3.5e-323,8.792833130884e-312,0.0,3.512700564088504e-303,0.0,5.0,0.3688264958980622,24.35,-0.6041,-0.6972,1.0177,0.03587,-0.0264,0.00603,0.0009999999310821295,0.0009095495333895087,0.001110862591303885,0.0004999999655410647,0.00046593454317189753,0.00052916060667485,0.009999999776482582,0.011674760840833187,0.008646746166050434,passive,0
1.9407,rehab,safe_midrange_fast,0.0,79.90568149252212,27.13066229722551,82.50538687086996,-21.571910792730726,-88.96015972174605,0.0,2.7641,0.8631,0.0,10.8104,8.7163,0.0,7.115e-321,nan,0.0,3.5e-323,8.792833131e-312,0.0,3.512700564088504e-303,0.0,5.0,0.4287402916785055,24.35,-0.5197,-0.6202,1.4796,0.04194,-0.01952,0.00787,0.0009999999310821295,0.0009095495333895087,0.001110862591303885,0.0004999999655410647,0.00046593454317189753,0.00052916060667485,0.009999999776482582,0.011674760840833187,0.008646746166050434,passive,0
1.9604,rehab,safe_midrange_fast,0.0,79.95032458897994,27.14568195954481,82.52847579595475,-21.611397244236837,-88.96152125224798,0.0,2.9648,1.0246,0.0,9.1066,7.9483,0.0,7.115e-321,nan,0.0,3.5e-323,8.79283313108e-312,0.0,3.512700564088504e-303,0.0,5.0,0.4675281443729164,24.35,-0.5287,-0.5838,0.966,0.03319,-0.01262,0.00962,0.0009999999310821295,0.0009095495333895087,0.001110862591303885,0.0004999999655410647,0.00046593454317189753,0.00052916060667485,0.009999999776482582,0.011674760840833187,0.008646746166050434,passive,0
1.9809,rehab,safe_midrange_fast,0.0,80.02243480574239,27.172307269275926,82.57038454962009,-21.682152627263612,-88.96369895446507,0.0,3.1854,1.2389,0.0,7.7386,7.3775,0.0,7.115e-321,nan,0.0,3.5e-323,8.7928331312e-312,0.0,3.512700564088504e-303,0.0,5.0,0.5232479843579735,24.35,-0.4233,-0.6015,0.7327,0.02857,-0.01949,0.00655,0.0009999999310821295,0.0009095495333895087,0.001110862591303885,0.0004999999655410647,0.00046593454317189753,0.00052916060667485,0.009999999776482582,0.011674760840833187,0.008646746166050434,passive,0
2.0006,rehab,safe_midrange_fast,0.0,80.07370517812515,27.192683933621062,82.60288235710007,-21.736603535881596,-88.96523472980425,0.0,3.2184,1.3237,0.0,7.106,7.1249,0.0,7.115e-321,nan,0.0,3.5e-323,8.79283313128e-312,0.0,3.512700564088504e-303,0.0,5.0,0.5584961326329105,24.35,-0.3959,-0.666,0.291,0.04967,-0.03137,0.00576,0.0009999999310821295,0.0009095495333895087,0.001110862591303885,0.0004999999655410647,0.00046593454317189753,0.00052916060667485,0.009999999776482582,0.011674760840833187,0.008646746166050434,passive,0
2.0208,rehab,safe_midrange_fast,0.0,80.15500565173637,27.227011284478593,82.65796586840712,-21.828509619041686,-88.96765350812319,0.0,3.3021,1.4205,0.0,7.072,7.0694,0.0,7.115e-321,nan,0.0,3.5e-323,8.792833131397e-312,0.0,3.512700564088504e-303,0.0,5.0,0.6082385744190915,24.35,-0.6128,-0.6622,0.7621,0.02421,-0.03376,0.00528,0.0009999999310821295,0.0009095495333895087,0.001110862591303885,0.0004999999655410647,0.00046593454317189753,0.00052916060667485,0.009999999776482582,0.011674760840833187,0.008646746166050434,passive,0
2.0405,rehab,safe_midrange_fast,0.0,80.21190221295477,27.25230090628339,82.6986206624984,-21.896197124117684,-88.96933641258798,0.0,3.4892,1.5797,0.0,7.1508,6.9682,0.0,7.115e-321,nan,0.0,3.5e-323,8.792833131476e-312,0.0,3.512700564088504e-303,0.0,5.0,0.639204985070092,24.35,-0.5121,-0.5344,0.3318,0.04847,-0.028,0.00788,0.0009999999310821295,0.0009095495333895087,0.001110862591303885,0.0004999999655410647,0.00046593454317189753,0.00052916060667485,0.009999999776482582,0.011674760840833187,0.008646746166050434,passive,0
2.0609,rehab,safe_midrange_fast,0.0,80.30089056857014,27.293663612514667,82.76500299960952,-22.006663498215715,-88.9719553912667,0.0,3.6736,1.7417,0.0,7.8459,7.1929,0.0,7.115e-321,nan,0.0,3.5e-323,8.792833131595e-312,0.0,3.512700564088504e-303,0.0,5.0,0.6822335002762974,24.35,-0.5692,-0.6061,0.4861,0.03067,-0.02444,0.00776,0.0009999999310821295,0.0009095495333895087,0.001110862591303885,0.0004999999655410647,0.00046593454317189753,0.00052916060667485,0.009999999776482582,0.011674760840833187,0.008646746166050434,passive,0
2.0807,rehab,safe_midrange_fast,0.0,80.36241116894747,27.323418557754252,82.81256930673706,-22.085862706248452,-88.97375803244574,0.0,3.8546,1.898,0.0,9.493,8.1357,0.0,7.115e-321,nan,0.0,3.5e-323,8.792833131674e-312,0.0,3.512700564088504e-303,0.0,5.0,0.7085857903537679,24.35,-0.5605,-0.4863,0.4928,0.0283,-0.03055,0.01085,0.0009999999310821295,0.0009095495333895087,0.001110862591303885,0.0004999999655410647,0.00046593454317189753,0.00052916060667485,0.009999999776482582,0.011674760840833187,0.008646746166050434,passive,0
2.101,rehab,safe_midrange_fast,0.0,80.4095898797246,27.34682682627752,82.84984299799089,-22.14798299829068,-88.97513660993256,0.0,4.0377,2.0605,0.0,9.546,8.3441,0.0,7.115e-321,nan,0.0,3.5e-323,8.792833131753e-312,0.0,3.512700564088504e-303,0.0,5.0,0.7271055748805905,24.35,-0.5822,-0.3742,0.4421,0.03554,-0.0202,0.00936,0.0009999999310821295,0.0009095495333895087,0.001110862591303885,0.0004999999655410647,0.00046593454317189753,0.00052916060667485,0.009999999776482582,0.011674760840833187,0.008646746166050434,passive,0
2.1206,rehab,safe_midrange_fast,0.0,80.53919833271188,27.413565907165108,82.95527429823423,-22.324096767027616,-88.978908959531,0.0,4.1893,2.2036,0.0,6.8028,6.9401,0.0,7.115e-321,nan,0.0,3.5e-323,8.79283313189e-312,0.0,3.512700564088504e-303,0.0,5.0,0.7712088199702141,24.35,-0.468,-0.5431,0.5183,0.03907,-0.00938,0.01197,0.0009999999310821295,0.0009095495333895087,0.001110862591303885,0.0004999999655410647,0.00046593454317189753,0.00052916060667485,0.009999999776482582,0.011674760840833187,0.008646746166050434,passive,0
2.1408,rehab,safe_midrange_fast,0.0,80.6057730652343,27.449145172398875,83.01092389371561,-22.417346733061553,-88.98083917970747,0.0,4.2848,2.3209,0.0,3.025,4.7787,0.0,7.115e-321,nan,0.0,3.5e-323,8.79283313197e-312,0.0,3.512700564088504e-303,0.0,5.0,0.7903506986757433,24.35,-0.5636,-0.5368,0.3321,0.02897,-0.00941,0.00804,0.0009999999310821295,0.0009095495333895087,0.001110862591303885,0.0004999999655410647,0.00046593454317189753,0.00052916060667485,0.009999999776482582,0.011674760840833187,0.008646746166050434,passive,0
2.1607,rehab,safe_midrange_fast,0.0,80.70739579615389,27.50505180764725,83.09753912386077,-22.562947976975913,-88.98377689599329,0.0,4.5049,2.5146,0.0,-0.0113,3.0216,0.0,7.115e-321,nan,0.0,3.5e-323,8.79283313209e-312,0.0,3.512700564088504e-303,0.0,5.0,0.8153948123404678,24.35,-0.6977,-0.6182,0.0109,0.0141,-0.0175,0.01364,0.0009999999310821295,0.0009095495333895087,0.001110862591303885,0.0004999999655410647,0.00046593454317189753,0.00052916060667485,0.009999999776482582,0.011674760840833187,0.008646746166050434,passive,0
2.1809,rehab,safe_midrange_fast,0.0,80.77608321985848,27.543894195807013,83.15710950969658,-22.663438240859865,-88.98575701932147,0.0,4.4836,2.5551,0.0,-2.0106,1.9256,0.0,7.115e-321,nan,0.0,3.5e-323,8.79283313217e-312,0.0,3.512700564088504e-303,0.0,5.0,0.8296330723668565,24.35,-0.5858,-0.5554,0.5769,0.02352,-0.02478,0.00433,0.0009999999310821295,0.0009095495333895087,0.001110862591303885,0.0004999999655410647,0.00046593454317189753,0.00052916060667485,0.009999999776482582,0.011674760840833187,0.008646746166050434,passive,0
2.2006,rehab,safe_midrange_fast,0.0,80.88011992715491,27.60430099215517,83.24875808488746,-22.818634352153584,-88.98874827459161,0.0,4.2197,2.4772,0.0,-2.7454,1.5662,0.0,7.115e-321,nan,0.0,3.5e-323,8.792833132287e-312,0.0,3.512700564088504e-303,0.0,5.0,0.847288106404797,24.35,-0.6657,-0.6523,0.092,0.01594,-0.0033,0.00938,0.0009999999310821295,0.0009095495333895087,0.001110862591303885,0.0004999999655410647,0.00046593454317189753,0.00052916060667485,0.009999999776482582,0.011674760840833187,0.008646746166050434,passive,0
2.2207,rehab,safe_midrange_fast,0.0,80.94991296540489,27.645871908933696,83.3111312630195,-22.924681444619686,-88.99074980547212,0.0,4.0667,2.4474,0.0,-2.5647,1.7153,0.0,7.115e-321,nan,0.0,3.5e-323,8.792833132366e-312,0.0,3.512700564088504e-303,0.0,5.0,0.8565830636491262,24.35,-0.5932,-0.5063,-0.1647,0.01865,-0.01491,0.01631,0.0009999999310821295,0.0009095495333895087,0.001110862591303885,0.0004999999655410647,0.00046593454317189753,0.00052916060667485,0.009999999776482582,0.011674760840833187,0.008646746166050434,passive,0
2.2405,rehab,safe_midrange_fast,0.0,81.0548519987635,27.70994860458517,83.40617746354538,-23.08696037975911,-88.99375161867474,0.0,4.0444,2.4846,0.0,-1.9011,2.1228,0.0,7.115e-321,nan,0.0,3.5e-323,8.792833132484e-312,0.0,3.512700564088504e-303,0.0,5.0,0.8668043426201981,24.35,-0.6178,-0.5115,-0.2458,0.01627,-0.00743,0.01263,0.0009999999310821295,0.0009095495333895087,0.001110862591303885,0.0004999999655410647,0.00046593454317189753,0.00052916060667485,0.009999999776482582,0.011674760840833187,0.008646746166050434,passive,0
2.2608,rehab,safe_midrange_fast,0.0,81.12474222548167,27.753674738914963,83.47029178522806,-23.19689880701572,-88.99574574766534,0.0,4.1354,2.6116,0.0,0.6457,3.7003,0.0,7.115e-321,nan,0.0,3.5e-323,8.792833132563e-312,0.0,3.512700564088504e-303,0.0,5.0,0.8711343123364661,24.35,-0.5193,-0.5295,0.5817,0.01191,-0.02218,0.00452,0.0009999999310821295,0.0009095495333895087,0.001110862591303885,0.0004999999655410647,0.00046593454317189753,0.00052916060667485,0.009999999776482582,0.011674760840833187,0.008646746166050434,passive,0
2.2807,rehab,safe_midrange_fast,0.0,81.17700876706907,27.786929135553404,83.51865697974343,-23.280085262322082,-88.99723431896498,0.0,4.2336,2.741,0.0,4.1714,6.0283,0.0,7.115e-321,nan,0.0,3.5e-323,8.79283313264e-312,0.0,3.512700564088504e-303,0.0,5.0,0.8730764593217754,24.35,-0.5609,-0.3746,0.4676,0.03298,0.0089,0.00612,0.0009999999310821295,0.0009095495333895087,0.001110862591303885,0.0004999999655410647,0.00046593454317189753,0.00052916060667485,0.009999999776482582,0.011674760840833187,0.008646746166050434,passive,0
2.3008,rehab,safe_midrange_fast,0.0,81.29804782278029,27.865796848620693,83.63204275348404,-23.475960459366654,-89.00067229982788,0.0,4.2912,2.8456,0.0,4.7241,6.6165,0.0,7.115e-321,nan,0.0,3.5e-323,8.79283313276e-312,0.0,3.512700564088504e-303,0.0,5.0,0.8732551943386389,24.35,-0.6747,-0.4685,0.545,0.01225,0.00036,0.00142,0.0009999999310821295,0.0009095495333895087,0.001110862591303885,0.0004999999655410647,0.00046593454317189753,0.00052916060667485,0.009999999776482582,0.011674760840833187,0.008646746166050434,passive,0
2.3208,rehab,safe_midrange_fast,0.0,81.34936484050607,27.900037483380956,83.68071139650239,-23.56040234268746,-89.00212580161087,0.0,4.3268,2.9372,0.0,1.8991,5.0194,0.0,7.115e-321,nan,0.0,3.5e-323,8.79283313284e-312,0.0,3.512700564088504e-303,0.0,5.0,0.8714662170186984,24.35,-0.7163,-0.5988,0.1494,0.00768,-0.01799,0.01021,0.0009999999310821295,0.0009095495333895087,0.001110862591303885,0.0004999999655410647,0.00046593454317189753,0.00052916060667485,0.009999999776482582,0.011674760840833187,0.008646746166050434,passive,0
2.341,rehab,safe_midrange_fast,0.0,81.48390956139926,27.992195022922566,83.81011556812334,-23.785974047667615,-89.0059238981454,0.0,4.3709,3.0398,0.0,-2.4786,2.2248,0.0,7.115e-321,nan,0.0,3.5e-323,8.79283313298e-312,0.0,3.512700564088504e-303,0.0,5.0,0.861334006447509,24.35,-0.5562,-0.4227,-0.0955,0.02663,-0.02096,0.01216,0.0009999999310821295,0.0009095495333895087,0.001110862591303885,0.0004999999655410647,0.00046593454317189753,0.00052916060667485,0.009999999776482582,0.011674760840833187,0.008646746166050434,passive,0
2.3609,rehab,safe_midrange_fast,0.0,81.54962384451336,28.038581368487996,83.87444680594285,-23.89864577344127,-89.00777100959529,0.0,4.4513,3.1739,0.0,-6.9348,-0.7986,0.0,7.115e-321,nan,0.0,3.5e-323,8.792833133057e-312,0.0,3.512700564088504e-303,0.0,5.0,0.8542330041322916,24.35,-0.6302,-0.6246,-0.577,0.00435,-0.01126,0.01013,0.0009999999310821295,0.0009095495333895087,0.001110862591303885,0.0004999999655410647,0.00046593454317189753,0.00052916060667485,0.009999999776482582,0.011674760840833187,0.008646746166050434,passive,0
2.3805,rehab,safe_midrange_fast,0.0,81.6457933961564,28.108455044974434,83.97052336082228,-24.06745031816816,-89.01046094726154,0.0,4.2648,3.1547,0.0,-9.7832,-2.8014,0.0,7.115e-321,nan,0.0,3.5e-323,8.792833133176e-312,0.0,3.512700564088504e-303,0.0,5.0,0.841896799497286,24.35,-0.7597,-0.5176,0.0417,-0.00432,-0.00959,0.00864,0.0009999999310821295,0.0009095495333895087,0.001110862591303885,0.0004999999655410647,0.00046593454317189753,0.00052916060667485,0.009999999776482582,0.011674760840833187,0.008646746166050434,passive,0
2.4004,rehab,safe_midrange_fast,0.0,81.70806963011215,28.155199266228028,84.0343467596036,-24.17986266700131,-89.01219202049428,0.0,3.877,2.9547,0.0,-10.7419,-3.5362,0.0,7.115e-321,nan,0.0,3.5e-323,8.792833133255e-312,0.0,3.512700564088504e-303,0.0,5.0,0.8326027701598415,24.35,-0.7032,-0.4813,-0.6144,0.01672,-0.02338,0.01527,0.0009999999310821295,0.0009095495333895087,0.001110862591303885,0.0004999999655410647,0.00046593454317189753,0.00052916060667485,0.009999999776482582,0.011674760840833187,0.008646746166050434,passive,0
2.4208,rehab,safe_midrange_fast,0.0,81.79846346760922,28.22551197014425,84.12981213120746,-24.348313042434015,-89.01468564197599,0.0,3.5702,2.8171,0.0,-10.6506,-3.512,0.0,7.115e-321,nan,0.0,3.5e-323,8.792833133374e-312,0.0,3.512700564088504e-303,0.0,5.0,0.8185934573044156,24.35,-0.7799,-0.5279,-0.3275,0.01378,-0.004,0.01113,0.0009999999310821295,0.0009095495333895087,0.001110862591303885,0.0004999999655410647,0.00046593454317189753,0.00052916060667485,0.009999999776482582,0.011674760840833187,0.008646746166050434,passive,0
2.4406,rehab,safe_midrange_fast,0.0,81.85685682115958,28.272523094723773,84.19326939571216,-24.460504346139537,-89.01628414339497,0.0,3.3249,2.7095,0.0,-8.9515,-2.436,0.0,7.115e-321,nan,0.0,3.5e-323,8.792833133453e-312,0.0,3.512700564088504e-303,0.0,5.0,0.8104617688897385,24.35,-0.7369,-0.4659,-0.2139,0.01512,-0.0029,0.01028,0.0009999999310821295,0.0009095495333895087,0.001110862591303885,0.0004999999655410647,0.00046593454317189753,0.00052916060667485,0.009999999776482582,0.011674760840833187,0.008646746166050434,passive,0
2.4611,rehab,safe_midrange_fast,0.0,81.9420166262877,28.343268835857696,84.28813950908766,-24.628628206801206,-89.01859861068667,0.0,3.2434,2.7168,0.0,-5.2406,-0.0451,0.0,7.115e-321,nan,0.0,3.5e-323,8.79283313357e-312,0.0,3.512700564088504e-303,0.0,5.0,0.8000413330267148,24.35,-0.6578,-0.3096,-0.1581,0.01691,-0.00812,0.01079,0.0009999999310821295,0.0009095495333895087,0.001110862591303885,0.0004999999655410647,0.00046593454317189753,0.00052916060667485,0.009999999776482582,0.011674760840833187,0.008646746166050434,passive,0
2.4809,rehab,safe_midrange_fast,0.0,81.99738414757427,28.3906013441072,84.35115221463771,-24.740601113810193,-89.02009333474516,0.0,3.2916,2.8424,0.0,-0.9994,2.862,0.0,7.115e-321,nan,0.0,3.5e-323,8.79283313365e-312,0.0,3.512700564088504e-303,0.0,5.0,0.794228609476849,24.35,-0.7498,-0.3705,-0.5329,0.00879,-6e-05,0.00974,0.0009999999310821295,0.0009095495333895087,0.001110862591303885,0.0004999999655410647,0.00046593454317189753,0.00052916060667485,0.009999999776482582,0.011674760840833187,0.008646746166050434,passive,0
2.5008,rehab,safe_midrange_fast,0.0,82.0382771772279,28.426197834026663,84.3982761373638,-24.824522258796343,-89.0211926354145,0.0,3.3042,2.925,0.0,2.4154,5.2311,0.0,7.115e-321,nan,0.0,3.5e-323,8.79283313373e-312,0.0,3.512700564088504e-303,0.0,5.0,0.7904550817037589,24.35,-0.7563,-0.5218,-0.6159,0.00427,-0.01717,0.00687,0.0009999999310821295,0.0009095495333895087,0.001110862591303885,0.0004999999655410647,0.00046593454317189753,0.00052916060667485,0.009999999776482582,0.011674760840833187,0.008646746166050434,passive,0
2.5207,rehab,safe_midrange_fast,0.0,82.13197906004066,28.509615150110754,84.50772693863901,-25.02013726227732,-89.02369869612603,0.0,3.33,3.0081,0.0,3.8182,5.9868,0.0,7.115e-321,nan,0.0,3.5e-323,8.79283313385e-312,0.0,3.512700564088504e-303,0.0,5.0,0.7835704784966017,24.35,-0.8791,-0.5186,-1.0219,0.0113,0.00122,0.01642,0.0009999999310821295,0.0009095495333895087,0.001110862591303885,0.0004999999655410647,0.00046593454317189753,0.00052916060667485,0.009999999776482582,0.011674760840833187,0.008646746166050434,passive,0
2.5407,rehab,safe_midrange_fast,0.0,82.17155346767859,28.54553350196785,84.55439626796228,-25.103883275208666,-89.024752668462,0.0,3.4022,3.1176,0.0,2.6921,4.5142,0.0,7.115e-321,nan,0.0,3.5e-323,8.792833133927e-312,0.0,3.512700564088504e-303,0.0,5.0,0.7813999381126777,24.35,-0.9795,-0.6074,-1.2994,0.0083,-0.00514,0.02417,0.0009999999310821295,0.0009095495333895087,0.001110862591303885,0.0004999999655410647,0.00046593454317189753,0.00052916060667485,0.009999999776482582,0.011674760840833187,0.008646746166050434,passive,0
2.5604,rehab,safe_midrange_fast,0.0,82.2760184704331,28.64187446125682,84.67804841932899,-25.32692923337813,-89.02752679620762,0.0,3.4333,3.1791,0.0,-0.1837,1.371,0.0,7.115e-321,nan,0.0,3.5e-323,8.792833134065e-312,0.0,3.512700564088504e-303,0.0,5.0,0.7780162416993763,24.35,-0.7437,-0.4738,-0.6432,0.01217,-0.00857,0.013,0.0009999999310821295,0.0009095495333895087,0.001110862591303885,0.0004999999655410647,0.00046593454317189753,0.00052916060667485,0.009999999776482582,0.011674760840833187,0.008646746166050434,passive,0
2.5808,rehab,safe_midrange_fast,0.0,82.32797096429148,28.690382559617127,84.7393875585366,-25.438292272603622,-89.02890449613814,0.0,3.5259,3.2866,0.0,-2.4601,-1.2008,0.0,7.115e-321,nan,0.0,3.5e-323,8.792833134144e-312,0.0,3.512700564088504e-303,0.0,5.0,0.7776177102580862,24.35,-0.8588,-0.4588,-0.9861,0.0132,-0.00124,0.01961,0.0009999999310821295,0.0009095495333895087,0.001110862591303885,0.0004999999655410647,0.00046593454317189753,0.00052916060667485,0.009999999776482582,0.011674760840833187,0.008646746166050434,passive,0
2.6004,rehab,safe_midrange_fast,0.0,82.40600228810273,28.7636188663907,84.83070624948503,-25.60512116881166,-89.03097520775357,0.0,3.5074,3.2962,0.0,-3.1414,-2.1257,0.0,7.115e-321,nan,0.0,3.5e-323,8.792833134263e-312,0.0,3.512700564088504e-303,0.0,5.0,0.7786213948280338,24.35,-0.7973,-0.606,-1.1189,0.00344,-0.01028,0.01696,0.0009999999310821295,0.0009095495333895087,0.001110862591303885,0.0004999999655410647,0.00046593454317189753,0.00052916060667485,0.009999999776482582,0.011674760840833187,0.008646746166050434,passive,0
2.6205,rehab,safe_midrange_fast,0.0,82.45824553931304,28.812777781339914,84.89109581960355,-25.71619027194305,-89.03236389081675,0.0,3.3065,3.1223,0.0,-3.1368,-2.3172,0.0,7.115e-321,nan,0.0,3.5e-323,8.79283313434e-312,0.0,3.512700564088504e-303,0.0,5.0,0.7795386898200823,24.35,-0.8595,-0.5325,-1.6461,0.01276,-0.01168,0.0238,0.0009999999310821295,0.0009095495333895087,0.001110862591303885,0.0004999999655410647,0.00046593454317189753,0.00052916060667485,0.009999999776482582,0.011674760840833187,0.008646746166050434,passive,0
2.6405,rehab,safe_midrange_fast,0.0,82.53685046963884,28.887006947305135,84.98096153087793,-25.8825702937726,-89.03445599815552,0.0,3.0833,2.9191,0.0,-2.5158,-1.8581,0.0,7.115e-321,nan,0.0,3.5e-323,8.79283313446e-312,0.0,3.512700564088504e-303,0.0,5.0,0.7803699401204889,24.35,-0.8984,-0.5328,-0.9779,-0.00267,-0.01074,0.01972,0.0009999999310821295,0.0009095495333895087,0.001110862591303885,0.0004999999655410647,0.00046593454317189753,0.00052916060667485,0.009999999776482582,0.011674760840833187,0.008646746166050434,passive,0
2.6608,rehab,safe_midrange_fast,0.0,82.58940200489943,28.93681875285225,85.04039426700133,-25.993340709281696,-89.03585640537527,0.0,3.0305,2.8781,0.0,-1.4173,-0.9297,0.0,7.115e-321,nan,0.0,3.5e-323,8.79283313454e-312,0.0,3.512700564088504e-303,0.0,5.0,0.781106275921945,24.35,-0.9704,-0.4191,-0.1995,-0.00101,-0.01102,0.0173,0.0009999999310821295,0.0009095495333895087,0.001110862591303885,0.0004999999655410647,0.00046593454317189753,0.00052916060667485,0.009999999776482582,0.011674760840833187,0.008646746166050434,passive,0
2.6809,rehab,safe_midrange_fast,0.0,82.66854609362396,29.0120369842451,85.12880650994822,-26.159266416802403,-89.03796890239413,0.0,3.1935,3.0379,0.0,0.4931,0.7669,0.0,7.115e-321,nan,0.0,3.5e-323,8.79283313466e-312,0.0,3.512700564088504e-303,0.0,5.0,0.7825816391594516,24.35,-0.9705,-0.3866,-0.7786,0.00212,-0.00416,0.02106,0.0009999999310821295,0.0009095495333895087,0.001110862591303885,0.0004999999655410647,0.00046593454317189753,0.00052916060667485,0.009999999776482582,0.011674760840833187,0.008646746166050434,passive,0
2.7007,rehab,safe_midrange_fast,0.0,82.72152716481003,29.062517272840783,85.18725397685299,-26.26972879554404,-89.03938544697927,0.0,3.2956,3.142,0.0,3.3571,3.4048,0.0,7.115e-321,nan,0.0,3.5e-323,8.792833134737e-312,0.0,3.512700564088504e-303,0.0,5.0,0.7834118338241098,24.35,-0.8931,-0.4074,-0.4639,0.00024,-0.00356,0.0144,0.0009999999310821295,0.0009095495333895087,0.001110862591303885,0.0004999999655410647,0.00046593454317189753,0.00052916060667485,0.009999999776482582,0.011674760840833187,0.008646746166050434,passive,0
2.7204,rehab,safe_midrange_fast,0.0,82.76138475313269,29.100554298925232,85.23082807363424,-26.35249342966981,-89.0404524386094,0.0,3.3432,3.1919,0.0,5.4091,5.305,0.0,7.115e-321,nan,0.0,3.5e-323,8.792833134816e-312,0.0,3.512700564088504e-303,0.0,5.0,0.7843267388940595,24.35,-1.0639,-0.4902,-0.6231,-0.01564,-0.01312,0.01658,0.0009999999310821295,0.0009095495333895087,0.001110862591303885,0.0004999999655410647,0.00046593454317189753,0.00052916060667485,0.009999999776482582,0.011674760840833187,0.008646746166050434,passive,0
2.7405,rehab,safe_midrange_fast,0.0,82.85496963522446,29.189920727654723,85.33158991683733,-26.545326890998215,-89.04296373675636,0.0,3.3843,3.2338,0.0,5.0278,4.8632,0.0,7.115e-321,nan,0.0,3.5e-323,8.792833134935e-312,0.0,3.512700564088504e-303,0.0,5.0,0.786871413132181,24.35,-1.0741,-0.3751,-0.7724,-0.01831,-0.00431,0.01939,0.0009999999310821295,0.0009095495333895087,0.001110862591303885,0.0004999999655410647,0.00046593454317189753,0.00052916060667485,0.009999999776482582,0.011674760840833187,0.008646746166050434,passive,0
2.7606,rehab,safe_midrange_fast,0.0,82.92232101568287,29.254281373153177,85.40277707596051,-26.68281875776422,-89.04477632643109,0.0,3.444,3.2911,0.0,2.5842,2.4645,0.0,7.115e-321,nan,0.0,3.5e-323,8.792833135034e-312,0.0,3.512700564088504e-303,0.0,5.0,0.7886173875049636,24.35,-1.0526,-0.3671,-0.2507,-0.0074,-0.00674,0.01659,0.0009999999310821295,0.0009095495333895087,0.001110862591303885,0.0004999999655410647,0.00046593454317189753,0.00052916060667485,0.009999999776482582,0.011674760840833187,0.008646746166050434,passive,0
2.7809,rehab,safe_midrange_fast,0.0,83.00373841301115,29.332101336048943,85.48732397027132,-26.847532546983164,-89.04697366132791,0.0,3.5507,3.3922,0.0,0.3454,0.2554,0.0,7.115e-321,nan,0.0,3.5e-323,8.79283313515e-312,0.0,3.512700564088504e-303,0.0,5.0,0.7912932426756607,24.35,-1.0024,-0.3429,-0.5708,0.00169,-0.0082,0.02547,0.0009999999310821295,0.0009095495333895087,0.001110862591303885,0.0004999999655410647,0.00046593454317189753,0.00052916060667485,0.009999999776482582,0.011674760840833187,0.008646746166050434,passive,0
2.8007,rehab,safe_midrange_fast,0.0,83.05845797042392,29.384349025941315,85.54313665698798,-26.957168369025588,-89.04845493799614,0.0,3.6393,3.4737,0.0,-0.5308,-0.6688,0.0,7.115e-321,nan,0.0,3.5e-323,8.79283313523e-312,0.0,3.512700564088504e-303,0.0,5.0,0.7932400368953132,24.35,-1.0214,-0.346,-0.1101,-0.00494,-0.00264,0.01929,0.0009999999310821295,0.0009095495333895087,0.001110862591303885,0.0004999999655410647,0.00046593454317189753,0.00052916060667485,0.009999999776482582,0.011674760840833187,0.008646746166050434,passive,0
2.8209,rehab,safe_midrange_fast,0.0,83.14121382267251,29.46327613571791,85.62601910754951,-27.121357670610095,-89.05070206831982,0.0,3.6025,3.4323,0.0,-0.8712,-1.0873,0.0,7.115e-321,nan,0.0,3.5e-323,8.79283313535e-312,0.0,3.512700564088504e-303,0.0,5.0,0.7962432972635504,24.35,-0.8986,-0.4107,-1.3491,-0.01472,-0.01018,0.01583,0.0009999999310821295,0.0009095495333895087,0.001110862591303885,0.0004999999655410647,0.00046593454317189753,0.00052916060667485,0.009999999776482582,0.011674760840833187,0.008646746166050434,passive,0
2.8407,rehab,safe_midrange_fast,0.0,83.19685232198738,29.516268159954596,85.68070928777102,-27.230637858435486,-89.05221763839266,0.0,3.4413,3.2748,0.0,-1.0652,-1.3786,0.0,7.115e-321,nan,0.0,3.5e-323,8.79283313543e-312,0.0,3.512700564088504e-303,0.0,5.0,0.7983704593592706,24.35,-1.1489,-0.3844,-0.8318,-0.03216,-0.00633,0.01758,0.0009999999310821295,0.0009095495333895087,0.001110862591303885,0.0004999999655410647,0.00046593454317189753,0.00052916060667485,0.009999999776482582,0.011674760840833187,0.008646746166050434,passive,0
2.8603,rehab,safe_midrange_fast,0.0,83.281096573047,29.596331299069643,85.76187244681806,-27.39428073586105,-89.05452036519614,0.0,3.341,3.1726,0.0,-0.6306,-1.0781,0.0,7.115e-321,nan,0.0,3.5e-323,8.792833135548e-312,0.0,3.512700564088504e-303,0.0,5.0,0.80207474064177,24.35,-0.8756,-0.3222,-0.9221,-0.01029,-0.00522,0.01531,0.0009999999310821295,0.0009095495333895087,0.001110862591303885,0.0004999999655410647,0.00046593454317189753,0.00052916060667485,0.009999999776482582,0.011674760840833187,0.008646746166050434,passive,0
2.8806,rehab,safe_midrange_fast,0.0,83.33783550772799,29.65009905277956,85.81538411991461,-27.503185729108413,-89.05607702963273,0.0,3.4078,3.2249,0.0,0.6431,0.0224,0.0,7.115e-321,nan,0.0,3.5e-323,8.792833135627e-312,0.0,3.512700564088504e-303,0.0,5.0,0.8046790076985361,24.35,-0.9476,-0.377,-0.9887,-0.01134,-0.01094,0.01513,0.0009999999310821295,0.0009095495333895087,0.001110862591303885,0.0004999999655410647,0.00046593454317189753,0.00052916060667485,0.009999999776482582,0.011674760840833187,0.008646746166050434,passive,0
2.9007,rehab,safe_midrange_fast,0.0,83.42387580764867,29.73135200797735,85.89473278277912,-27.666249316185898,-89.05844687459997,0.0,3.5262,3.3228,0.0,2.9031,2.0081,0.0,7.115e-321,nan,0.0,3.5e-323,8.792833135745e-312,0.0,3.512700564088504e-303,0.0,5.0,0.8090797781593135,24.35,-0.8889,-0.4205,-1.031,-0.00829,0.01706,0.0174,0.0009999999310821295,0.0009095495333895087,0.001110862591303885,0.0004999999655410647,0.00046593454317189753,0.00052916060667485,0.009999999776482582,0.011674760840833187,0.008646746166050434,passive,0
2.9206,rehab,safe_midrange_fast,0.0,83.48193205163192,29.78593442376616,85.94699711057724,-27.774755213403743,-89.06005278096673,0.0,3.6032,3.3799,0.0,5.766,4.5268,0.0,7.115e-321,nan,0.0,3.5e-323,8.792833135824e-312,0.0,3.512700564088504e-303,0.0,5.0,0.8124104106701063,24.35,-0.9946,-0.38,-1.6843,0.00332,0.00684,0.02372,0.0009999999310821295,0.0009095495333895087,0.001110862591303885,0.0004999999655410647,0.00046593454317189753,0.00052916060667485,0.009999999776482582,0.011674760840833187,0.008646746166050434,passive,0
2.9408,rehab,safe_midrange_fast,0.0,83.52587209617103,29.82709436996918,85.98585181008387,-27.856024489689954,-89.06127208227332,0.0,3.6868,3.4389,0.0,6.6351,5.1817,0.0,7.115e-321,nan,0.0,3.5e-323,8.792833135903e-312,0.0,3.512700564088504e-303,0.0,5.0,0.8150562415427389,24.35,-1.0255,-0.4432,-1.9311,-0.00138,0.00213,0.02773,0.0009999999310821295,0.0009095495333895087,0.001110862591303885,0.0004999999655410647,0.00046593454317189753,0.00052916060667485,0.009999999776482582,0.011674760840833187,0.008646746166050434,passive,0
2.9608,rehab,safe_midrange_fast,0.0,83.6447594281649,29.93780243252019,86.08799905296092,-28.07226961827736,-89.06458782426068,0.0,3.8292,3.5509,0.0,4.9014,3.3816,0.0,7.115e-321,nan,0.0,3.5e-323,8.79283313604e-312,0.0,3.512700564088504e-303,0.0,5.0,0.8225682464167907,24.35,-0.6903,-0.2073,-1.1083,0.02303,0.00105,0.02409,0.0009999999310821295,0.0009095495333895087,0.001110862591303885,0.0004999999655410647,0.00046593454317189753,0.00052916060667485,0.009999999776482582,0.011674760840833187,0.008646746166050434,passive,0
2.9805,rehab,safe_midrange_fast,0.0,83.7052448450446,29.99369332985282,86.13823941742473,-28.180122830899226,-89.06628475899788,0.0,3.9107,3.6022,0.0,2.962,1.3968,0.0,7.115e-321,nan,0.0,3.5e-323,8.79283313612e-312,0.0,3.512700564088504e-303,0.0,5.0,0.8266829313755326,24.35,-0.9321,-0.3684,-0.9869,-0.00289,-0.01125,0.01998,0.0009999999310821295,0.0009095495333895087,0.001110862591303885,0.0004999999655410647,0.00046593454317189753,0.00052916060667485,0.009999999776482582,0.011674760840833187,0.008646746166050434,passive,0
3.0007,rehab,safe_midrange_fast,0.0,83.79739676774916,30.078225506890103,86.21251456176014,-28.341550168659765,-89.06888364012703,0.0,4.0733,3.7188,0.0,1.7542,0.0861,0.0,7.115e-321,nan,0.0,3.5e-323,8.79283313624e-312,0.0,3.512700564088504e-303,0.0,5.0,0.833768827057723,24.35,-0.912,-0.3512,-1.0944,-0.00549,-0.00643,0.02121,0.0009999999310821295,0.0009095495333895087,0.001110862591303885,0.0004999999655410647,0.00046593454317189753,0.00052916060667485,0.009999999776482582,0.011674760840833187,0.008646746166050434,passive,0
3.0206,rehab,safe_midrange_fast,0.0,83.85989353589521,30.135065217373317,86.2612716702061,-28.448921521039328,-89.07065611036991,0.0,4.1069,3.7223,0.0,0.7813,-0.9894,0.0,7.115e-321,nan,0.0,3.5e-323,8.79283313632e-312,0.0,3.512700564088504e-303,0.0,5.0,0.8389240722585782,24.35,-0.9836,-0.3128,-1.3373,-0.01164,0.00207,0.02368,0.0009999999310821295,0.0009095495333895087,0.001110862591303885,0.0004999999655410647,0.00046593454317189753,0.00052916060667485,0.009999999776482582,0.011674760840833187,0.008646746166050434,passive,0
3.0407,rehab,safe_midrange_fast,0.0,83.95536337144021,30.221079932938753,86.33321890371985,-28.60959058954933,-89.07337968665308,0.0,3.9116,3.5037,0.0,-0.0831,-1.9591,0.0,7.115e-321,nan,0.0,3.5e-323,8.79283313644e-312,0.0,3.512700564088504e-303,0.0,5.0,0.8475514236422641,24.35,-0.9818,-0.3819,-0.7829,-0.02427,-0.00438,0.01804,0.0009999999310821295,0.0009095495333895087,0.001110862591303885,0.0004999999655410647,0.00046593454317189753,0.00052916060667485,0.009999999776482582,0.011674760840833187,0.008646746166050434,passive,0
3.0607,rehab,safe_midrange_fast,0.0,84.02028204154911,30.27894820903053,86.38034709877279,-28.71642537639761,-89.0752432922199,0.0,3.903,3.4546,0.0,0.1248,-1.9919,0.0,7.115e-321,nan,0.0,3.5e-323,8.79283313652e-312,0.0,3.512700564088504e-303,0.0,5.0,0.8539054755532934,24.35,-0.9872,-0.2576,-1.1339,-0.00658,0.00777,0.02798,0.0009999999310821295,0.0009095495333895087,0.001110862591303885,0.0004999999655410647,0.00046593454317189753,0.00052916060667485,0.009999999776482582,0.011674760840833187,0.008646746166050434,passive,0
3.0807,rehab,safe_midrange_fast,0.0,84.11972959539668,30.366434997133794,86.44954153976705,-28.87591883073147,-89.07811815787998,0.0,3.9885,3.4892,0.0,1.3827,-1.0708,0.0,7.115e-321,nan,0.0,3.5e-323,8.79283313664e-312,0.0,3.512700564088504e-303,0.0,5.0,0.862307810623771,24.35,-0.8101,-0.1886,-1.0056,0.00425,-0.00756,0.01962,0.0009999999310821295,0.0009095495333895087,0.001110862591303885,0.0004999999655410647,0.00046593454317189753,0.00052916060667485,0.009999999776482582,0.011674760840833187,0.008646746166050434,passive,0
3.1009,rehab,safe_midrange_fast,0.0,84.18729485720648,30.425042808046904,86.49448281710791,-28.98137590088005,-89.0800854705293,0.0,4.0405,3.4911,0.0,3.5236,0.6421,0.0,7.115e-321,nan,0.0,3.5e-323,8.79283313672e-312,0.0,3.512700564088504e-303,0.0,5.0,0.8656245395126846,24.35,-0.9025,-0.3616,-1.6197,-0.02163,-0.00057,0.0188,0.0009999999310821295,0.0009095495333895087,0.001110862591303885,0.0004999999655410647,0.00046593454317189753,0.00052916060667485,0.009999999776482582,0.011674760840833187,0.008646746166050434,passive,0
3.1206,rehab,safe_midrange_fast,0.0,84.25568618037427,30.48371866299206,86.53834855006235,-29.085846570201912,-89.08208806340336,0.0,4.1121,3.5055,0.0,5.9039,2.5744,0.0,7.115e-321,nan,0.0,3.5e-323,8.792833136797e-312,0.0,3.512700564088504e-303,0.0,5.0,0.8669848637410791,24.35,-0.9708,-0.1645,-1.0479,-0.0187,-0.00012,0.0188,0.0009999999310821295,0.0009095495333895087,0.001110862591303885,0.0004999999655410647,0.00046593454317189753,0.00052916060667485,0.009999999776482582,0.011674760840833187,0.008646746166050434,passive,0
3.1408,rehab,safe_midrange_fast,0.0,84.35946803342435,30.571555626885022,86.60190762728344,-29.24016560343588,-89.08514801207149,0.0,4.2369,3.5583,0.0,6.8524,3.1312,0.0,7.115e-321,nan,0.0,3.5e-323,8.79283313692e-312,0.0,3.512700564088504e-303,0.0,5.0,0.8653557008788871,24.35,-0.8579,-0.1996,-1.2,-0.01568,0.00227,0.01877,0.0009999999310821295,0.0009095495333895087,0.001110862591303885,0.0004999999655410647,0.00046593454317189753,0.00052916060667485,0.009999999776482582,0.011674760840833187,0.008646746166050434,passive,0
3.1608,rehab,safe_midrange_fast,0.0,84.42921652411592,30.629788838455312,86.6426451097484,-29.34109778631555,-89.0872185931939,0.0,4.4172,3.6551,0.0,5.7509,1.931,0.0,7.115e-321,nan,0.0,3.5e-323,8.792833136995e-312,0.0,3.512700564088504e-303,0.0,5.0,0.861824042368022,24.35,-0.9813,-0.0915,-0.9718,-0.01161,0.00035,0.02201,0.0009999999310821295,0.0009095495333895087,0.001110862591303885,0.0004999999655410647,0.00046593454317189753,0.00052916060667485,0.009999999776482582,0.011674760840833187,0.008646746166050434,passive,0
3.1806,rehab,safe_midrange_fast,0.0,84.53427562102429,30.71628947381226,86.70106668415781,-29.488969977173713,-89.09035874261109,0.0,4.5327,3.6964,0.0,3.391,-0.1123,0.0,7.115e-321,nan,0.0,3.5e-323,8.792833137114e-312,0.0,3.512700564088504e-303,0.0,5.0,0.8528632816374737,24.35,-0.8619,0.0045,-1.077,-0.00625,0.00082,0.0236,0.0009999999310821295,0.0009095495333895087,0.001110862591303885,0.0004999999655410647,0.00046593454317189753,0.00052916060667485,0.009999999776482582,0.011674760840833187,0.008646746166050434,passive,0
3.2007,rehab,safe_midrange_fast,0.0,84.60438711832069,30.773177996136546,86.73809155558322,-29.58484902103286,-89.09246882473194,0.0,4.5989,3.6922,0.0,0.7565,-2.371,0.0,7.115e-321,nan,0.0,3.5e-323,8.792833137193e-312,0.0,3.512700564088504e-303,0.0,5.0,0.8447435625134709,24.35,-0.8373,-0.0615,-0.8054,-0.00334,0.00067,0.01339,0.0009999999310821295,0.0009095495333895087,0.001110862591303885,0.0004999999655410647,0.00046593454317189753,0.00052916060667485,0.009999999776482582,0.011674760840833187,0.008646746166050434,passive,0
3.2209,rehab,safe_midrange_fast,0.0,84.72705624098211,30.870788033076025,86.79879053822938,-29.746591492701825,-89.09619165817575,0.0,4.6119,3.623,0.0,-2.0155,-4.8416,0.0,7.115e-321,nan,0.0,3.5e-323,8.79283313733e-312,0.0,3.512700564088504e-303,0.0,5.0,0.828199911193307,24.35,-0.7998,-0.0568,-1.062,0.00219,-0.00727,0.01932,0.0009999999310821295,0.0009095495333895087,0.001110862591303885,0.0004999999655410647,0.00046593454317189753,0.00052916060667485,0.009999999776482582,0.011674760840833187,0.008646746166050434,passive,0
3.2408,rehab,safe_midrange_fast,0.0,84.79701730001803,30.92521917956118,86.83095351426763,-29.835140594101937,-89.09833391794645,0.0,4.5425,3.5039,0.0,-4.366,-7.02,0.0,7.115e-321,nan,0.0,3.5e-323,8.79283313741e-312,0.0,3.512700564088504e-303,0.0,5.0,0.8165354994502606,24.35,-0.6726,0.0225,-1.0535,0.00501,-0.00161,0.02116,0.0009999999310821295,0.0009095495333895087,0.001110862591303885,0.0004999999655410647,0.00046593454317189753,0.00052916060667485,0.009999999776482582,0.011674760840833187,0.008646746166050434,passive,0
3.2605,rehab,safe_midrange_fast,0.0,84.90136537162032,31.004623666394707,86.87554903041685,-29.962052185880054,-89.10155586691484,0.0,4.2905,3.2448,0.0,-5.3218,-7.9552,0.0,7.115e-321,nan,0.0,3.5e-323,8.79283313753e-312,0.0,3.512700564088504e-303,0.0,5.0,0.7955299574061914,24.35,-0.819,0.0093,-0.637,-0.02886,0.00729,0.01287,0.0009999999310821295,0.0009095495333895087,0.001110862591303885,0.0004999999655410647,0.00046593454317189753,0.00052916060667485,0.009999999776482582,0.011674760840833187,0.008646746166050434,passive,0
3.2812,rehab,safe_midrange_fast,0.0,84.97029930179293,31.05583646175298,86.90274085557415,-30.042377446081062,-89.10370259764476,0.0,4.1646,3.0675,0.0,-5.5004,-8.3078,0.0,7.115e-321,nan,0.0,3.5e-323,8.79283313761e-312,0.0,3.512700564088504e-303,0.0,5.0,0.7792115612273007,24.35,-0.7613,0.0924,-0.6869,-0.01185,-0.00122,0.01609,0.0009999999310821295,0.0009095495333895087,0.001110862591303885,0.0004999999655410647,0.00046593454317189753,0.00052916060667485,0.009999999776482582,0.011674760840833187,0.008646746166050434,passive,0
3.3007,rehab,safe_midrange_fast,0.0,85.07234896591783,31.129673251769045,86.9395483436504,-30.15586099836161,-89.10690886683864,0.0,4.1349,2.9533,0.0,-4.8019,-8.1188,0.0,7.115e-321,nan,0.0,3.5e-323,8.792833137726e-312,0.0,3.512700564088504e-303,0.0,5.0,0.7513173397680499,24.35,-0.6624,-0.0689,-0.5298,-0.01682,0.00372,0.01278,0.0009999999310821295,0.0009095495333895087,0.001110862591303885,0.0004999999655410647,0.00046593454317189753,0.00052916060667485,0.009999999776482582,0.011674760840833187,0.008646746166050434,passive,0
3.3207,rehab,safe_midrange_fast,0.0,85.13924563797107,31.176675252682337,86.96133736469861,-30.226510679759844,-89.10903013319913,0.0,4.041,2.7916,0.0,-3.0742,-7.167,0.0,7.115e-321,nan,0.0,3.5e-323,8.7928331378e-312,0.0,3.512700564088504e-303,0.0,5.0,0.7304857782679597,24.35,-0.6274,0.0937,-1.0855,-0.00495,-0.00238,0.01877,0.0009999999310821295,0.0009095495333895087,0.001110862591303885,0.0004999999655410647,0.00046593454317189753,0.00052916060667485,0.009999999776482582,0.011674760840833187,0.008646746166050434,passive,0
3.3407,rehab,safe_midrange_fast,0.0,85.20504473055604,31.22171020866067,86.9808533723102,-30.292887865679393,-89.11113274821518,0.0,4.0271,2.6865,0.0,-2.0267,-6.6661,0.0,7.115e-321,nan,0.0,3.5e-323,8.79283313788e-312,0.0,3.512700564088504e-303,0.0,5.0,0.7079092335454211,24.35,-0.7397,-0.0074,-0.9981,-0.02842,-2e-05,0.01179,0.0009999999310821295,0.0009095495333895087,0.001110862591303885,0.0004999999655410647,0.00046593454317189753,0.00052916060667485,0.009999999776482582,0.011674760840833187,0.008646746166050434,passive,0
3.3607,rehab,safe_midrange_fast,0.0,85.30133224253603,31.28521723449653,87.00573304554794,-30.383943613809535,-89.11424103300024,0.0,3.9555,2.5346,0.0,-3.26,-7.5864,0.0,7.115e-321,nan,0.0,3.5e-323,8.792833138e-312,0.0,3.512700564088504e-303,0.0,5.0,0.6708804751646715,24.35,-0.491,-0.0275,-0.8934,-0.01695,-0.01577,0.00905,0.0009999999310821295,0.0009095495333895087,0.001110862591303885,0.0004999999655410647,0.00046593454317189753,0.00052916060667485,0.009999999776482582,0.011674760840833187,0.008646746166050434,passive,0
3.3808,rehab,safe_midrange_fast,0.0,85.37901491262946,31.334078677511737,87.02231206453067,-30.451534621794444,-89.11677890020351,0.0,3.8922,2.3784,0.0,-6.1813,-9.5703,0.0,7.115e-321,nan,0.0,3.5e-323,8.792833138097e-312,0.0,3.512700564088504e-303,0.0,5.0,0.6372634796734356,24.35,-0.4576,0.0745,-0.7967,-0.01221,-0.00472,0.01452,0.0009999999310821295,0.0009095495333895087,0.001110862591303885,0.0004999999655410647,0.00046593454317189753,0.00052916060667485,0.009999999776482582,0.011674760840833187,0.008646746166050434,passive,0
3.4006,rehab,safe_midrange_fast,0.0,85.46869447067373,31.387357381595752,87.03705549711033,-30.522036547910027,-89.11974708107302,0.0,3.8416,2.2114,0.0,-8.2746,-11.1503,0.0,7.115e-321,nan,0.0,3.5e-323,8.792833138215e-312,0.0,3.512700564088504e-303,0.0,5.0,0.5938771092697163,24.35,-0.349,0.2481,-0.1789,0.00153,-0.00743,0.01907,0.0009999999310821295,0.0009095495333895087,0.001110862591303885,0.0004999999655410647,0.00046593454317189753,0.00052916060667485,0.009999999776482582,0.011674760840833187,0.008646746166050434,passive,0
3.4207,rehab,safe_midrange_fast,0.0,85.52608365912714,31.41937297751534,87.04367491876847,-30.562257000721758,-89.12167129010578,0.0,3.6555,1.9875,0.0,-9.961,-12.4359,0.0,7.115e-321,nan,0.0,3.5e-323,8.792833138295e-312,0.0,3.512700564088504e-303,0.0,5.0,0.5633068999591319,24.35,-0.2617,0.1229,-0.5102,-0.01324,-0.00372,0.01199,0.0009999999310821295,0.0009095495333895087,0.001110862591303885,0.0004999999655410647,0.00046593454317189753,0.00052916060667485,0.009999999776482582,0.011674760840833187,0.008646746166050434,passive,0
3.4407,rehab,safe_midrange_fast,0.0,85.60816872448638,31.46172849354264,87.0486505819168,-30.611854153180253,-89.12446326056366,0.0,3.3118,1.643,0.0,-11.503,-13.6092,0.0,7.115e-321,nan,0.0,3.5e-323,8.792833138413e-312,0.0,3.512700564088504e-303,0.0,5.0,0.5154457083227398,24.35,-0.1946,0.2061,-0.7453,0.00565,-0.00547,0.00934,0.0009999999310821295,0.0009095495333895087,0.001110862591303885,0.0004999999655410647,0.00046593454317189753,0.00052916060667485,0.009999999776482582,0.011674760840833187,0.008646746166050434,passive,0
3.4608,rehab,safe_midrange_fast,0.0,85.65999132754696,31.485947034337464,87.0485836785344,-30.63743553193384,-89.12625436473054,0.0,3.0037,1.3329,0.0,-11.7661,-14.2729,0.0,7.115e-321,nan,0.0,3.5e-323,8.79283313849e-312,0.0,3.512700564088504e-303,0.0,5.0,0.4825920133956805,24.35,-0.3365,0.2372,-0.6413,-0.00821,-0.00841,0.01189,0.0009999999310821295,0.0009095495333895087,0.001110862591303885,0.0004999999655410647,0.00046593454317189753,0.00052916060667485,0.009999999776482582,0.011674760840833187,0.008646746166050434,passive,0
3.4809,rehab,safe_midrange_fast,0.0,85.73297141292497,31.51583836411301,87.04326452776607,-30.664020508850424,-89.12882310956462,0.0,2.7913,1.0623,0.0,-11.5283,-14.5866,0.0,7.115e-321,nan,0.0,3.5e-323,8.79283313861e-312,0.0,3.512700564088504e-303,0.0,5.0,0.4328905891619306,24.35,-0.1655,0.2324,-0.6439,-0.00268,0.00596,0.01089,0.0009999999310821295,0.0009095495333895087,0.001110862591303885,0.0004999999655410647,0.00046593454317189753,0.00052916060667485,0.009999999776482582,0.011674760840833187,0.008646746166050434,passive,0
3.5009,rehab,safe_midrange_fast,0.0,85.77822077372979,31.5312385465867,87.03615330429706,-30.67355737783834,-89.1304496181382,0.0,2.67,0.815,0.0,-10.7718,-14.4232,0.0,7.115e-321,nan,0.0,3.5e-323,8.79283313869e-312,0.0,3.512700564088504e-303,0.0,5.0,0.4003528911007648,24.35,-0.1191,0.2667,-0.3485,-0.00047,-0.00061,0.00481,0.0009999999310821295,0.0009095495333895087,0.001110862591303885,0.0004999999655410647,0.00046593454317189753,0.00052916060667485,0.009999999776482582,0.011674760840833187,0.008646746166050434,passive,0
3.5206,rehab,safe_midrange_fast,0.0,85.82055922819318,31.54287248243023,87.02616781294182,-30.67637369602135,-89.13200098666677,0.0,2.4073,0.5316,0.0,-9.5828,-13.366,0.0,7.115e-321,nan,0.0,3.5e-323,8.792833138774e-312,0.0,3.512700564088504e-303,0.0,5.0,0.3693970151331631,24.35,-0.0712,0.2781,-0.2486,-0.00215,-0.0139,0.00212,0.0009999999310821295,0.0009095495333895087,0.001110862591303885,0.0004999999655410647,0.00046593454317189753,0.00052916060667485,0.009999999776482582,0.011674760840833187,0.008646746166050434,passive,0
3.5419,rehab,safe_midrange_fast,0.0,85.87825822704106,31.55335884793143,87.00616932589328,-30.66845404204153,-89.13417161098808,0.0,2.2461,0.2389,0.0,-10.3921,-13.3806,0.0,7.115e-321,nan,0.0,3.5e-323,8.79283313889e-312,0.0,3.512700564088504e-303,0.0,5.0,0.32757032913762857,24.35,-0.0839,0.4259,-0.3029,0.00609,-0.01038,0.00937,0.0009999999310821295,0.0009095495333895087,0.001110862591303885,0.0004999999655410647,0.00046593454317189753,0.00052916060667485,0.009999999776482582,0.011674760840833187,0.008646746166050434,passive,0
3.5606,rehab,safe_midrange_fast,0.0,85.91261810904442,31.555820686106504,86.98978453910031,-30.655480307378184,-89.13550357490888,0.0,2.0869,-0.0131,0.0,-12.5812,-14.1097,0.0,7.115e-321,nan,0.0,3.5e-323,8.792833138966e-312,0.0,3.512700564088504e-303,0.0,5.0,0.30355568215387374,24.35,-0.113,0.4589,-0.3052,-0.00102,-0.0013,0.00666,0.0009999999310821295,0.0009095495333895087,0.001110862591303885,0.0004999999655410647,0.00046593454317189753,0.00052916060667485,0.009999999776482582,0.011674760840833187,0.008646746166050434,passive,0
3.5806,rehab,safe_midrange_fast,0.0,85.96429745027771,31.551686043302677,86.95591280192345,-30.618904103135996,-89.13758755364798,0.0,1.7637,-0.2924,0.0,-14.7813,-14.0534,0.0,7.115e-321,nan,0.0,3.5e-323,8.792833139105e-312,0.0,3.512700564088504e-303,0.0,5.0,0.2714497873080201,24.35,0.0184,0.3739,-0.7291,-0.00053,-0.0023,0.00889,0.0009999999310821295,0.0009095495333895087,0.001110862591303885,0.0004999999655410647,0.00046593454317189753,0.00052916060667485,0.009999999776482582,0.011674760840833187,0.008646746166050434,passive,0
3.6005,rehab,safe_midrange_fast,0.0,85.9887242646582,31.544641323987726,86.93392269376085,-30.59054720725579,-89.1386245029023,0.0,1.4936,-0.5432,0.0,-16.0617,-13.2707,0.0,7.115e-321,nan,0.0,3.5e-323,8.792833139184e-312,0.0,3.512700564088504e-303,0.0,5.0,0.2602145813308849,24.35,0.1551,0.4764,-0.1459,0.00509,-0.01064,0.00233,0.0009999999310821295,0.0009095495333895087,0.001110862591303885,0.0004999999655410647,0.00046593454317189753,0.00052916060667485,0.009999999776482582,0.011674760840833187,0.008646746166050434,passive,0
3.6207,rehab,safe_midrange_fast,0.0,86.01797844612659,31.52791464630373,86.89785437795283,-30.538567744952537,-89.13995035685399,0.0,1.1054,-0.8222,0.0,-17.0786,-12.1315,0.0,7.115e-321,nan,0.0,3.5e-323,8.7928331393e-312,0.0,3.512700564088504e-303,0.0,5.0,0.25500930842078146,24.35,0.0652,0.5944,-0.1683,-0.00273,-0.01379,0.00349,0.0009999999310821295,0.0009095495333895087,0.001110862591303885,0.0004999999655410647,0.00046593454317189753,0.00052916060667485,0.009999999776482582,0.011674760840833187,0.008646746166050434,passive,0
3.6405,rehab,safe_midrange_fast,0.0,86.03232340823554,31.51278322186552,86.87202845973235,-30.49801355130925,-89.1406704211479,0.0,0.7402,-1.0751,0.0,-17.9646,-11.4048,0.0,7.115e-321,nan,0.0,3.5e-323,8.79283313938e-312,0.0,3.512700564088504e-303,0.0,5.0,0.25979984973289916,24.35,0.2869,0.4137,-0.0004,0.00221,-0.00693,-0.00445,0.0009999999310821295,0.0009095495333895087,0.001110862591303885,0.0004999999655410647,0.00046593454317189753,0.00052916060667485,0.009999999776482582,0.011674760840833187,0.008646746166050434,passive,0
3.6606,rehab,safe_midrange_fast,0.0,86.045703150354,31.48433575453461,86.83108270329309,-30.429003372679578,-89.14148633140303,0.0,0.3201,-1.3638,0.0,-17.8821,-10.7844,0.0,7.115e-321,nan,0.0,3.5e-323,8.7928331395e-312,0.0,3.512700564088504e-303,0.0,5.0,0.2788763061670918,24.35,0.4156,0.6586,0.2404,0.01399,-0.00563,-0.00968,0.0009999999310821295,0.0009095495333895087,0.001110862591303885,0.0004999999655410647,0.00046593454317189753,0.00052916060667485,0.009999999776482582,0.011674760840833187,0.008646746166050434,passive,0
3.6805,rehab,safe_midrange_fast,0.0,86.04896382886048,31.46166790225529,86.80258012965585,-30.37793412621911,-89.14184345033914,0.0,0.0258,-1.4936,0.0,-17.7138,-10.3545,0.0,7.115e-321,nan,0.0,3.5e-323,8.79283313958e-312,0.0,3.512700564088504e-303,0.0,5.0,0.29860768992801084,24.35,0.3423,0.6303,0.3202,0.00898,-0.01495,0.00034,0.0009999999310821295,0.0009095495333895087,0.001110862591303885,0.0004999999655410647,0.00046593454317189753,0.00052916060667485,0.009999999776482582,0.011674760840833187,0.008646746166050434,passive,0
3.7006,rehab,safe_midrange_fast,0.0,86.04507914706782,31.422362982555278,86.75842727532942,-30.294388902434857,-89.14208497168278,0.0,-0.2597,-1.6172,0.0,-17.1272,-9.7284,0.0,7.115e-321,nan,0.0,3.5e-323,8.7928331397e-312,0.0,3.512700564088504e-303,0.0,5.0,0.3365006295760509,24.35,0.3629,0.7861,0.6676,0.02209,-0.0118,0.00301,0.0009999999310821295,0.0009095495333895087,0.001110862591303885,0.0004999999655410647,0.00046593454317189753,0.00052916060667485,0.009999999776482582,0.011674760840833187,0.008646746166050434,passive,0
3.7208,rehab,safe_midrange_fast,0.0,86.0367795752588,31.392835667742577,86.72818967101342,-30.234409960706902,-89.14205341436552,0.0,-0.6292,-1.856,0.0,-16.6359,-9.3112,0.0,7.115e-321,nan,0.0,3.5e-323,8.792833139777e-312,0.0,3.512700564088504e-303,0.0,5.0,0.3652248708207392,24.35,0.4527,0.6735,0.4335,0.02638,-0.01241,-7e-05,0.0009999999310821295,0.0009095495333895087,0.001110862591303885,0.0004999999655410647,0.00046593454317189753,0.00052916060667485,0.009999999776482582,0.011674760840833187,0.008646746166050434,passive,0
3.7407,rehab,safe_midrange_fast,0.0,86.0161679624868,31.343957141218137,86.6817921633356,-30.138590062623116,-89.14172946301464,0.0,-0.9829,-2.0741,0.0,-16.384,-9.1522,0.0,7.115e-321,nan,0.0,3.5e-323,8.792833139895e-312,0.0,3.512700564088504e-303,0.0,5.0,0.4104526750599166,24.35,0.4725,0.5924,0.0229,0.01049,-0.01049,-0.00345,0.0009999999310821295,0.0009095495333895087,0.001110862591303885,0.0004999999655410647,0.00046593454317189753,0.00052916060667485,0.009999999776482582,0.011674760840833187,0.008646746166050434,passive,0
3.7607,rehab,safe_midrange_fast,0.0,85.99722030914914,31.308546971618565,86.6502582872466,-30.07114110871415,-89.14133629738868,0.0,-1.3334,-2.287,0.0,-16.3087,-9.4121,0.0,7.115e-321,nan,0.0,3.5e-323,8.792833139974e-312,0.0,3.512700564088504e-303,0.0,5.0,0.44086605196578516,24.35,0.5649,0.7027,0.1089,0.01663,-0.00188,-0.00097,0.0009999999310821295,0.0009095495333895087,0.001110862591303885,0.0004999999655410647,0.00046593454317189753,0.00052916060667485,0.009999999776482582,0.011674760840833187,0.008646746166050434,passive,0
3.7804,rehab,safe_midrange_fast,0.0,85.9803906012758,31.280620852870964,86.62633574350943,-30.018842052245667,-89.14095193192537,0.0,-1.6399,-2.4511,0.0,-16.4933,-9.6744,0.0,7.115e-321,nan,0.0,3.5e-323,8.792833140053e-312,0.0,3.512700564088504e-303,0.0,5.0,0.4634215404879763,24.35,0.475,0.7186,0.6703,0.02062,-0.00191,-0.00368,0.0009999999310821295,0.0009095495333895087,0.001110862591303885,0.0004999999655410647,0.00046593454317189753,0.00052916060667485,0.009999999776482582,0.011674760840833187,0.008646746166050434,passive,0
3.8006,rehab,safe_midrange_fast,0.0,85.92509003854457,31.200970253182646,86.56161260918165,-29.872981217045535,-89.13956916394012,0.0,-1.9272,-2.5881,0.0,-15.5566,-8.3649,0.0,7.115e-321,nan,0.0,3.5e-323,8.79283314019e-312,0.0,3.512700564088504e-303,0.0,5.0,0.5212827167094811,24.35,0.6108,0.6527,-0.0345,0.00877,-0.00856,-0.0067,0.0009999999310821295,0.0009095495333895087,0.001110862591303885,0.0004999999655410647,0.00046593454317189753,0.00052916060667485,0.009999999776482582,0.011674760840833187,0.008646746166050434,passive,0
3.8208,rehab,safe_midrange_fast,0.0,85.89205717710453,31.158620723626896,86.52885891606914,-29.796986265159937,-89.13869205796735,0.0,-2.236,-2.7629,0.0,-13.6309,-6.1545,0.0,7.115e-321,nan,0.0,3.5e-323,8.79283314027e-312,0.0,3.512700564088504e-303,0.0,5.0,0.5485104667640726,24.35,0.605,0.6788,0.1042,0.02076,-0.01404,-0.00547,0.0009999999310821295,0.0009095495333895087,0.001110862591303885,0.0004999999655410647,0.00046593454317189753,0.00052916060667485,0.009999999776482582,0.011674760840833187,0.008646746166050434,passive,0
3.8406,rehab,safe_midrange_fast,0.0,85.8362322982958,31.092392366371726,86.47941246045875,-29.679800363030353,-89.13715846755863,0.0,-2.4986,-2.8888,0.0,-11.418,-4.0542,0.0,7.115e-321,nan,0.0,3.5e-323,8.79283314039e-312,0.0,3.512700564088504e-303,0.0,5.0,0.5867645141414383,24.35,0.6707,0.7201,0.9961,0.03074,-0.02277,-0.00757,0.0009999999310821295,0.0009095495333895087,0.001110862591303885,0.0004999999655410647,0.00046593454317189753,0.00052916060667485,0.009999999776482582,0.011674760840833187,0.008646746166050434,passive,0
3.8609,rehab,safe_midrange_fast,0.0,85.79506669047299,31.046670154728798,86.44632971229379,-29.599878412460253,-89.13599818791874,0.0,-2.7747,-3.0236,0.0,-9.9005,-2.5252,0.0,7.115e-321,nan,0.0,3.5e-323,8.79283314047e-312,0.0,3.512700564088504e-303,0.0,5.0,0.610383724998824,24.35,0.7958,0.4854,0.2398,0.03,-0.01003,-0.00996,0.0009999999310821295,0.0009095495333895087,0.001110862591303885,0.0004999999655410647,0.00046593454317189753,0.00052916060667485,0.009999999776482582,0.011674760840833187,0.008646746166050434,passive,0
3.8805,rehab,safe_midrange_fast,0.0,85.72779713412083,30.97612816738079,86.3966901118033,-29.477867331291474,-89.13406365946321,0.0,-3.0301,-3.0731,0.0,-9.1555,-1.6968,0.0,7.115e-321,nan,0.0,3.5e-323,8.792833140587e-312,0.0,3.512700564088504e-303,0.0,5.0,0.6427944912824842,24.35,0.5858,0.6663,0.5698,0.02419,-0.00885,-0.00976,0.0009999999310821295,0.0009095495333895087,0.001110862591303885,0.0004999999655410647,0.00046593454317189753,0.00052916060667485,0.009999999776482582,0.011674760840833187,0.008646746166050434,passive,0
3.9005,rehab,safe_midrange_fast,0.0,85.67950476822317,30.928023655054872,86.3636843885427,-29.395440824767178,-89.1326520007699,0.0,-3.0286,-2.9399,0.0,-8.1929,-0.7899,0.0,7.115e-321,nan,0.0,3.5e-323,8.792833140666e-312,0.0,3.512700564088504e-303,0.0,5.0,0.6623093584301709,24.35,0.701,0.4304,0.6132,0.02153,-0.00823,-0.011,0.0009999999310821295,0.0009095495333895087,0.001110862591303885,0.0004999999655410647,0.00046593454317189753,0.00052916060667485,0.009999999776482582,0.011674760840833187,0.008646746166050434,passive,0
3.9206,rehab,safe_midrange_fast,0.0,85.60229978605803,30.854641271652557,86.31448048563037,-29.27074562813579,-89.13036430766383,0.0,-3.1243,-2.9263,0.0,-7.8918,-0.4207,0.0,7.115e-321,nan,0.0,3.5e-323,8.792833140785e-312,0.0,3.512700564088504e-303,0.0,5.0,0.6883442264282884,24.35,0.6062,0.5504,1.2267,0.01504,-0.01002,-0.01388,0.0009999999310821295,0.0009095495333895087,0.001110862591303885,0.0004999999655410647,0.00046593454317189753,0.00052916060667485,0.009999999776482582,0.011674760840833187,0.008646746166050434,passive,0
3.9406,rehab,safe_midrange_fast,0.0,85.5478870728967,30.80512709987538,86.28198643370344,-29.18724788235917,-89.1287331511755,0.0,-3.3287,-2.9786,0.0,-7.8929,-0.5106,0.0,7.115e-321,nan,0.0,3.5e-323,8.792833140864e-312,0.0,3.512700564088504e-303,0.0,5.0,0.7035014967737463,24.35,0.6905,0.5943,0.5938,0.03508,-0.0256,-0.00951,0.0009999999310821295,0.0009095495333895087,0.001110862591303885,0.0004999999655410647,0.00046593454317189753,0.00052916060667485,0.009999999776482582,0.011674760840833187,0.008646746166050434,passive,0
3.9609,rehab,safe_midrange_fast,0.0,85.46225673743629,30.73034705128986,86.23389675718113,-29.06202897373458,-89.12614012779942,0.0,-3.5932,-3.0767,0.0,-8.3044,-0.9188,0.0,7.115e-321,nan,0.0,3.5e-323,8.79283314098e-312,0.0,3.512700564088504e-303,0.0,5.0,0.7228895520453676,24.35,0.453,0.5107,0.5266,0.00951,-0.00785,-0.00908,0.0009999999310821295,0.0009095495333895087,0.001110862591303885,0.0004999999655410647,0.00046593454317189753,0.00052916060667485,0.009999999776482582,0.011674760840833187,0.008646746166050434,passive,0
3.9803,rehab,safe_midrange_fast,0.0,85.40273073959322,30.680373225818897,86.20238616925239,-28.978907973186587,-89.12432135137993,0.0,-3.7599,-3.0985,0.0,-9.3671,-1.823,0.0,7.115e-321,nan,0.0,3.5e-323,8.79283314106e-312,0.0,3.512700564088504e-303,0.0,5.0,0.7335644248824776,24.35,0.3893,0.5196,0.1979,0.01443,0.00339,-0.00182,0.0009999999310821295,0.0009095495333895087,0.001110862591303885,0.0004999999655410647,0.00046593454317189753,0.00052916060667485,0.009999999776482582,0.011674760840833187,0.008646746166050434,passive,0
4.0008,rehab,safe_midrange_fast,0.0,85.35692034583619,30.642934945636185,86.17909974209596,-28.9169218353593,-89.12291358761028,0.0,-3.9074,-3.0923,0.0,-9.5484,-1.6933,0.0,7.115e-321,nan,0.0,3.5e-323,8.79283314114e-312,0.0,3.512700564088504e-303,0.0,5.0,0.7403834113650284,24.35,0.4616,0.4077,0.0272,0.01981,-0.00805,-0.00322,0.0009999999310821295,0.0009095495333895087,0.001110862591303885,0.0004999999655410647,0.00046593454317189753,0.00052916060667485,0.009999999776482582,0.011674760840833187,0.008646746166050434,passive,0
4.0205,rehab,safe_midrange_fast,0.0,85.23042816854934,30.54377707535516,86.11874947226711,-28.75392205748886,-89.11899395814669,0.0,-4.1,-3.1282,0.0,-8.0012,-0.1774,0.0,7.115e-321,nan,0.0,3.5e-323,8.79283314128e-312,0.0,3.512700564088504e-303,0.0,5.0,0.753582745840399,24.35,0.4733,0.4585,0.0473,0.02628,-0.01381,-0.00535,0.0009999999310821295,0.0009095495333895087,0.001110862591303885,0.0004999999655410647,0.00046593454317189753,0.00052916060667485,0.009999999776482582,0.011674760840833187,0.008646746166050434,passive,0
4.0406,rehab,safe_midrange_fast,0.0,85.16512223982578,30.494836948802295,86.08969484052778,-28.674119776338944,-89.11695331517842,0.0,-4.1878,-3.0813,0.0,-5.155,1.763,0.0,7.115e-321,nan,0.0,3.5e-323,8.79283314136e-312,0.0,3.512700564088504e-303,0.0,5.0,0.7574660034595219,24.35,0.438,0.4363,0.2812,0.03663,-0.00828,-0.00287,0.0009999999310821295,0.0009095495333895087,0.001110862591303885,0.0004999999655410647,0.00046593454317189753,0.00052916060667485,0.009999999776482582,0.011674760840833187,0.008646746166050434,passive,0
4.0608,rehab,safe_midrange_fast,0.0,85.06504263635719,30.422622172485514,86.04777659824015,-28.557210455694218,-89.11380550868951,0.0,-4.3496,-3.0903,0.0,-2.2181,3.5379,0.0,7.115e-321,nan,0.0,3.5e-323,8.792833141476e-312,0.0,3.512700564088504e-303,0.0,5.0,0.7599116072903326,24.35,0.4255,0.3549,0.0748,0.03366,-0.01989,-0.0064,0.0009999999310821295,0.0009095495333895087,0.001110862591303885,0.0004999999655410647,0.00046593454317189753,0.00052916060667485,0.009999999776482582,0.011674760840833187,0.008646746166050434,passive,0
4.0806,rehab,safe_midrange_fast,0.0,84.99714459346208,30.375460291442018,86.02105925789472,-28.48144335913558,-89.11165658306264,0.0,-4.4438,-3.0632,0.0,-0.3358,4.3701,0.0,7.115e-321,nan,0.0,3.5e-323,8.792833141555e-312,0.0,3.512700564088504e-303,0.0,5.0,0.7596757729505983,24.35,0.4106,0.2606,-0.0106,0.01759,-0.02457,-0.00516,0.0009999999310821295,0.0009095495333895087,0.001110862591303885,0.0004999999655410647,0.00046593454317189753,0.00052916060667485,0.009999999776482582,0.011674760840833187,0.008646746166050434,passive,0
4.1009,rehab,safe_midrange_fast,0.0,84.89393286241516,30.30618310620309,85.98260932494574,-28.37084001105933,-89.10837362732173,0.0,-4.4,-2.9088,0.0,0.6798,4.5211,0.0,7.115e-321,nan,0.0,3.5e-323,8.792833141674e-312,0.0,3.512700564088504e-303,0.0,5.0,0.7588016341810184,24.35,0.407,0.2345,-0.0069,0.02411,-0.01907,-0.00742,0.0009999999310821295,0.0009095495333895087,0.001110862591303885,0.0004999999655410647,0.00046593454317189753,0.00052916060667485,0.009999999776482582,0.011674760840833187,0.008646746166050434,passive,0
4.1207,rehab,safe_midrange_fast,0.0,84.82444998446678,30.26087578575139,85.95780654799985,-28.29878938139926,-89.10615552826458,0.0,-4.2753,-2.7542,0.0,1.0665,4.1845,0.0,7.115e-321,nan,0.0,3.5e-323,8.792833141753e-312,0.0,3.512700564088504e-303,0.0,5.0,0.757834536075769,24.35,0.2749,0.1955,0.4981,0.03006,-0.01182,-0.00502,0.0009999999310821295,0.0009095495333895087,0.001110862591303885,0.0004999999655410647,0.00046593454317189753,0.00052916060667485,0.009999999776482582,0.011674760840833187,0.008646746166050434,passive,0
4.1404,rehab,safe_midrange_fast,0.0,84.71961557386001,30.194058591814734,85.92141175399341,-28.192643372121815,-89.10280166686198,0.0,-4.1425,-2.6286,0.0,0.9783,3.3505,0.0,7.115e-321,nan,0.0,3.5e-323,8.79283314187e-312,0.0,3.512700564088504e-303,0.0,5.0,0.7556769613864244,24.35,0.1362,0.2039,-0.3054,0.01258,-0.00034,-0.00298,0.0009999999310821295,0.0009095495333895087,0.001110862591303885,0.0004999999655410647,0.00046593454317189753,0.00052916060667485,0.009999999776482582,0.011674760840833187,0.008646746166050434,passive,0
4.161,rehab,safe_midrange_fast,0.0,84.64955314658197,30.150169145797392,85.89742557403399,-28.122802897862055,-89.10055811426373,0.0,-4.1733,-2.6017,0.0,0.3435,2.1877,0.0,7.115e-321,nan,0.0,3.5e-323,8.79283314195e-312,0.0,3.512700564088504e-303,0.0,5.0,0.7537812999121236,24.35,0.1088,0.1223,0.5137,0.01917,-0.00439,-0.00179,0.0009999999310821295,0.0009095495333895087,0.001110862591303885,0.0004999999655410647,0.00046593454317189753,0.00052916060667485,0.009999999776482582,0.011674760840833187,0.008646746166050434,passive,0
4.181,rehab,safe_midrange_fast,0.0,84.5444434080583,30.085100242872283,85.86144653842925,-28.01880144294532,-89.09719292430432,0.0,-4.3429,-2.6776,0.0,-1.4879,0.3787,0.0,7.115e-321,nan,0.0,3.5e-323,8.79283314207e-312,0.0,3.512700564088504e-303,0.0,5.0,0.7517592348522252,24.35,0.038,0.1094,0.617,0.00783,-0.00926,-0.00098,0.0009999999310821295,0.0009095495333895087,0.001110862591303885,0.0004999999655410647,0.00046593454317189753,0.00052916060667485,0.009999999776482582,0.011674760840833187,0.008646746166050434,passive,0
4.2005,rehab,safe_midrange_fast,0.0,84.47436765280207,30.042099030045357,85.83727774161845,-27.94965856820028,-89.09495122457268,0.0,-4.3725,-2.6736,0.0,-3.9754,-1.5553,0.0,7.115e-321,nan,0.0,3.5e-323,8.79283314215e-312,0.0,3.512700564088504e-303,0.0,5.0,0.7512633373629828,24.35,-0.0206,0.104,0.0969,0.01596,-0.00549,0.00746,0.0009999999310821295,0.0009095495333895087,0.001110862591303885,0.0004999999655410647,0.00046593454317189753,0.00052916060667485,0.009999999776482582,0.011674760840833187,0.008646746166050434,passive,0
4.2207,rehab,safe_midrange_fast,0.0,84.42180940940912,30.009984643276056,85.81896968639953,-27.897754489280498,-89.09327150835323,0.0,-4.3881,-2.6683,0.0,-3.9852,-1.7066,0.0,7.115e-321,nan,0.0,3.5e-323,8.792833142227e-312,0.0,3.512700564088504e-303,0.0,5.0,0.7512468467098526,24.35,-0.0587,0.0784,0.187,0.02145,-0.00592,0.00262,0.0009999999310821295,0.0009095495333895087,0.001110862591303885,0.0004999999655410647,0.00046593454317189753,0.00052916060667485,0.009999999776482582,0.011674760840833187,0.008646746166050434,passive,0
4.2405,rehab,safe_midrange_fast,0.0,84.28164844026652,29.924806004214712,85.76922854559926,-27.758875430709427,-89.08879997060019,0.0,-4.4372,-2.6856,0.0,-0.8829,0.0278,0.0,7.115e-321,nan,0.0,3.5e-323,8.792833142366e-312,0.0,3.512700564088504e-303,0.0,5.0,0.7516249401667792,24.35,-0.0272,-0.073,0.2287,0.01829,-0.01444,-0.00106,0.0009999999310821295,0.0009095495333895087,0.001110862591303885,0.0004999999655410647,0.00046593454317189753,0.00052916060667485,0.009999999776482582,0.011674760840833187,0.008646746166050434,passive,0
4.2607,rehab,safe_midrange_fast,0.0,84.21156513864571,29.882432397492682,85.74380475478503,-27.68909392947175,-89.08656878003532,0.0,-4.4772,-2.6996,0.0,1.5025,1.3808,0.0,7.115e-321,nan,0.0,3.5e-323,8.792833142445e-312,0.0,3.512700564088504e-303,0.0,5.0,0.7520640632903175,24.35,-0.187,-0.0929,-0.1337,0.02203,0.0006,0.00415,0.0009999999310821295,0.0009095495333895087,0.001110862591303885,0.0004999999655410647,0.00046593454317189753,0.00052916060667485,0.009999999776482582,0.011674760840833187,0.008646746166050434,passive,0
4.2806,rehab,safe_midrange_fast,0.0,84.10643731756386,29.819161799776154,85.70500241398261,-27.584039271102192,-89.0832275411124,0.0,-4.5785,-2.7496,0.0,2.0913,1.7032,0.0,7.115e-321,nan,0.0,3.5e-323,8.792833142563e-312,0.0,3.512700564088504e-303,0.0,5.0,0.7523516927081666,24.35,-0.2077,-0.0687,-0.5451,0.01144,-0.00269,0.00145,0.0009999999310821295,0.0009095495333895087,0.001110862591303885,0.0004999999655410647,0.00046593454317189753,0.00052916060667485,0.009999999776482582,0.011674760840833187,0.008646746166050434,passive,0
4.3013,rehab,safe_midrange_fast,0.0,84.03635043678894,29.77715851881129,85.67866476486039,-27.51370683965355,-89.08100392527322,0.0,-4.5229,-2.7085,0.0,2.1302,1.7016,0.0,7.115e-321,nan,0.0,3.5e-323,8.79283314264e-312,0.0,3.512700564088504e-303,0.0,5.0,0.7528252504757644,24.35,-0.1786,-0.1121,-0.6677,0.0185,-0.01014,0.00689,0.0009999999310821295,0.0009095495333895087,0.001110862591303885,0.0004999999655410647,0.00046593454317189753,0.00052916060667485,0.009999999776482582,0.011674760840833187,0.008646746166050434,passive,0
4.3209,rehab,safe_midrange_fast,0.0,83.93121792237575,29.71435974596795,85.63836389687745,-27.407614467635433,-89.0776749497139,0.0,-4.1228,-2.4596,0.0,2.0714,1.6434,0.0,7.115e-321,nan,0.0,3.5e-323,8.79283314276e-312,0.0,3.512700564088504e-303,0.0,5.0,0.7538089565443694,24.35,-0.3059,-0.179,0.2469,0.00988,-0.00102,0.00454,0.0009999999310821295,0.0009095495333895087,0.001110862591303885,0.0004999999655410647,0.00046593454317189753,0.00052916060667485,0.009999999776482582,0.011674760840833187,0.008646746166050434,passive,0
4.3418,rehab,safe_midrange_fast,0.0,83.86112846891936,29.67264574480428,85.61098477150219,-27.33652254116071,-89.07545980045015,0.0,-4.1563,-2.4703,0.0,1.5156,1.2821,0.0,7.115e-321,nan,0.0,3.5e-323,8.79283314284e-312,0.0,3.512700564088504e-303,0.0,5.0,0.7541735133411367,24.35,-0.2045,-0.1739,-0.0151,0.03701,-0.01067,0.00961,0.0009999999310821295,0.0009095495333895087,0.001110862591303885,0.0004999999655410647,0.00046593454317189753,0.00052916060667485,0.009999999776482582,0.011674760840833187,0.008646746166050434,passive,0
4.3605,rehab,safe_midrange_fast,0.0,83.75599300123017,29.61026385390037,85.5690862780983,-27.229238531872483,-89.07214374989178,0.0,-4.3422,-2.5755,0.0,0.229,0.4688,0.0,7.115e-321,nan,0.0,3.5e-323,8.79283314296e-312,0.0,3.512700564088504e-303,0.0,5.0,0.7556629507626984,24.35,-0.3384,-0.1671,-0.0975,0.03231,-0.00658,0.00996,0.0009999999310821295,0.0009095495333895087,0.001110862591303885,0.0004999999655410647,0.00046593454317189753,0.00052916060667485,0.009999999776482582,0.011674760840833187,0.008646746166050434,passive,0
4.3808,rehab,safe_midrange_fast,0.0,83.68590188239334,29.56873249445093,85.54049430268073,-27.157109213189816,-89.06993822479473,0.0,-4.2969,-2.5427,0.0,-2.0409,-0.9676,0.0,7.115e-321,nan,0.0,3.5e-323,8.79283314304e-312,0.0,3.512700564088504e-303,0.0,5.0,0.7567095243613706,24.35,-0.3225,-0.1864,0.6118,0.02272,-0.00769,0.00149,0.0009999999310821295,0.0009095495333895087,0.001110862591303885,0.0004999999655410647,0.00046593454317189753,0.00052916060667485,0.009999999776482582,0.011674760840833187,0.008646746166050434,passive,0
4.4005,rehab,safe_midrange_fast,0.0,83.63333330874147,29.537625985452802,85.5187195097186,-27.102721551755238,-89.06828668075524,0.0,-4.3983,-2.5985,0.0,-4.806,-2.6811,0.0,7.115e-321,nan,0.0,3.5e-323,8.792833143117e-312,0.0,3.512700564088504e-303,0.0,5.0,0.7574272598808873,24.35,-0.4655,-0.3906,0.1703,0.00352,-0.00523,0.00413,0.0009999999310821295,0.0009095495333895087,0.001110862591303885,0.0004999999655410647,0.00046593454317189753,0.00052916060667485,0.009999999776482582,0.011674760840833187,0.008646746166050434,passive,0
4.4205,rehab,safe_midrange_fast,0.0,83.51067313765867,29.46521011378493,85.4668387660419,-26.97490387201306,-89.06444150844543,0.0,-4.4038,-2.5984,0.0,-4.5645,-2.5901,0.0,7.115e-321,nan,0.0,3.5e-323,8.792833143235e-312,0.0,3.512700564088504e-303,0.0,5.0,0.7593202447194085,24.35,-0.3123,-0.2557,0.0908,0.02384,-0.01921,0.00347,0.0009999999310821295,0.0009095495333895087,0.001110862591303885,0.0004999999655410647,0.00046593454317189753,0.00052916060667485,0.009999999776482582,0.011674760840833187,0.008646746166050434,passive,0
4.4408,rehab,safe_midrange_fast,0.0,83.42305869837826,29.413524794673744,85.42870004057376,-26.882559521848187,-89.06170325411782,0.0,-4.5237,-2.6676,0.0,-1.3127,-0.6776,0.0,7.115e-321,nan,0.0,3.5e-323,8.792833143334e-312,0.0,3.512700564088504e-303,0.0,5.0,0.7611172127369237,24.35,-0.486,-0.3451,-0.3156,0.02793,-0.01315,0.00869,0.0009999999310821295,0.0009095495333895087,0.001110862591303885,0.0004999999655410647,0.00046593454317189753,0.00052916060667485,0.009999999776482582,0.011674760840833187,0.008646746166050434,passive,0
4.4604,rehab,safe_midrange_fast,0.0,83.31792200966329,29.351559016369805,85.3817484716912,-26.770612049530364,-89.05842638895633,0.0,-4.5609,-2.6891,0.0,0.7494,0.5507,0.0,7.115e-321,nan,0.0,3.5e-323,8.792833143453e-312,0.0,3.512700564088504e-303,0.0,5.0,0.7631013549940157,24.35,-0.4435,-0.4137,-0.3652,0.01898,-0.02171,0.00916,0.0009999999310821295,0.0009095495333895087,0.001110862591303885,0.0004999999655410647,0.00046593454317189753,0.00052916060667485,0.009999999776482582,0.011674760840833187,0.008646746166050434,passive,0
4.481,rehab,safe_midrange_fast,0.0,83.24783159870101,29.310285639635833,85.34972618145153,-26.69529282468384,-89.05624728127978,0.0,-4.5978,-2.7096,0.0,2.3887,1.5583,0.0,7.115e-321,nan,0.0,3.5e-323,8.79283314353e-312,0.0,3.512700564088504e-303,0.0,5.0,0.7645147833843019,24.35,-0.5834,-0.5163,-0.4585,0.00232,-0.01156,0.00949,0.0009999999310821295,0.0009095495333895087,0.001110862591303885,0.0004999999655410647,0.00046593454317189753,0.00052916060667485,0.009999999776482582,0.011674760840833187,0.008646746166050434,passive,0
4.5009,rehab,safe_midrange_fast,0.0,83.14269738086828,29.248381820735975,85.30052285630089,-26.581145185508827,-89.0529873621141,0.0,-4.5879,-2.6998,0.0,3.7284,2.4157,0.0,7.115e-321,nan,0.0,3.5e-323,8.79283314365e-312,0.0,3.512700564088504e-303,0.0,5.0,0.7671150130453959,24.35,-0.5146,-0.4569,-0.3172,0.03302,-0.01204,0.01514,0.0009999999310821295,0.0009095495333895087,0.001110862591303885,0.0004999999655410647,0.00046593454317189753,0.00052916060667485,0.009999999776482582,0.011674760840833187,0.008646746166050434,passive,0
