t,trajectory_type,trajectory_variant,x,y,z,rx,ry,rz,vx,vy,vz,ax,ay,az,j1,j2,j3,j4,j5,j6,dj1,dj2,dj3,dj4,dj5,dj6,fx,fy,fz,tx,ty,tz,Mx,My,Mz,Bx,By,Bz,Kx,Ky,Kz,mode,comfort
0.0009,rehab,large_slow,80.22206743462452,-666.6340344471105,262.47848562125665,-177.65169063779868,0.2918939447454611,-149.851827683042,0.5551,0.2055,-0.2508,-19.2881,-7.6203,11.6991,84.42844277561301,30.063515842551052,85.69204727021774,-27.52301534016927,-89.11313374837239,-35.816709730360245,-0.0,-0.05441495687654703,0.016037591613165224,0.023913913302951388,0.06785074869791667,-0.06785074869791667,-1.4735,-0.2092,0.0187,0.02112,-0.00398,0.03582,0.001078777015209198,0.0009999312460422516,0.0008899758104234934,0.0005257987650111318,0.0004999603843316436,0.0005080404225736856,0.00938471406698227,0.01124660950154066,0.011758782900869846,passive,0
0.0208,rehab,large_slow,80.22188440749949,-666.6341420026187,262.47862532750156,-177.65167088403123,0.2918699347577803,-149.85185862552555,0.3522,0.1219,-0.1734,-18.4041,-6.6486,9.9757,84.42842917867226,30.063515842551052,85.692033673277,-27.52303229437934,-89.11314222547743,-35.81669277615017,-0.05441495687654703,-0.0,0.005935064636834777,0.020726521809895832,-0.0,-0.0,-1.7332,-0.1838,0.1231,0.00704,0.00481,0.04289,0.001078777015209198,0.0009999312460422516,0.0008899758104234934,0.0005257987650111318,0.0004999603843316436,0.0005080404225736856,0.00938471406698227,0.01124660950154066,0.011758782900869846,passive,0
0.0409,rehab,large_slow,80.22155507497966,-666.634148118625,262.4785554297966,-177.6516732089957,0.2918613931878614,-149.8518947461859,-0.0484,-0.0238,-0.0021,-16.9934,-4.771,7.5153,84.42840198479077,30.063515842551052,85.69204727021774,-27.52304924858941,-89.11315070258246,-35.816684299045136,-0.0,-0.0,-0.0005438776299504951,-0.0007968478732638889,-0.06785074869791667,-0.0,-1.7442,-0.294,0.4845,-0.00677,-0.00239,0.03065,0.001078777015209198,0.0009999312460422516,0.0008899758104234934,0.0005257987650111318,0.0004999603843316436,0.0005080404225736856,0.00938471406698227,0.01124660950154066,0.011758782900869846,passive,0
0.0611,rehab,large_slow,80.22124421983861,-666.6341303953677,262.47877112769146,-177.65166356391398,0.29185479764763445,-149.8519302672242,-0.435,-0.1251,0.2006,-16.2704,-3.0324,7.0363,84.42837479090926,30.06349544713993,85.69204727021774,-27.523040771484375,-89.11315070258246,-35.8166758219401,-0.0,-0.0,0.012828713596457302,0.019794040256076388,0.06785074869791667,-0.0,-1.5996,-0.3592,0.6979,0.00013,-0.00048,0.03006,0.001078777015209198,0.0009999312460422516,0.0008899758104234934,0.0005257987650111318,0.0004999603843316436,0.0005080404225736856,0.00938471406698227,0.01124660950154066,0.011758782900869846,passive,0
0.0814,rehab,large_slow,80.21868214865938,-666.6344284508993,262.4795845573967,-177.65161408004684,0.29179845747328154,-149.8521480792416,-0.8275,-0.1869,0.4458,-16.4267,-1.4073,8.6428,84.42815723985728,30.063441059376935,85.69202007633625,-27.52303229437934,-89.11316765679253,-35.8166758219401,-0.05441495687654703,-0.0,-0.029668524713799504,-0.020472208658854168,-0.06785074869791667,-0.0,-1.4812,-0.1801,0.2182,0.03368,-0.00509,0.03361,0.001078777015209198,0.0009999312460422516,0.0008899758104234934,0.0005257987650111318,0.0004999603843316436,0.0005080404225736856,0.00938471406698227,0.01124660950154066,0.011758782900869846,passive,0
0.1012,rehab,large_slow,80.2079818817874,-666.6360953325631,262.4826475796343,-177.65138776576777,0.2916466478129391,-149.8530556502927,-1.1871,-0.1788,0.6788,-16.8307,0.1419,12.3718,84.42723944635675,30.063284694558323,85.69183651763613,-27.522964477539062,-89.1131591796875,-35.816684299045136,-0.05441495687654703,-0.05441495687654703,-0.021156839805074257,0.033543904622395836,-0.0,0.06785074869791667,-1.6821,-0.2682,0.4105,0.01315,0.00619,0.0324,0.001078777015209198,0.0009999312460422516,0.0008899758104234934,0.0005257987650111318,0.0004999603843316436,0.0005080404225736856,0.00938471406698227,0.01124660950154066,0.011758782900869846,passive,0
0.121,rehab,large_slow,80.15980855070305,-666.6446739021599,262.51576136052665,-177.64916192026558,0.2900716604011799,-149.85704705452994,-1.4395,-0.1324,0.8236,-16.1457,2.036,17.0883,84.42311957330988,30.061455906027614,85.69000093063505,-27.522023518880207,-89.11314222547743,-35.81679450141059,-0.2176666259765625,-0.05441495687654703,-0.07493953893680384,0.12457105848524305,-0.0,-0.0,-1.7046,-0.404,-0.17,-0.00231,0.00554,0.03344,0.001078777015209198,0.0009999312460422516,0.0008899758104234934,0.0005257987650111318,0.0004999603843316436,0.0005080404225736856,0.00938471406698227,0.01124660950154066,0.011758782900869846,passive,0
0.141,rehab,large_slow,80.12618261260795,-666.6500078080751,262.5383664771318,-177.6483899602594,0.289508312917126,-149.85939783954672,-1.7345,-0.0966,1.1219,-17.3871,3.5397,24.2983,84.42023702187113,30.060218584419477,85.68838969315632,-27.520116170247395,-89.11314222547743,-35.81730312771267,-0.16324487062964108,-0.10882991375309406,-0.09465510302250928,0.13570149739583334,-0.0,-0.06785074869791667,-1.5142,-0.4004,0.1126,0.01881,-0.00838,0.03897,0.001078777015209198,0.0009999312460422516,0.0008899758104234934,0.0005257987650111318,0.0004999603843316436,0.0005080404225736856,0.00938471406698227,0.01124660950154066,0.011758782900869846,passive,0
0.1613,rehab,large_slow,80.07601634637417,-666.651268687657,262.57404556525444,-177.64872979586704,0.2896554802273157,-149.8602400906612,-2.2634,-0.0408,1.8496,-23.7331,3.9101,36.2321,84.41587240389077,30.057607971795715,85.6862209811069,-27.514877319335938,-89.11313374837239,-35.820770263671875,-0.10882991375309406,-0.10882991375309406,-0.06551685899791151,0.2947828504774305,-0.0,-0.20355224609375,-1.5861,-0.3364,0.1056,0.0059,-0.00429,0.03579,0.001078777015209198,0.0009999312460422516,0.0008899758104234934,0.0005257987650111318,0.0004999603843316436,0.0005080404225736856,0.00938471406698227,0.01124660950154066,0.011758782900869846,passive,0
0.1814,rehab,large_slow,80.04387549935507,-666.6475550910784,262.5962636756644,-177.65032620473895,0.29071062197740494,-149.85946012638902,-2.7008,0.0552,2.6335,-34.1386,3.4782,50.6811,84.41303064327428,30.055575229153774,85.68490887632464,-27.50951978895399,-89.11311679416232,-35.824339124891495,-0.2176666259765625,-0.10882991375309406,-0.09987632827003404,0.3831566704644097,-0.0,-0.20355224609375,-1.4386,-0.367,-0.0481,0.02071,-0.00134,0.03632,0.001078777015209198,0.0009999312460422516,0.0008899758104234934,0.0005257987650111318,0.0004999603843316436,0.0005080404225736856,0.00938471406698227,0.01124660950154066,0.011758782900869846,passive,0
0.2011,rehab,large_slow,79.98417354722429,-666.6417970601339,262.6543203577779,-177.65259575698386,0.2921855966756796,-149.85727163017668,-3.3231,0.1695,3.6653,-46.673,2.4897,63.8156,84.40775503026377,30.050891083065824,85.68130568702622,-27.498321533203125,-89.11305745442708,-35.831688774956596,-0.2720815828531095,-0.2720815828531095,-0.2358457357576578,0.5548604329427084,-0.0,-0.339262220594618,-1.3666,-0.467,0.4786,0.00942,0.00081,0.03156,0.001078777015209198,0.0009999312460422516,0.0008899758104234934,0.0005257987650111318,0.0004999603843316436,0.0005080404225736856,0.00938471406698227,0.01124660950154066,0.011758782900869846,passive,0
0.2213,rehab,large_slow,79.92458956735027,-666.6409554630484,262.72384335405286,-177.65301487491544,0.292479257968979,-149.85599552031084,-4.3168,0.2256,5.0712,-61.2731,1.3705,75.1722,84.4025202080755,30.045941796633276,85.67692747210512,-27.488301595052082,-89.11290486653645,-35.83808898925781,-0.3809114966062036,-0.3809114966062036,-0.30803869266321166,0.7187398274739584,0.06785074869791667,-0.4749637179904514,-1.4496,-0.544,0.143,0.01503,0.00265,0.03149,0.001078777015209198,0.0009999312460422516,0.0008899758104234934,0.0005257987650111318,0.0004999603843316436,0.0005080404225736856,0.00938471406698227,0.01124660950154066,0.011758782900869846,passive,0
0.2412,rehab,large_slow,79.80381613055722,-666.6388318072019,262.8712894723223,-177.65284422361051,0.2924088841327419,-149.85379741905567,-5.9111,0.1986,6.9552,-78.6987,0.1166,85.8811,84.39190099735072,30.035370175201113,85.66824582543704,-27.4688720703125,-89.112548828125,-35.85068596733941,-0.489748208829672,-0.489748208829672,-0.3886141635403775,0.9058041042751735,0.06785074869791667,-0.6106736924913194,-1.4242,-0.399,0.7636,0.02582,-0.00564,0.02616,0.001078777015209198,0.0009999312460422516,0.0008899758104234934,0.0005257987650111318,0.0004999603843316436,0.0005080404225736856,0.00938471406698227,0.01124660950154066,0.011758782900869846,passive,0
0.2608,rehab,large_slow,79.67294495486144,-666.6328776528627,263.03065134441266,-177.65268776752947,0.2923566821465139,-149.85178061403073,-7.6744,0.1592,8.793,-94.3069,-1.3355,92.5375,84.38036399312539,30.023500045927445,85.65959137265045,-27.448128594292534,-89.11216735839844,-35.86400349934896,-0.5985781225827661,-0.6529998779296875,-0.43332090472230816,1.173307630750868,-0.06785074869791667,-0.678524441189236,-1.5331,-0.4954,0.3161,0.01301,-0.00378,0.03166,0.001078777015209198,0.0009999312460422516,0.0008899758104234934,0.0005257987650111318,0.0004999603843316436,0.0005080404225736856,0.00938471406698227,0.01124660950154066,0.011758782900869846,passive,0
0.2808,rehab,large_slow,79.53751132239849,-666.6273542408559,263.18686207683953,-177.65235842382793,0.2921598381355196,-149.85055817427568,-9.5957,0.1154,10.5191,-103.9905,-2.4099,93.2044,84.36843947608872,30.011786281472386,85.6513244326752,-27.428165011935764,-89.11181131998698,-35.876922607421875,-0.8162515470297029,-0.7618297916827815,-0.5425451297571163,1.3569302029079862,-0.0,-0.8820851643880208,-1.446,-0.4114,0.1863,0.02288,-0.01231,0.03309,0.001078777015209198,0.0009999312460422516,0.0008899758104234934,0.0005257987650111318,0.0004999603843316436,0.0005080404225736856,0.00938471406698227,0.01124660950154066,0.011758782900869846,passive,0
0.3012,rehab,large_slow,79.273472082759,-666.6257782374485,263.4706077911081,-177.65138509668037,0.29153407361150513,-149.849904756623,-11.8202,0.0748,12.4008,-111.4334,-2.6982,92.9572,84.34528388599358,29.9912684978825,85.63521885635829,-27.39203559027778,-89.11116706000433,-35.90031941731771,-1.0883331298828125,-0.9250814607827971,-0.7615646513381806,1.6320885552300346,0.06785074869791667,-1.0856458875868056,-1.4327,-0.4154,0.4534,0.03206,-0.01824,0.03959,0.001078777015209198,0.0009999312460422516,0.0008899758104234934,0.0005257987650111318,0.0004999603843316436,0.0005080404225736856,0.00938471406698227,0.01124660950154066,0.011758782900869846,passive,0
0.3212,rehab,large_slow,79.06419407158523,-666.6286153483613,263.68807408821795,-177.6509479522776,0.2912124987383204,-149.84957307319945,-14.1906,0.0375,14.3221,-116.1288,-2.3499,93.5366,84.32697560527536,29.97599913342164,85.62198903300974,-27.363560994466145,-89.1107177734375,-35.918638441297745,-1.251584798982828,-0.979496417659344,-0.8926459586266243,1.9108666314019096,-0.0,-1.2213473849826388,-1.538,-0.4008,0.4009,0.01033,-0.01137,0.02882,0.001078777015209198,0.0009999312460422516,0.0008899758104234934,0.0005257987650111318,0.0004999603843316436,0.0005080404225736856,0.00938471406698227,0.01124660950154066,0.011758782900869846,passive,0
0.3413,rehab,large_slow,78.68876438235492,-666.628230074587,264.05335192234145,-177.65140354877764,0.2915635193141259,-149.8497215452126,-16.7483,-0.022,16.3555,-115.4885,-1.7599,94.0054,84.29408460560411,29.9495530836653,85.6005330605082,-27.314173380533852,-89.10989549424913,-35.950826009114586,-1.5780813387124846,-1.1971630436359066,-0.8899945551806158,2.181243896484375,-0.06785074869791667,-1.4927588568793402,-1.5077,-0.3485,0.8125,0.02547,-0.00029,0.02867,0.001078777015209198,0.0009999312460422516,0.0008899758104234934,0.0005257987650111318,0.0004999603843316436,0.0005080404225736856,0.00938471406698227,0.01124660950154066,0.011758782900869846,passive,0
0.3614,rehab,large_slow,78.40628458033174,-666.6257331622757,264.3243568984569,-177.6519556624727,0.2920095037184279,-149.84932681797915,-18.756,-0.0643,17.9235,-112.6586,-1.0352,96.8885,84.26931097955988,29.929667557820235,85.58494416793974,-27.27728949652778,-89.10923428005643,-35.97557915581597,-1.5236663818359375,-1.1971630436359066,-1.0367531351523824,2.342851426866319,0.06785074869791667,-1.5606180826822915,-1.2261,-0.5181,0.5999,0.03372,-0.00541,0.02534,0.001078777015209198,0.0009999312460422516,0.0008899758104234934,0.0005257987650111318,0.0004999603843316436,0.0005080404225736856,0.00938471406698227,0.01124660950154066,0.011758782900869846,passive,0
0.3813,rehab,large_slow,77.92052171011464,-666.6304801536569,264.7864004221491,-177.65191164469056,0.2919972967730287,-149.85008063514832,-21.0086,-0.0708,19.8371,-107.3495,-0.172,99.665,84.22680694277923,29.89677655814898,85.55716561799002,-27.215499877929688,-89.10819159613715,-36.01663377549913,-1.8501697200359684,-1.4692514249593904,-1.2249143997041305,2.7805328369140625,0.06785074869791667,-1.7641703287760415,-1.4287,-0.5654,0.6975,0.01458,-0.00835,0.02484,0.001078777015209198,0.0009999312460422516,0.0008899758104234934,0.0005257987650111318,0.0004999603843316436,0.0005080404225736856,0.00938471406698227,0.01124660950154066,0.011758782900869846,passive,0
0.4013,rehab,large_slow,77.56710029332457,-666.6300609401522,265.12589507647874,-177.6520655581797,0.29211125928160314,-149.85018088983958,-23.2598,-0.0671,21.9679,-100.8755,0.5989,100.7576,84.1958467086943,29.87226127397896,85.53725289826346,-27.170020209418404,-89.10742865668402,-36.04698181152344,-1.9589996337890625,-1.5780813387124846,-1.2413938918916305,2.915988498263889,0.06785074869791667,-2.0355902777777777,-1.5522,-0.5338,0.3593,0.02296,0.00128,0.02768,0.001078777015209198,0.0009999312460422516,0.0008899758104234934,0.0005257987650111318,0.0004999603843316436,0.0005080404225736856,0.00938471406698227,0.01124660950154066,0.011758782900869846,passive,0
0.4211,rehab,large_slow,76.98214159803466,-666.6311407018899,265.6713727560419,-177.65291397167988,0.2927535420865271,-149.85102483574516,-25.2101,-0.046,24.0706,-94.9065,1.1618,99.379,84.14462023442334,29.833027301448407,85.50472221752204,-27.09578620062934,-89.10616556803386,-36.096530490451386,-2.176666259765625,-1.7413330078125,-1.518180016243812,3.2191212972005205,0.06785074869791667,-2.171291775173611,-1.5272,-0.5899,0.8737,0.01511,-0.01754,0.02763,0.001078777015209198,0.0009999312460422516,0.0008899758104234934,0.0005257987650111318,0.0004999603843316436,0.0005080404225736856,0.00938471406698227,0.01124660950154066,0.011758782900869846,passive,0
0.4411,rehab,large_slow,76.56014168648746,-666.6332900244978,266.06859266376557,-177.6531533887953,0.2929324333486611,-149.8513121205142,-26.7434,-0.0037,25.9105,-87.8611,1.3919,92.8385,84.10767734640896,29.804725269279857,85.4807712063931,-27.042210896809895,-89.10525851779514,-36.13258361816406,-2.3399179288656407,-1.795747964689047,-1.5233400552579672,3.4024726019965277,0.06785074869791667,-2.307001749674479,-1.5485,-0.6077,0.3835,0.02291,-0.01958,0.02898,0.001078777015209198,0.0009999312460422516,0.0008899758104234934,0.0005257987650111318,0.0004999603843316436,0.0005080404225736856,0.00938471406698227,0.01124660950154066,0.011758782900869846,passive,0
0.4613,rehab,large_slow,76.0045567127948,-666.6332886004074,266.6035412158377,-177.65283853452055,0.29270109689576257,-149.85139812416702,-28.6874,0.0394,28.0717,-86.9897,1.2146,87.651,84.05901389546914,29.766470276483215,85.44905634209661,-26.97127448187934,-89.10406324598524,-36.180360582139755,-2.557584554842203,-2.0134145906656093,-1.6832332799930383,3.6929999457465277,0.06785074869791667,-2.5784132215711804,-1.5646,-0.5419,0.4853,0.02442,-0.01669,0.03194,0.001078777015209198,0.0009999312460422516,0.0008899758104234934,0.0005257987650111318,0.0004999603843316436,0.0005080404225736856,0.00938471406698227,0.01124660950154066,0.011758782900869846,passive,0
0.481,rehab,large_slow,75.29732154233439,-666.6333053936416,267.3009132219405,-177.65160636671223,0.2917716556315603,-149.85074480548792,-30.3234,0.0549,29.6854,-90.4999,0.8048,83.3843,83.99706623341777,29.716936621335474,85.40755847893139,-26.880035400390625,-89.10254584418402,-36.24192979600694,-2.7208362239422184,-2.122251302889078,-1.775094211691677,3.972049289279514,0.13570149739583334,-2.6462639702690973,-1.5448,-0.6678,0.4681,0.02631,-0.00693,0.03261,0.001078777015209198,0.0009999312460422516,0.0008899758104234934,0.0005257987650111318,0.0004999603843316436,0.0005080404225736856,0.00938471406698227,0.01124660950154066,0.011758782900869846,passive,0
0.5013,rehab,large_slow,74.80507471641236,-666.6308097536719,267.7968988321459,-177.65035120387188,0.29088305092150735,-149.8498048997351,-32.1318,0.0493,31.1531,-95.2131,0.1777,78.6625,83.95391634195158,29.68163216468131,85.37834545173267,-26.815821329752602,-89.10143534342448,-36.285290188259545,-2.7208362239422184,-2.2310880151125465,-1.8450300764329362,4.067467583550347,0.06785074869791667,-2.8498246934678817,-1.5726,-0.6769,0.4164,0.02335,-0.0088,0.03135,0.001078777015209198,0.0009999312460422516,0.0008899758104234934,0.0005257987650111318,0.0004999603843316436,0.0005080404225736856,0.00938471406698227,0.01124660950154066,0.011758782900869846,passive,0
0.5211,rehab,large_slow,74.03084545005322,-666.624377788539,268.5622288129762,-177.64990336965886,0.2905881099187898,-149.84776942035128,-33.7767,0.0486,32.3172,-100.2024,-0.4707,76.5733,83.88602001832263,29.62702685063428,85.33280249869469,-26.714248657226562,-89.0996805826823,-36.354073418511284,-2.992917806795328,-2.2310880151125465,-1.9779197768409653,4.34098137749566,0.06785074869791667,-2.9176754421657987,-1.5016,-0.7294,1.0179,0.02039,-0.01212,0.02572,0.001078777015209198,0.0009999312460422516,0.0008899758104234934,0.0005257987650111318,0.0004999603843316436,0.0005080404225736856,0.00938471406698227,0.01124660950154066,0.011758782900869846,passive,0
0.5412,rehab,large_slow,73.47670700935241,-666.6262556412062,269.0897497876484,-177.64973503177592,0.2904909437052834,-149.84737435864582,-35.653,0.0404,33.6026,-96.9362,-0.7555,71.4883,83.8374925367903,29.590063567208773,85.30023782560141,-26.643541124131943,-89.09845140245226,-36.402197943793404,-2.992917806795328,-2.3399179288656407,-2.059943321907874,4.34633043077257,0.06785074869791667,-3.0533854166666665,-1.6173,-0.6256,0.8374,0.02945,-0.00642,0.03389,0.001078777015209198,0.0009999312460422516,0.0008899758104234934,0.0005257987650111318,0.0004999603843316436,0.0005080404225736856,0.00938471406698227,0.01124660950154066,0.011758782900869846,passive,0
0.5611,rehab,large_slow,72.5940337354817,-666.6288120809311,269.9013431626396,-177.65056164614126,0.29107571103081215,-149.84804643996395,-38.5417,0.0207,35.8245,-87.2756,-0.6469,64.3665,83.77357331833036,29.54299775680693,85.2583116588026,-26.551649305555554,-89.0969000922309,-36.464623345269096,-3.482672814095374,-2.557584554842203,-2.180996885394106,4.719958835177951,-0.0,-3.121236165364583,-1.6182,-0.6966,0.2003,0.02992,-0.00751,0.03527,0.001078777015209198,0.0009999312460422516,0.0008899758104234934,0.0005257987650111318,0.0004999603843316436,0.0005080404225736856,0.00938471406698227,0.01124660950154066,0.011758782900869846,passive,0
0.5811,rehab,large_slow,71.96882996479742,-666.6282470261425,270.4548043784504,-177.6519342083538,0.2921027033888624,-149.84946600665305,-40.1155,-0.0017,36.9514,-77.9131,-0.4689,58.6099,83.7054458467087,29.49399438234839,85.21549489238474,-26.456349690755207,-89.09524705674913,-36.530049641927086,-3.428251058748453,-2.3943328857421875,-2.187972115998221,4.843487209743923,0.06785074869791667,-3.2569376627604165,-1.6578,-0.803,0.2053,0.01261,-0.01136,0.02831,0.001078777015209198,0.0009999312460422516,0.0008899758104234934,0.0005257987650111318,0.0004999603843316436,0.0005080404225736856,0.00938471406698227,0.01124660950154066,0.011758782900869846,passive,0
0.6011,rehab,large_slow,71.00477075565587,-666.6290744572985,271.33278825089434,-177.6524286870224,0.29238300214360274,-149.85043478004914,-41.4742,-0.0243,38.0162,-68.1056,-0.3657,51.1594,83.62102924007,29.43259059792698,85.16082839210435,-26.337365044487846,-89.09325493706596,-36.612158881293404,-3.482672814095374,-2.61199951171875,-2.366180419921875,4.999296400282118,0.06785074869791667,-3.528349134657118,-1.6673,-0.8332,0.8504,0.013,0.00026,0.02622,0.001078777015209198,0.0009999312460422516,0.0008899758104234934,0.0005257987650111318,0.0004999603843316436,0.0005080404225736856,0.00938471406698227,0.01124660950154066,0.011758782900869846,passive,0
0.621,rehab,large_slow,70.35209479864587,-666.6271450182187,271.94816291418636,-177.6518156322591,0.2918888479104685,-149.85030265010164,-42.5532,-0.0129,39.0016,-55.9635,-0.2715,40.3486,83.56384730575108,29.389644660572014,85.12282494271156,-26.25558641221788,-89.09187316894531,-36.668548583984375,-3.64592448319539,-2.6664212670656715,-2.4100645461885057,5.064815945095486,0.06785074869791667,-3.596208360460069,-1.7512,-0.6374,0.8089,0.04032,-0.00841,0.04085,0.001078777015209198,0.0009999312460422516,0.0008899758104234934,0.0005257987650111318,0.0004999603843316436,0.0005080404225736856,0.00938471406698227,0.01124660950154066,0.011758782900869846,passive,0
0.6409,rehab,large_slow,69.15687281464402,-666.6268852364936,273.05473268134824,-177.6507130589067,0.29111142961386777,-149.8509525816933,-42.8119,0.0096,39.1825,-40.5167,-0.1118,26.7887,83.45915766045599,29.312991907100866,85.05354852959661,-26.108067830403645,-89.08927069769965,-36.77091810438368,-3.918006066048499,-2.884087893042234,-2.5069631444345606,5.343839857313368,0.06785074869791667,-3.7319098578559027,-1.7879,-0.5278,0.9374,0.02244,-0.00733,0.03574,0.001078777015209198,0.0009999312460422516,0.0008899758104234934,0.0005257987650111318,0.0004999603843316436,0.0005080404225736856,0.00938471406698227,0.01124660950154066,0.011758782900869846,passive,0
0.6613,rehab,large_slow,68.45244579623242,-666.6277344525957,273.7014021145946,-177.6504293945758,0.29091320939757065,-149.85124176564747,-43.9145,-0.0029,39.8577,-37.994,0.036,25.0956,83.39746834027885,29.268563903204285,85.01231580677599,-26.021016438802082,-89.0877448187934,-36.83133443196615,-4.026835979801594,-2.7752511808187657,-2.5918692409402073,5.41900634765625,-0.0,-3.7319098578559027,-1.79,-0.5764,0.1171,0.0239,-0.00195,0.03586,0.001078777015209198,0.0009999312460422516,0.0008899758104234934,0.0005257987650111318,0.0004999603843316436,0.0005080404225736856,0.00938471406698227,0.01124660950154066,0.011758782900869846,passive,0
0.681,rehab,large_slow,67.73326405034365,-666.6276598610001,274.3492937342142,-177.65094499744708,0.2913322869922912,-149.8512009905923,-45.2181,-0.0156,40.6378,-46.0262,0.0289,31.9805,83.33447371378983,29.224074713074334,84.97060039255878,-25.932362874348957,-89.0861596001519,-36.893369886610245,-3.918006066048499,-2.7208362239422184,-2.6827307974938117,5.52079094780816,0.13570149739583334,-4.0033213297526045,-1.8623,-0.4174,0.3457,0.02428,-0.00412,0.04021,0.001078777015209198,0.0009999312460422516,0.0008899758104234934,0.0005257987650111318,0.0004999603843316436,0.0005080404225736856,0.00938471406698227,0.01124660950154066,0.011758782900869846,passive,0
0.701,rehab,large_slow,66.64029683658649,-666.6295225321086,275.3320405787804,-177.65199022197774,0.2921045673311705,-149.85040089297857,-45.8111,-0.0198,40.8746,-48.012,-0.1969,32.9998,83.2387648478593,29.157245749294166,84.90617128882077,-25.79706827799479,-89.08378601074219,-36.98835584852431,-4.026835979801594,-2.8296661376953125,-2.80140489634901,5.7328033447265625,0.13570149739583334,-4.0033213297526045,-1.708,-0.4341,0.4828,0.04281,-0.00202,0.04389,0.001078777015209198,0.0009999312460422516,0.0008899758104234934,0.0005257987650111318,0.0004999603843316436,0.0005080404225736856,0.00938471406698227,0.01124660950154066,0.011758782900869846,passive,0
0.721,rehab,large_slow,65.88830428834247,-666.6284645217098,275.99034479891554,-177.65355774787443,0.2932457078047247,-149.85077189090026,-46.641,-0.0216,41.5647,-59.762,-0.4001,45.435,83.17290126687229,29.11232825553063,84.86288542794709,-25.705066257052952,-89.08220079210069,-37.052815755208336,-4.353339318001624,-2.884087893042234,-2.747710577332147,5.695359971788195,0.06785074869791667,-3.9354705810546875,-1.9286,-0.3707,0.5919,0.03259,-0.0025,0.04366,0.001078777015209198,0.0009999312460422516,0.0008899758104234934,0.0005257987650111318,0.0004999603843316436,0.0005080404225736856,0.00938471406698227,0.01124660950154066,0.011758782900869846,passive,0
0.7409,rehab,large_slow,64.72469015713972,-666.6292885321129,277.00508134093207,-177.65522130975236,0.2944976289350622,-149.85168948402048,-47.4704,-0.0161,42.3876,-66.1293,-0.2959,56.8147,83.07101259137144,29.043684100160505,84.79556017582959,-25.564142862955727,-89.07971700032552,-37.152201334635414,-4.298924361125077,-2.938502849918781,-2.8657116276202816,5.849855211046007,0.06785074869791667,-4.139031304253472,-1.9267,-0.4457,0.6932,0.01568,0.0002,0.04379,0.001078777015209198,0.0009999312460422516,0.0008899758104234934,0.0005257987650111318,0.0004999603843316436,0.0005080404225736856,0.00938471406698227,0.01124660950154066,0.011758782900869846,passive,0
0.7611,rehab,large_slow,63.93074258488646,-666.629852476586,277.7103437879896,-177.65472940313322,0.2941414930921993,-149.8527330285563,-49.7872,-0.0219,44.4228,-56.527,-0.1451,54.3072,83.00149823179339,28.99624437388807,84.74911982470219,-25.468919542100693,-89.07802157931857,-37.21959431966146,-4.244502605778156,-3.1017545190187965,-2.8858147045173266,5.945951673719618,0.06785074869791667,-4.342592027452257,-1.8613,-0.6117,0.3011,0.0125,0.00425,0.04109,0.001078777015209198,0.0009999312460422516,0.0008899758104234934,0.0005257987650111318,0.0004999603843316436,0.0005080404225736856,0.00938471406698227,0.01124660950154066,0.011758782900869846,passive,0
0.7809,rehab,large_slow,62.73807738116013,-666.6297136913688,278.8057150101394,-177.65151586050914,0.291688292118602,-149.8529546878193,-50.3283,-0.0358,44.7435,-47.779,-0.1005,49.5141,82.89706692837252,28.923079235718983,84.67734157448947,-25.32504611545139,-89.07546997070312,-37.322167290581596,-4.244502605778156,-3.047339562142249,-3.121973169912206,5.92911614312066,0.06785074869791667,-4.206882052951388,-1.884,-0.4298,0.8757,0.02138,-0.01108,0.04054,0.001078777015209198,0.0009999312460422516,0.0008899758104234934,0.0005257987650111318,0.0004999603843316436,0.0005080404225736856,0.00938471406698227,0.01124660950154066,0.011758782900869846,passive,0
0.8013,rehab,large_slow,61.94322326007634,-666.6298512857569,279.5314631989032,-177.6503743229626,0.29085627944746856,-149.85300054129206,-51.285,-0.0453,45.7275,-29.8901,0.0744,33.5613,82.82746418867961,28.87503444558323,84.62864413119779,-25.22772894965278,-89.073732164171,-37.39061991373698,-4.353339318001624,-2.938502849918781,-2.9489045095915842,6.0867055257161455,0.06785074869791667,-4.139031304253472,-2.0272,-0.5425,0.21,0.02578,-0.00888,0.04462,0.001078777015209198,0.0009999312460422516,0.0008899758104234934,0.0005257987650111318,0.0004999603843316436,0.0005080404225736856,0.00938471406698227,0.01124660950154066,0.011758782900869846,passive,0
0.8211,rehab,large_slow,60.74287251889507,-666.6318098105974,280.601739738912,-177.650415175061,0.2909032230317484,-149.85270779136158,-53.3276,-0.0347,47.969,-7.3882,0.3217,12.5217,82.7223802321028,28.804792649675125,84.55507108480623,-25.08083767361111,-89.07112969292534,-37.49433729383681,-4.4077542748781715,-2.7752511808187657,-3.103814455542234,5.960752699110243,0.06785074869791667,-4.206882052951388,-2.083,-0.5892,-0.0669,0.01804,-0.00335,0.04557,0.001078777015209198,0.0009999312460422516,0.0008899758104234934,0.0005257987650111318,0.0004999603843316436,0.0005080404225736856,0.00938471406698227,0.01124660950154066,0.011758782900869846,passive,0
0.8408,rehab,large_slow,59.93429027480276,-666.63216231123,281.29830225201067,-177.65201573715518,0.29210282130086135,-149.85322355846,-51.2973,-0.0214,46.4181,15.2893,0.4365,-8.5315,82.65159455856474,28.7591817119334,84.50631925375154,-24.98246086968316,-89.06942579481337,-37.5635019938151,-4.571005943978187,-2.8296661376953125,-3.037583757155012,6.068479749891493,0.13570149739583334,-4.342592027452257,-2.1513,-0.6163,0.3579,0.01443,-0.00419,0.04486,0.001078777015209198,0.0009999312460422516,0.0008899758104234934,0.0005257987650111318,0.0004999603843316436,0.0005080404225736856,0.00938471406698227,0.01124660950154066,0.011758782900869846,passive,0
0.8615,rehab,large_slow,58.52692139499919,-666.634499380944,282.53778531827504,-177.6536256740568,0.2932920921864331,-149.85336619824312,-50.9073,-0.0184,46.0631,39.0521,0.3808,-30.9995,82.52841307385133,28.67904814163057,84.41854420274791,-24.80901930067274,-89.06645880805121,-37.68458896213107,-4.353339318001624,-2.938502849918781,-3.231176999535891,6.220711602105035,0.13570149739583334,-4.342592027452257,-2.0921,-0.621,0.2304,0.00693,-0.01233,0.04344,0.001078777015209198,0.0009999312460422516,0.0008899758104234934,0.0005257987650111318,0.0004999603843316436,0.0005080404225736856,0.00938471406698227,0.01124660950154066,0.011758782900869846,passive,0
0.8808,rehab,large_slow,57.74115011294952,-666.6338411178702,283.2651829143183,-177.6530638129725,0.292903516359939,-149.85277401255252,-50.3583,-0.0,45.4369,52.3706,0.2031,-46.1703,82.45960575519221,28.632363045569694,84.36721575142133,-24.709693060980904,-89.06473795572917,-37.75286356608073,-4.298924361125077,-2.938502849918781,-3.300983693340037,6.305126614040798,0.06785074869791667,-4.274732801649305,-2.1691,-0.6002,0.5272,0.01635,-0.01555,0.05149,0.001078777015209198,0.0009999312460422516,0.0008899758104234934,0.0005257987650111318,0.0004999603843316436,0.0005080404225736856,0.00938471406698227,0.01124660950154066,0.011758782900869846,passive,0
0.9013,rehab,large_slow,56.56184296034106,-666.6320884403926,284.38318848060743,-177.6499851861078,0.2905495221784158,-149.8507156219449,-48.8004,0.0186,43.9319,45.6712,0.0415,-46.0548,82.35633699020536,28.561013098990564,84.2887546048306,-24.560724894205727,-89.06215243869357,-37.85649617513021,-4.244502605778156,-2.992917806795328,-3.2942532076693998,6.125886705186632,0.06785074869791667,-4.274732801649305,-2.0102,-0.6371,0.7315,0.01941,-0.00551,0.04066,0.001078777015209198,0.0009999312460422516,0.0008899758104234934,0.0005257987650111318,0.0004999603843316436,0.0005080404225736856,0.00938471406698227,0.01124660950154066,0.011758782900869846,passive,0
0.9211,rehab,large_slow,55.764046442599,-666.6310580164552,285.1119179963019,-177.64943521475476,0.29007566689777636,-149.8504503465759,-48.7912,0.0057,43.8881,14.2111,0.1242,-21.4336,82.28649630404935,28.514742709622524,84.23659674011834,-24.461000230577255,-89.06048244900174,-37.925474378797745,-4.190087648901609,-2.938502849918781,-3.3214062983446784,6.117138332790798,0.06785074869791667,-4.206882052951388,-2.159,-0.6196,0.4018,0.00553,-0.01056,0.04113,0.001078777015209198,0.0009999312460422516,0.0008899758104234934,0.0005257987650111318,0.0004999603843316436,0.0005080404225736856,0.00938471406698227,0.01124660950154066,0.011758782900869846,passive,0
0.9409,rehab,large_slow,54.96098103241368,-666.6332660117428,285.81503833061697,-177.65049534835555,0.2908419614714328,-149.8505849041571,-47.4057,-0.018,42.5118,-6.5135,0.2873,-3.6866,82.2162409112005,28.470641032303913,84.18467002339882,-24.36164008246528,-89.05882093641493,-37.99447801378038,-4.516590987101639,-2.7208362239422184,-3.2679295303797957,6.35499742296007,0.13570149739583334,-4.274732801649305,-2.1264,-0.6528,-0.1088,0.01992,-0.00891,0.0501,0.001078777015209198,0.0009999312460422516,0.0008899758104234934,0.0005257987650111318,0.0004999603843316436,0.0005080404225736856,0.00938471406698227,0.01124660950154066,0.011758782900869846,passive,0
0.9612,rehab,large_slow,53.759850379733415,-666.6316422016189,286.84946299630474,-177.65340655453804,0.2930929948947802,-149.85082961242375,-47.1738,-0.0211,42.0782,-15.7434,0.1733,1.2723,82.1111025668607,28.405613663172957,84.10790849440168,-24.213138156467014,-89.05628628200955,-38.09770372178819,-4.4077542748781715,-2.6664212670656715,-3.225643044651145,6.035368177625868,0.13570149739583334,-4.071180555555555,-2.1231,-0.5135,0.2888,0.02697,-0.00771,0.04946,0.001078777015209198,0.0009999312460422516,0.0008899758104234934,0.0005257987650111318,0.0004999603843316436,0.0005080404225736856,0.00938471406698227,0.01124660950154066,0.011758782900869846,passive,0
0.9811,rehab,large_slow,52.95742867801373,-666.6319457383585,287.5428803092587,-177.65468598707548,0.2942245837857523,-149.85173691350224,-48.9097,-0.0037,43.2105,-30.9582,-0.137,6.3499,82.04087436789334,28.362456973236387,84.05607015779702,-24.114430745442707,-89.05450608995226,-38.16591050889757,-4.298924361125077,-2.61199951171875,-3.2690852703434405,6.124114990234375,0.06785074869791667,-4.274732801649305,-2.0972,-0.638,0.1216,0.016,-0.00865,0.04416,0.001078777015209198,0.0009999312460422516,0.0008899758104234934,0.0005257987650111318,0.0004999603843316436,0.0005080404225736856,0.00938471406698227,0.01124660950154066,0.011758782900869846,passive,0
1.0009,rehab,large_slow,51.767783663550354,-666.6346139665136,288.60953074250796,-177.65319535234588,0.2931213690037851,-149.8509841973141,-51.4307,0.0257,44.9191,-34.0068,-0.3191,-3.5878,81.9368033834023,28.296783749419863,83.97686117946512,-23.96836174858941,-89.05191209581163,-38.269076877170136,-4.298924361125077,-2.8296661376953125,-3.3048180306311883,5.91339111328125,0.13570149739583334,-4.274732801649305,-2.2004,-0.7612,0.4738,0.00684,-0.00096,0.04583,0.001078777015209198,0.0009999312460422516,0.0008899758104234934,0.0005257987650111318,0.0004999603843316436,0.0005080404225736856,0.00938471406698227,0.01124660950154066,0.011758782900869846,passive,0
1.0208,rehab,large_slow,50.971100359458624,-666.6362941763906,289.32694188899046,-177.65097663168962,0.29131085699066595,-149.85064351905382,-51.0277,0.0344,44.1542,-28.7656,-0.4133,-20.6254,81.86713265900565,28.252777250686496,83.92394188607093,-23.872265285915798,-89.05025906032986,-38.33799574110243,-4.4077542748781715,-2.7208362239422184,-3.2956197002146506,5.97780015733507,0.06785074869791667,-4.410442776150173,-2.2654,-0.7177,0.1793,0.00826,-0.01777,0.04956,0.001078777015209198,0.0009999312460422516,0.0008899758104234934,0.0005257987650111318,0.0004999603843316436,0.0005080404225736856,0.00938471406698227,0.01124660950154066,0.011758782900869846,passive,0
1.0415,rehab,large_slow,49.781532416729625,-666.6330489704164,290.3689590037435,-177.64931704652108,0.2899386119300635,-149.84946152413522,-50.0703,-0.0013,42.282,-15.7108,-0.5203,-44.437,81.76303448063312,28.188531705648593,83.84689482131807,-23.730061848958332,-89.04773288302951,-38.441662258572045,-4.298924361125077,-2.557584554842203,-3.027875541460396,5.666715833875868,0.06785074869791667,-4.342592027452257,-2.1912,-0.52,0.3373,0.01955,-0.00235,0.05156,0.001078777015209198,0.0009999312460422516,0.0008899758104234934,0.0005257987650111318,0.0004999603843316436,0.0005080404225736856,0.00938471406698227,0.01124660950154066,0.011758782900869846,passive,0
1.0613,rehab,large_slow,48.98146444101966,-666.6288128881114,291.037219324086,-177.64911213922878,0.2898338537491663,-149.84955338019088,-51.187,-0.0471,41.79,10.1984,-0.3884,-76.4022,81.69299663883625,28.147142618009358,83.79737476311108,-23.637339274088543,-89.0459696451823,-38.51055569118923,-4.244502605778156,-2.557584554842203,-2.980469807539836,5.803426106770833,0.13570149739583334,-4.410442776150173,-2.2812,-0.5386,0.2019,-0.00108,-0.01824,0.04319,0.001078777015209198,0.0009999312460422516,0.0008899758104234934,0.0005257987650111318,0.0004999603843316436,0.0005080404225736856,0.00938471406698227,0.01124660950154066,0.011758782900869846,passive,0
1.081,rehab,large_slow,47.5800007803437,-666.6290857779671,292.14313652351666,-177.65045663600847,0.2909289966365232,-149.8495265755869,-50.7536,-0.0594,39.685,31.6068,0.0993,-98.4141,81.57044061339728,28.079681396484375,83.71298535035388,-23.480173746744793,-89.04292636447482,-38.63136291503906,-4.353339318001624,-2.2855029719890934,-3.0188199789217203,5.499632093641493,0.13570149739583334,-4.47829352484809,-2.3207,-0.6739,0.1347,0.00418,-0.00981,0.04679,0.001078777015209198,0.0009999312460422516,0.0008899758104234934,0.0005257987650111318,0.0004999603843316436,0.0005080404225736856,0.00938471406698227,0.01124660950154066,0.011758782900869846,passive,0
1.1011,rehab,large_slow,46.7670235200261,-666.6325632575976,292.744443737782,-177.6518350836167,0.2919994645007528,-149.85071262886115,-50.1994,-0.0422,37.5872,25.61,0.8105,-95.0722,81.49941699339611,28.04337756468518,83.66620507570777,-23.393300374348957,-89.04122246636284,-38.70022243923611,-4.353339318001624,-2.3399179288656407,-2.959312967734762,5.4285430908203125,0.06785074869791667,-4.274732801649305,-2.2347,-0.7056,-0.3559,0.01224,-0.01042,0.04643,0.001078777015209198,0.0009999312460422516,0.0008899758104234934,0.0005257987650111318,0.0004999603843316436,0.0005080404225736856,0.00938471406698227,0.01124660950154066,0.011758782900869846,passive,0
1.1211,rehab,large_slow,45.951062783565774,-666.638308074665,293.3321218406607,-177.6526418629686,0.29266422020324057,-149.8518448801377,-49.6851,-0.0143,35.7787,4.6124,1.3685,-78.9944,81.4281690238726,28.00815468967551,83.62030860221032,-23.30908033582899,-89.03946770562065,-38.76938713921441,-4.516590987101639,-2.176666259765625,-2.803206490998221,5.085389879014757,0.13570149739583334,-4.342592027452257,-2.2904,-0.705,-0.0536,0.00702,-0.00717,0.04557,0.001078777015209198,0.0009999312460422516,0.0008899758104234934,0.0005257987650111318,0.0004999603843316436,0.0005080404225736856,0.00938471406698227,0.01124660950154066,0.011758782900869846,passive,0
1.1413,rehab,large_slow,44.72895101512841,-666.6402597215938,294.1948275454946,-177.65213123543305,0.2923068323242439,-149.85371590422935,-49.0986,0.0338,34.0495,-4.8038,1.2674,-71.8327,81.32139224817257,27.955561722859297,83.5551384652015,-23.188858032226562,-89.03680589463976,-38.872926500108505,-4.571005943978187,-2.176666259765625,-2.580597377059483,4.875827365451388,0.13570149739583334,-4.274732801649305,-2.3911,-0.8179,0.3427,-0.00523,-0.00067,0.04602,0.001078777015209198,0.0009999312460422516,0.0008899758104234934,0.0005257987650111318,0.0004999603843316436,0.0005080404225736856,0.00938471406698227,0.01124660950154066,0.011758782900869846,passive,0
1.1613,rehab,large_slow,43.9200416723217,-666.6383502064156,294.7549843265774,-177.650961029382,0.291332280395382,-149.85436946757736,-48.4725,0.0799,32.3782,-12.6709,0.3734,-64.8607,81.25069495474938,27.921011896416694,83.51386495155863,-23.112496270073784,-89.03506808810764,-38.94209967719184,-4.571005943978187,-2.122251302889078,-2.5097437188176825,4.7366587320963545,0.13570149739583334,-4.342592027452257,-2.221,-0.6213,-0.3318,0.01002,-0.00858,0.05313,0.001078777015209198,0.0009999312460422516,0.0008899758104234934,0.0005257987650111318,0.0004999603843316436,0.0005080404225736856,0.00938471406698227,0.01124660950154066,0.011758782900869846,passive,0
1.1812,rehab,large_slow,42.72065938004993,-666.6310952943338,295.5549809043807,-177.64966367417455,0.29021213709657323,-149.8546260204122,-49.4635,0.0898,31.6797,-24.5798,-0.8091,-54.1516,81.14582854922455,27.871158713161353,83.45554767268719,-23.002955118815105,-89.03247409396701,-39.04546101888021,-4.244502605778156,-2.067836346012531,-2.260613771948484,4.439451429578993,0.13570149739583334,-4.206882052951388,-2.2876,-0.6083,-0.4503,0.01959,-0.00753,0.05654,0.001078777015209198,0.0009999312460422516,0.0008899758104234934,0.0005257987650111318,0.0004999603843316436,0.0005080404225736856,0.00938471406698227,0.01124660950154066,0.011758782900869846,passive,0
1.201,rehab,large_slow,41.93789187249643,-666.626130037232,296.05540861605647,-177.64949818887948,0.2901204217858972,-149.85288923038004,-51.5938,0.06,31.6554,-25.0517,-1.5665,-48.9699,81.0773747510249,27.840001323435565,83.41867276937654,-22.933035956488716,-89.03065151638455,-39.11485460069444,-4.190087648901609,-1.9045846769125154,-2.3614146921894337,4.2164357503255205,0.06785074869791667,-4.342592027452257,-2.3909,-0.6906,-0.3655,-0.00308,0.00134,0.05562,0.001078777015209198,0.0009999312460422516,0.0008899758104234934,0.0005257987650111318,0.0004999603843316436,0.0005080404225736856,0.00938471406698227,0.01124660950154066,0.011758782900869846,passive,0
1.2211,rehab,large_slow,40.75475981340975,-666.6247356567535,296.76072089169327,-177.65033491421528,0.2908728945204826,-149.85161090477703,-52.1637,-0.0081,30.3489,-16.4735,-1.5623,-45.3619,80.9740176059232,27.796681470210007,83.36521639682279,-22.832039727105034,-89.02792188856337,-39.218343098958336,-4.190087648901609,-1.795747964689047,-2.2583702767249383,4.04756334092882,0.06785074869791667,-4.410442776150173,-2.4142,-0.8142,-0.5372,-0.00818,-0.00155,0.0535,0.001078777015209198,0.0009999312460422516,0.0008899758104234934,0.0005257987650111318,0.0004999603843316436,0.0005080404225736856,0.00938471406698227,0.01124660950154066,0.011758782900869846,passive,0
1.241,rehab,large_slow,39.94910696106317,-666.6279642408052,297.2080219578481,-177.65127943567444,0.2916798646408684,-149.8527257996366,-51.2476,-0.08,28.7271,-3.0086,-0.7548,-41.0171,80.90372142225209,27.769596364238474,83.33048981015045,-22.766935560438366,-89.026124742296,-39.28678724500868,-4.571005943978187,-1.5780813387124846,-2.1072266833616955,4.049368964301215,0.13570149739583334,-4.342592027452257,-2.508,-0.8851,-0.2773,0.00139,0.00067,0.05468,0.001078777015209198,0.0009999312460422516,0.0008899758104234934,0.0005257987650111318,0.0004999603843316436,0.0005080404225736856,0.00938471406698227,0.01124660950154066,0.011758782900869846,passive,0
1.2614,rehab,large_slow,38.7247288087556,-666.6354656602782,297.8756271455357,-177.65142283160287,0.2917556973395313,-149.85460990391718,-51.1014,-0.1089,27.9167,24.0087,0.5395,-42.1762,80.79696504196318,27.7294921875,83.27875345060141,-22.671822441948784,-89.02347140842014,-39.39058091905382,-4.4077542748781715,-1.5780813387124846,-2.142327185904626,3.932096693250868,0.06785074869791667,-4.47829352484809,-2.4749,-0.7641,0.0179,0.0017,-0.00035,0.05114,0.001078777015209198,0.0009999312460422516,0.0008899758104234934,0.0005257987650111318,0.0004999603843316436,0.0005080404225736856,0.00938471406698227,0.01124660950154066,0.011758782900869846,passive,0
1.281,rehab,large_slow,37.71331708898178,-666.6385189294857,298.4113306941256,-177.65227652029054,0.2924256063377351,-149.85558364487295,-50.7374,-0.0708,27.3568,45.9278,1.5686,-41.1263,80.70874809038521,27.697145065458695,83.2371468119102,-22.594189114040798,-89.02125888400607,-39.47694566514757,-4.244502605778156,-1.686918050935953,-2.1156159958036818,3.9193132188585067,0.06785074869791667,-4.206882052951388,-2.4232,-0.7968,-0.0185,0.00753,-0.00207,0.05338,0.001078777015209198,0.0009999312460422516,0.0008899758104234934,0.0005257987650111318,0.0004999603843316436,0.0005080404225736856,0.00938471406698227,0.01124660950154066,0.011758782900869846,passive,0
1.3012,rehab,large_slow,36.519924011481265,-666.6388595626345,299.0539475129459,-177.6522468366299,0.2924320321133182,-149.85484981973886,-49.3132,0.0162,26.5797,41.246,1.9697,-26.36,80.60461591966082,27.658257814917235,83.18785790169593,-22.50290764702691,-89.01854621039496,-39.580773247612846,-4.244502605778156,-1.5236663818359375,-2.0686725578685796,3.843561808268229,0.13570149739583334,-4.410442776150173,-2.4571,-0.9035,-0.4161,0.00023,-0.00456,0.05253,0.001078777015209198,0.0009999312460422516,0.0008899758104234934,0.0005257987650111318,0.0004999603843316436,0.0005080404225736856,0.00938471406698227,0.01124660950154066,0.011758782900869846,passive,0
1.3213,rehab,large_slow,35.736723611724734,-666.6364036087111,299.4900269776051,-177.6514738273491,0.29182498196922196,-149.85366245309638,-48.9084,0.1059,26.4746,23.6389,1.4575,-10.4753,80.53624370310565,27.631804966690517,83.15488532038019,-22.44238959418403,-89.01674058702257,-39.64964124891493,-4.244502605778156,-1.6325030940594059,-2.0348365708152847,3.791995578342014,0.13570149739583334,-4.342592027452257,-2.5283,-0.7992,-0.858,-0.00143,-0.00124,0.05652,0.001078777015209198,0.0009999312460422516,0.0008899758104234934,0.0005257987650111318,0.0004999603843316436,0.0005080404225736856,0.00938471406698227,0.01124660950154066,0.011758782900869846,passive,0
1.3411,rehab,large_slow,34.946764898565384,-666.6314723223979,299.9246426389053,-177.6508130289114,0.2912250485471146,-149.8526092632937,-48.0101,0.1447,26.118,9.4004,0.1127,-1.7092,80.46726642268719,27.605243342937808,83.12230705034615,-22.382049560546875,-89.01498582628038,-39.71898396809896,-4.244502605778156,-1.6325030940594059,-2.016970190671411,3.824471367730035,0.06785074869791667,-4.410442776150173,-2.6199,-0.8753,-0.3081,-0.01963,-0.00412,0.05157,0.001078777015209198,0.0009999312460422516,0.0008899758104234934,0.0005257987650111318,0.0004999603843316436,0.0005080404225736856,0.00938471406698227,0.01124660950154066,0.011758782900869846,passive,0
1.3613,rehab,large_slow,33.764830186804836,-666.6256979640793,300.5697171439846,-177.65041817820654,0.29082382981001087,-149.85087221399482,-47.2514,0.1025,25.722,-7.6383,-1.4517,6.7581,80.36409963475596,27.56637648780747,83.0728005890799,-22.29109870062934,-89.01235792371962,-39.82285393608941,-4.516590987101639,-1.5780813387124846,-2.0918893341970914,3.8777923583984375,0.13570149739583334,-4.274732801649305,-2.472,-0.8627,-1.005,0.0065,0.00228,0.0559,0.001078777015209198,0.0009999312460422516,0.0008899758104234934,0.0005257987650111318,0.0004999603843316436,0.0005080404225736856,0.00938471406698227,0.01124660950154066,0.011758782900869846,passive,0
1.3813,rehab,large_slow,32.97653518178768,-666.624682001096,300.99362092052775,-177.65086578559766,0.29117200917962255,-149.8494326625514,-48.7457,0.0255,26.484,-29.3778,-2.4419,16.8544,80.29533990538947,27.54145329541499,83.03895100508586,-22.229656643337673,-89.01058620876736,-39.892357720269096,-4.298924361125077,-1.5236663818359375,-2.0260937379138304,3.83376227484809,0.13570149739583334,-4.342592027452257,-2.6659,-0.8416,-1.1888,-0.00227,0.00719,0.06253,0.001078777015209198,0.0009999312460422516,0.0008899758104234934,0.0005257987650111318,0.0004999603843316436,0.0005080404225736856,0.00938471406698227,0.01124660950154066,0.011758782900869846,passive,0
1.4009,rehab,large_slow,31.784623375396357,-666.6252342292573,301.6437093611309,-177.6510739286864,0.29141121241187756,-149.84876801501974,-49.9784,-0.0605,27.0407,-38.8455,-2.4322,20.5785,80.19141848724668,27.503864552715036,82.98628325509553,-22.135950724283855,-89.00788201226128,-39.995880126953125,-4.353339318001624,-1.5780813387124846,-2.1947094001392324,3.880301581488715,0.13570149739583334,-4.274732801649305,-2.6833,-1.0236,-0.6625,-0.0102,0.00391,0.04822,0.001078777015209198,0.0009999312460422516,0.0008899758104234934,0.0005257987650111318,0.0004999603843316436,0.0005080404225736856,0.00938471406698227,0.01124660950154066,0.011758782900869846,passive,0
1.4208,rehab,large_slow,30.97744196859705,-666.6290444428481,302.072223663413,-177.65189193249262,0.29210845153957304,-149.8493185111934,-50.1831,-0.1276,27.1241,-33.0745,-1.4117,16.9788,80.1211155051052,27.479736781356358,82.95023096670019,-22.072601318359375,-89.00611029730902,-40.064917670355904,-4.4077542748781715,-1.5236663818359375,-2.3983099909112005,3.9329359266493054,0.06785074869791667,-4.071180555555555,-2.7261,-1.0241,-0.6696,-0.01042,-0.00578,0.05609,0.001078777015209198,0.0009999312460422516,0.0008899758104234934,0.0005257987650111318,0.0004999603843316436,0.0005080404225736856,0.00938471406698227,0.01124660950154066,0.011758782900869846,passive,0
1.4413,rehab,large_slow,29.76416049263067,-666.634900474172,302.73128752212716,-177.65229542215022,0.29237248883354244,-149.85061929383846,-51.0521,-0.1355,27.6612,-20.5644,0.1481,10.7454,80.01548087242806,27.44299104898283,82.89467386680074,-21.97668287489149,-89.0035417344835,-40.16816880967882,-4.4077542748781715,-1.4692514249593904,-2.3696544382831837,3.9653947618272567,0.06785074869791667,-4.274732801649305,-2.6016,-0.9498,-0.2391,0.00255,-0.00048,0.05172,0.001078777015209198,0.0009999312460422516,0.0008899758104234934,0.0005257987650111318,0.0004999603843316436,0.0005080404225736856,0.00938471406698227,0.01124660950154066,0.011758782900869846,passive,0
1.4613,rehab,large_slow,28.955616427350744,-666.6373079506425,303.16393928256036,-177.65310964443182,0.2930467130133191,-149.85088129424534,-51.6791,-0.0837,28.0528,-2.2669,1.4448,1.827,79.9450691147606,27.41893806079827,82.85782615737159,-21.912612915039062,-89.00178697374132,-40.23759629991319,-4.298924361125077,-1.4692514249593904,-2.2907309957069923,4.069773356119792,0.13570149739583334,-4.342592027452257,-2.5803,-1.0704,-0.394,0.00032,0.00199,0.05451,0.001078777015209198,0.0009999312460422516,0.0008899758104234934,0.0005257987650111318,0.0004999603843316436,0.0005080404225736856,0.00938471406698227,0.01124660950154066,0.011758782900869846,passive,0
1.481,rehab,large_slow,27.754238288748816,-666.6371223071401,303.82528182599657,-177.65314794011115,0.29309152642506947,-149.85088753925413,-51.5303,-0.0162,27.964,10.2145,2.139,-4.4822,79.840406663347,27.382001971254255,82.80237103452777,-21.817008124457466,-88.99915059407552,-40.34116956922743,-4.298924361125077,-1.5780813387124846,-2.2701656228244893,3.917507595486111,0.06785074869791667,-4.206882052951388,-2.8622,-1.0601,-0.5942,-0.00259,0.01471,0.06188,0.001078777015209198,0.0009999312460422516,0.0008899758104234934,0.0005257987650111318,0.0004999603843316436,0.0005080404225736856,0.00938471406698227,0.01124660950154066,0.011758782900869846,passive,0
1.5008,rehab,large_slow,26.950234262664683,-666.638573931255,304.256613344216,-177.6532949700084,0.29327197850390946,-149.85188794321388,-50.3009,0.037,27.2643,18.0506,2.1221,-9.5678,79.770402813902,27.35825491423654,82.76559810827274,-21.754175821940105,-88.99737887912326,-40.409461127387154,-4.353339318001624,-1.4148296696124691,-2.323288870329904,3.991360134548611,0.06785074869791667,-4.410442776150173,-2.737,-1.2214,-1.6118,0.00249,-0.00126,0.06675,0.001078777015209198,0.0009999312460422516,0.0008899758104234934,0.0005257987650111318,0.0004999603843316436,0.0005080404225736856,0.00938471406698227,0.01124660950154066,0.011758782900869846,passive,0
1.5212,rehab,large_slow,25.565004005972767,-666.6335854140528,305.0186375022241,-177.65273408009008,0.29280544355187826,-149.85150881870402,-49.6726,0.0757,26.895,25.6635,1.3583,-16.3906,79.64970277087524,27.315791668278155,82.70187604545366,-21.64505852593316,-88.9943355984158,-40.52930196126302,-4.353339318001624,-1.4148296696124691,-2.300010907768023,3.793080647786458,0.06785074869791667,-4.342592027452257,-2.6232,-1.1955,-1.3614,-0.00022,-0.00783,0.05357,0.001078777015209198,0.0009999312460422516,0.0008899758104234934,0.0005257987650111318,0.0004999603843316436,0.0005080404225736856,0.00938471406698227,0.01124660950154066,0.011758782900869846,passive,0
1.5412,rehab,large_slow,24.764401121285648,-666.6307204739551,305.4420938042681,-177.6531033309431,0.2931035893642672,-149.8514157624948,-49.7218,0.0777,26.9168,16.9409,0.2637,-15.0297,79.57996406177483,27.292391333249537,82.6658305555287,-21.583023071289062,-88.99259779188368,-40.59843275282118,-4.353339318001624,-1.4692514249593904,-2.2843880228476947,3.9047071668836804,0.13570149739583334,-4.410442776150173,-2.7586,-1.1607,-0.5593,-0.00349,0.00056,0.05142,0.001078777015209198,0.0009999312460422516,0.0008899758104234934,0.0005257987650111318,0.0004999603843316436,0.0005080404225736856,0.00938471406698227,0.01124660950154066,0.011758782900869846,passive,0
1.5613,rehab,large_slow,23.95737023413452,-666.6291978966402,305.87787739905576,-177.6523955549722,0.292498324204939,-149.85191105496713,-49.8446,0.0605,26.8926,-3.7147,-0.6354,-6.9588,79.5097018704556,27.268569493057704,82.62886047363281,-21.521046956380207,-88.99085150824652,-40.66749572753906,-4.516590987101639,-1.4692514249593904,-2.307645589998453,3.859456380208333,0.06785074869791667,-4.274732801649305,-2.7512,-1.2719,-1.0986,0.005,-0.00678,0.05591,0.001078777015209198,0.0009999312460422516,0.0008899758104234934,0.0005257987650111318,0.0004999603843316436,0.0005080404225736856,0.00938471406698227,0.01124660950154066,0.011758782900869846,passive,0
1.581,rehab,large_slow,22.73620863711607,-666.6316207376979,306.52627419261887,-177.651175914845,0.29147857175999087,-149.85380585860358,-49.5679,0.0464,26.5522,-15.5134,-1.12,-2.9519,79.40348936779664,27.23395848038173,82.57262352669593,-21.42862108018663,-88.98822360568576,-40.770763821072045,-4.353339318001624,-1.4692514249593904,-2.3747872834158414,3.9296891954210067,0.06785074869791667,-4.274732801649305,-2.8967,-1.1677,-0.3749,-0.00236,0.00582,0.05218,0.001078777015209198,0.0009999312460422516,0.0008899758104234934,0.0005257987650111318,0.0004999603843316436,0.0005080404225736856,0.00938471406698227,0.01124660950154066,0.011758782900869846,passive,0
1.6008,rehab,large_slow,21.93096267105676,-666.6307076629253,306.9647410598738,-177.64993821218866,0.29042705470071717,-149.85440282714106,-48.9056,0.0131,25.8875,-15.0214,-1.3477,-4.4041,79.33342433211827,27.21046976523824,82.53494640388111,-21.366967095269096,-88.98647732204861,-40.839530097113716,-4.4077542748781715,-1.4692514249593904,-2.4007574402459775,3.8048892550998263,0.13570149739583334,-4.139031304253472,-3.0349,-1.3526,-1.2607,-0.03289,-0.00373,0.05712,0.001078777015209198,0.0009999312460422516,0.0008899758104234934,0.0005257987650111318,0.0004999603843316436,0.0005080404225736856,0.00938471406698227,0.01124660950154066,0.011758782900869846,passive,0
1.6209,rehab,large_slow,20.731353310038273,-666.6311045418505,307.60641521474236,-177.64906195549554,0.2896722380950739,-149.8542393989677,-50.6197,-0.026,26.4278,-10.4795,-1.4194,-6.9243,79.22909500575301,27.176735755240564,82.47835593648476,-21.274617513020832,-88.98386637369792,-40.94297620985243,-4.4077542748781715,-1.360414712735922,-2.446993837262144,3.90486823187934,0.13570149739583334,-4.274732801649305,-2.8933,-1.1981,-0.999,-0.00201,6e-05,0.0599,0.001078777015209198,0.0009999312460422516,0.0008899758104234934,0.0005257987650111318,0.0004999603843316436,0.0005080404225736856,0.00938471406698227,0.01124660950154066,0.011758782900869846,passive,0
1.6412,rehab,large_slow,19.92822176238158,-666.6301385591305,308.03114876687863,-177.6488460471637,0.2894462874651976,-149.8539608121461,-51.9422,-0.0393,26.9051,-2.7169,-1.3656,-9.5694,79.15924752112663,27.154497958645962,82.44059723202545,-21.212793986002605,-88.98214552137587,-41.01240370008681,-4.244502605778156,-1.360414712735922,-2.3039132297629177,3.865347968207465,0.06785074869791667,-4.410442776150173,-2.8352,-1.236,-1.2201,-0.0093,0.00305,0.05826,0.001078777015209198,0.0009999312460422516,0.0008899758104234934,0.0005257987650111318,0.0004999603843316436,0.0005080404225736856,0.00938471406698227,0.01124660950154066,0.011758782900869846,passive,0
1.6609,rehab,large_slow,18.720804253527305,-666.6303128498677,308.6388235301638,-177.6502633559178,0.29060351186342653,-149.854539828793,-51.0284,-0.0491,26.2427,6.0054,-1.0638,-10.9877,79.0542995339573,27.123299778097927,82.3847749917814,-21.120758056640625,-88.97960238986545,-41.11573961046007,-4.462176030225093,-1.251584798982828,-2.2996709842493037,3.850674099392361,0.13570149739583334,-4.342592027452257,-2.8131,-1.3132,-1.6213,0.00807,-0.00297,0.05757,0.001078777015209198,0.0009999312460422516,0.0008899758104234934,0.0005257987650111318,0.0004999603843316436,0.0005080404225736856,0.00938471406698227,0.01124660950154066,0.011758782900869846,passive,0
1.6808,rehab,large_slow,17.921649288314658,-666.6312843850882,309.0400947027131,-177.6512421059626,0.2914088249312681,-149.85428414369548,-49.732,-0.0717,25.477,13.466,-0.3995,-11.1578,78.98486675602375,27.103033537911898,82.34736980778156,-21.059688991970486,-88.9779069688585,-41.18474324544271,-4.353339318001624,-1.305999755859375,-2.3862902952892946,3.806813557942708,0.13570149739583334,-4.274732801649305,-2.931,-1.2459,-0.7891,-0.00952,0.00671,0.05397,0.001078777015209198,0.0009999312460422516,0.0008899758104234934,0.0005257987650111318,0.0004999603843316436,0.0005080404225736856,0.00938471406698227,0.01124660950154066,0.011758782900869846,passive,0
1.7012,rehab,large_slow,16.53871374357453,-666.6348403316904,309.7380158864881,-177.65310968002865,0.29315380080010567,-149.85305841655386,-49.7983,-0.0943,25.4652,27.1124,0.4266,-15.4082,78.86475138144918,27.068510905350788,82.2810711246906,-20.95259772406684,-88.97482130262587,-41.30488077799479,-4.353339318001624,-1.1971630436359066,-2.442819576452274,3.815358479817708,0.13570149739583334,-4.274732801649305,-2.8144,-1.2379,-0.9492,0.0078,0.00493,0.05624,0.001078777015209198,0.0009999312460422516,0.0008899758104234934,0.0005257987650111318,0.0004999603843316436,0.0005080404225736856,0.00938471406698227,0.01124660950154066,0.011758782900869846,passive,0
1.7208,rehab,large_slow,15.756226618464021,-666.6371920517079,310.14556029198053,-177.6534107419861,0.29343053120556745,-149.85097311125963,-49.5045,-0.0976,25.2899,29.8372,1.0034,-15.7634,78.79681426699798,27.048564193272355,82.24242861908262,-20.89145236545139,-88.97308349609375,-41.374215020073784,-4.298924361125077,-1.305999755859375,-2.479721673644415,3.794521755642361,0.06785074869791667,-4.614003499348958,-2.8074,-1.3414,-1.2114,-0.0023,0.00264,0.06326,0.001078777015209198,0.0009999312460422516,0.0008899758104234934,0.0005257987650111318,0.0004999603843316436,0.0005080404225736856,0.00938471406698227,0.01124660950154066,0.011758782900869846,passive,0
1.7412,rehab,large_slow,14.963233213413263,-666.6377782143617,310.5679583570014,-177.6525520334254,0.29274085649836523,-149.85059659989756,-48.5159,-0.0607,24.8372,10.7319,1.3606,-5.9591,78.72795256057589,27.027665695341508,82.2033170190188,-20.83041720920139,-88.97132873535156,-41.442760891384545,-4.462176030225093,-1.305999755859375,-2.328081791943843,3.759485880533854,0.13570149739583334,-4.342592027452257,-2.9898,-1.4371,-0.9458,-0.00627,-0.00241,0.055,0.001078777015209198,0.0009999312460422516,0.0008899758104234934,0.0005257987650111318,0.0004999603843316436,0.0005080404225736856,0.00938471406698227,0.01124660950154066,0.011758782900869846,passive,0
1.7613,rehab,large_slow,13.753882954573852,-666.640004227722,311.18701784919676,-177.65205711287416,0.29230038420952986,-149.85207255838463,-48.7702,-0.0002,24.9799,-7.6135,1.5883,3.1105,78.62301137187693,26.997548471583,82.1448569722695,-20.739322238498264,-88.96878560384114,-41.54519822862413,-4.298924361125077,-1.1971630436359066,-2.4163463328144337,3.735529581705729,0.06785074869791667,-4.546152750651042,-2.9147,-1.3859,-1.288,-0.00805,-0.00681,0.05542,0.001078777015209198,0.0009999312460422516,0.0008899758104234934,0.0005257987650111318,0.0004999603843316436,0.0005080404225736856,0.00938471406698227,0.01124660950154066,0.011758782900869846,passive,0
1.7812,rehab,large_slow,12.953599671447778,-666.6395139053357,311.5989966987416,-177.6518569849486,0.29209696599530866,-149.85245361644039,-48.8225,0.0467,24.9523,-14.2541,1.4829,5.9665,78.55355140006188,26.97750658091932,82.10590853549466,-20.678490532769096,-88.96710713704427,-41.61359151204427,-4.298924361125077,-1.251584798982828,-2.456566083549273,3.7140909830729165,0.13570149739583334,-4.342592027452257,-2.8819,-1.2754,-1.0587,0.00906,0.00109,0.05973,0.001078777015209198,0.0009999312460422516,0.0008899758104234934,0.0005257987650111318,0.0004999603843316436,0.0005080404225736856,0.00938471406698227,0.01124660950154066,0.011758782900869846,passive,0
1.801,rehab,large_slow,11.75315244213415,-666.6386802520556,312.1945999681121,-177.65274137759766,0.29288661839376046,-149.8522654159538,-48.9763,0.0699,24.9617,-19.7724,0.9593,7.7904,78.44937843851524,26.948959803817296,82.0483390883644,-20.587972005208332,-88.96453857421875,-41.71693589952257,-4.244502605778156,-1.1971630436359066,-2.4096702349067916,3.8194953070746527,0.06785074869791667,-4.410442776150173,-3.0985,-1.459,-0.9762,-0.02288,-0.00427,0.05843,0.001078777015209198,0.0009999312460422516,0.0008899758104234934,0.0005257987650111318,0.0004999603843316436,0.0005080404225736856,0.00938471406698227,0.01124660950154066,0.011758782900869846,passive,0
1.821,rehab,large_slow,10.960344407801417,-666.6355056058659,312.5927388506089,-177.65309221681125,0.29324432304614456,-149.85136080464085,-50.1355,0.0641,25.441,-27.0933,0.1949,9.3151,78.38054392597464,26.929733729598546,82.01019966956413,-20.5279541015625,-88.96279229058159,-41.78599887424045,-4.4077542748781715,-1.1971630436359066,-2.3264365621132423,3.722703721788194,0.13570149739583334,-4.274732801649305,-3.0705,-1.3221,-0.9518,-0.01381,-0.00733,0.05559,0.001078777015209198,0.0009999312460422516,0.0008899758104234934,0.0005257987650111318,0.0004999603843316436,0.0005080404225736856,0.00938471406698227,0.01124660950154066,0.011758782900869846,passive,0
1.8411,rehab,large_slow,9.778676232510838,-666.6309756975814,313.19973933060504,-177.65279337106222,0.2929675483301809,-149.85009984859033,-50.8363,0.054,25.7199,-21.8322,-0.5122,3.5997,78.27798900037709,26.900683865688816,81.95209994174466,-20.438003540039062,-88.96025763617621,-41.88880072699653,-4.190087648901609,-1.1971630436359066,-2.3653442080658262,3.8044484456380205,0.13570149739583334,-4.546152750651042,-3.0311,-1.4801,-1.4297,-0.0127,0.0079,0.06387,0.001078777015209198,0.0009999312460422516,0.0008899758104234934,0.0005257987650111318,0.0004999603843316436,0.0005080404225736856,0.00938471406698227,0.01124660950154066,0.011758782900869846,passive,0
1.8613,rehab,large_slow,8.985556433631809,-666.632381967849,313.6028106257712,-177.65238666882024,0.29260358362629774,-149.84946033101215,-50.8761,0.04,25.6702,-11.6956,-0.8959,-4.6277,78.20925646489209,26.8821376385075,81.91245806099164,-20.378214518229168,-88.95856221516927,-41.957499186197914,-4.190087648901609,-1.1971630436359066,-2.469088865978883,3.6953141954210067,0.13570149739583334,-4.47829352484809,-3.152,-1.276,-0.9331,-0.00461,0.00115,0.06224,0.001078777015209198,0.0009999312460422516,0.0008899758104234934,0.0005257987650111318,0.0004999603843316436,0.0005080404225736856,0.00938471406698227,0.01124660950154066,0.011758782900869846,passive,0
1.8812,rehab,large_slow,7.784034192887148,-666.6334515706075,314.2161492050026,-177.6508859757377,0.2913389284950739,-149.84893426101758,-50.9027,0.0152,25.4913,-4.6935,-0.9177,-10.4291,78.10513789110844,26.853957978805692,81.85250235075998,-20.288798014322918,-88.95594278971355,-42.0611317952474,-4.462176030225093,-1.1427480867593596,-2.459469030399134,3.719075520833333,0.13570149739583334,-4.206882052951388,-3.2236,-1.5662,-1.9758,-0.02099,-0.00318,0.06453,0.001078777015209198,0.0009999312460422516,0.0008899758104234934,0.0005257987650111318,0.0004999603843316436,0.0005080404225736856,0.00938471406698227,0.01124660950154066,0.011758782900869846,passive,0
1.9013,rehab,large_slow,6.9774416212341865,-666.6338205644337,314.6162851000732,-177.65052167026712,0.29103461911776957,-149.8490656570044,-51.1082,-0.0007,25.2568,12.0171,-0.7689,-19.5645,78.03526321260055,26.83583325678759,81.81269730671798,-20.229178534613716,-88.9542219373915,-42.13020324707031,-4.4077542748781715,-1.1427480867593596,-2.4882537539642637,3.75290764702691,0.06785074869791667,-4.274732801649305,-3.1657,-1.4339,-1.1732,-0.01876,0.01117,0.0585,0.001078777015209198,0.0009999312460422516,0.0008899758104234934,0.0005257987650111318,0.0004999603843316436,0.0005080404225736856,0.00938471406698227,0.01124660950154066,0.011758782900869846,passive,0
1.921,rehab,large_slow,5.557802085970128,-666.6346365946227,315.31279817062114,-177.6499391043945,0.2903957048165724,-149.85097554494072,-50.7247,-0.0132,24.6512,23.9646,-0.6254,-24.9622,77.91235366670212,26.80471665788405,81.74277503891747,-20.125240749782986,-88.95135667588976,-42.25003560384115,-4.353339318001624,-1.1427480867593596,-2.482896559309251,3.750822279188368,0.13570149739583334,-4.206882052951388,-3.0773,-1.5804,-1.3205,-0.0127,0.00551,0.05751,0.001078777015209198,0.0009999312460422516,0.0008899758104234934,0.0005257987650111318,0.0004999603843316436,0.0005080404225736856,0.00938471406698227,0.01124660950154066,0.011758782900869846,passive,0
1.9413,rehab,large_slow,4.7472882897862165,-666.6328653161082,315.7012972073781,-177.6502046319864,0.29060766919282505,-149.85205371283297,-49.7805,-0.0225,23.8583,17.9915,-0.4374,-20.44,77.84215946008663,26.787407752310877,81.7034118954498,-20.06607903374566,-88.94969516330295,-42.31848822699653,-4.353339318001624,-1.0339181730062654,-2.5506229211788365,3.5782284206814237,0.06785074869791667,-4.071180555555555,-3.171,-1.5717,-1.5792,0.00089,-0.00132,0.06587,0.001078777015209198,0.0009999312460422516,0.0008899758104234934,0.0005257987650111318,0.0004999603843316436,0.0005080404225736856,0.00938471406698227,0.01124660950154066,0.011758782900869846,passive,0
1.9614,rehab,large_slow,3.9342744737167705,-666.6329134478733,316.08205374283335,-177.65092439975433,0.2913419851856673,-149.853307538336,-50.0594,-0.0232,23.8225,7.3814,-0.1267,-12.8811,77.77178849324142,26.77093505859375,81.6638176039894,-20.006832546657986,-88.94795735677083,-42.38694085015191,-4.298924361125077,-1.0339181730062654,-2.481802005578976,3.741361829969618,0.13570149739583334,-4.139031304253472,-3.1886,-1.5822,-1.9248,-0.01286,-0.00761,0.05826,0.001078777015209198,0.0009999312460422516,0.0008899758104234934,0.0005257987650111318,0.0004999603843316436,0.0005080404225736856,0.00938471406698227,0.01124660950154066,0.011758782900869846,passive,0
1.981,rehab,large_slow,2.7222041616648704,-666.6331821971642,316.6520501963961,-177.65183622826834,0.29206605629911525,-149.8535496215144,-49.3936,-0.0246,23.4598,-0.3968,0.1361,-6.443,77.66693568465733,26.746596534653467,81.60418142186533,-19.918433295355904,-88.94549899631076,-42.49056498209635,-4.353339318001624,-1.0339181730062654,-2.393863791286355,3.7090216742621527,0.06785074869791667,-4.0033213297526045,-3.1321,-1.4564,-1.2558,-0.00516,-0.01058,0.06138,0.001078777015209198,0.0009999312460422516,0.0008899758104234934,0.0005257987650111318,0.0004999603843316436,0.0005080404225736856,0.00938471406698227,0.01124660950154066,0.011758782900869846,passive,0
2.0012,rehab,large_slow,1.9224062848813688,-666.633277189008,317.031408048359,-177.65230785783098,0.29248541413159596,-149.8536486314335,-48.5185,-0.0292,23.0065,-5.6925,0.3164,-1.808,77.597761248598,26.730586136921797,81.56426760229733,-19.859720865885418,-88.94383748372395,-42.558983696831596,-4.244502605778156,-0.979496417659344,-2.4544177669109684,3.627989027235243,0.13570149739583334,-4.206882052951388,-3.3012,-1.4215,-1.4371,-0.00747,0.007,0.06619,0.001078777015209198,0.0009999312460422516,0.0008899758104234934,0.0005257987650111318,0.0004999603843316436,0.0005080404225736856,0.00938471406698227,0.01124660950154066,0.011758782900869846,passive,0
2.0208,rehab,large_slow,0.7373729232211177,-666.6371348795307,317.5952696183016,-177.6529619909438,0.2931828864730438,-149.85315107118862,-50.035,-0.0233,23.6414,-9.7292,0.4807,1.1168,77.4953558893487,26.707600508586015,81.50368643279123,-19.771982828776043,-88.9412858751085,-42.66090393066406,-4.298924361125077,-0.979496417659344,-2.537182345248685,3.662321302625868,0.06785074869791667,-4.410442776150173,-3.2234,-1.5522,-1.6187,-0.01068,-0.00143,0.06619,0.001078777015209198,0.0009999312460422516,0.0008899758104234934,0.0005257987650111318,0.0004999603843316436,0.0005080404225736856,0.00938471406698227,0.01124660950154066,0.011758782900869846,passive,0
2.0411,rehab,large_slow,-0.050225101524560556,-666.6380161401999,317.9772463017641,-177.6527076235146,0.29303744819337724,-149.85247462683114,-51.0814,-0.0018,24.0591,-10.7822,0.4865,1.9692,77.42728280549002,26.691882445080445,81.46322873559329,-19.713940090603298,-88.93956502278645,-42.72900051540798,-4.4077542748781715,-0.979496417659344,-2.6070842176380724,3.7273067898220487,0.06785074869791667,-4.342592027452257,-3.2614,-1.5424,-1.1291,-0.01899,0.0075,0.05842,0.001078777015209198,0.0009999312460422516,0.0008899758104234934,0.0005257987650111318,0.0004999603843316436,0.0005080404225736856,0.00938471406698227,0.01124660950154066,0.011758782900869846,passive,0
2.061,rehab,large_slow,-1.2593336170910367,-666.635055759764,318.55392236802396,-177.65204871300068,0.2923766574279239,-149.85300686553498,-50.7703,0.0146,23.7789,-6.2505,0.3241,0.6092,77.32276312195428,26.667849852307008,81.40281752784654,-19.62716844346788,-88.93709818522136,-42.83201429578993,-4.516590987101639,-0.979496417659344,-2.5498410970857828,3.679775661892361,0.06785074869791667,-4.342592027452257,-3.3238,-1.5068,-1.5388,-0.0092,0.00598,0.06787,0.001078777015209198,0.0009999312460422516,0.0008899758104234934,0.0005257987650111318,0.0004999603843316436,0.0005080404225736856,0.00938471406698227,0.01124660950154066,0.011758782900869846,passive,0
2.0808,rehab,large_slow,-2.0776704848185488,-666.6350046364583,318.9289695159385,-177.65218503498875,0.29239335603741406,-149.85440374007715,-50.2963,0.0154,23.459,3.6659,0.224,-2.1912,77.25209982088296,26.652804837368503,81.36235983064859,-19.56938001844618,-88.93551296657986,-42.900636461046005,-4.190087648901609,-0.87066650390625,-2.601081168297494,3.59848870171441,0.06785074869791667,-4.546152750651042,-3.1298,-1.5106,-1.3807,-0.01027,0.00346,0.06596,0.001078777015209198,0.0009999312460422516,0.0008899758104234934,0.0005257987650111318,0.0004999603843316436,0.0005080404225736856,0.00938471406698227,0.01124660950154066,0.011758782900869846,passive,0
2.101,rehab,large_slow,-3.291419618167854,-666.634405558024,319.4836732021275,-177.65278738842449,0.29285123759498427,-149.85574330236724,-49.7566,0.0231,23.2093,18.5465,0.2077,-7.4746,77.14730819853226,26.630900165822247,81.30178545961286,-19.482896592881943,-88.93310546875,-43.003124660915795,-4.298924361125077,-0.9250814607827971,-2.541050674891708,3.709437052408854,0.06785074869791667,-4.410442776150173,-3.2962,-1.4817,-1.771,-0.00787,0.00405,0.06588,0.001078777015209198,0.0009999312460422516,0.0008899758104234934,0.0005257987650111318,0.0004999603843316436,0.0005080404225736856,0.00938471406698227,0.01124660950154066,0.011758782900869846,passive,0
2.1211,rehab,large_slow,-4.2822941589524355,-666.6321459887689,319.94148334126737,-177.65350186521061,0.2935966743951578,-149.85521213566622,-50.0792,0.0223,23.441,25.4878,0.1933,-10.5096,77.06172905345954,26.612931808622758,81.25149037578318,-19.410892062717014,-88.93098619249132,-43.08842976888021,-4.190087648901609,-0.87066650390625,-2.474901558148979,3.6345757378472223,0.06785074869791667,-4.139031304253472,-3.2397,-1.5705,-1.3823,-0.01291,0.00556,0.06703,0.001078777015209198,0.0009999312460422516,0.0008899758104234934,0.0005257987650111318,0.0004999603843316436,0.0005080404225736856,0.00938471406698227,0.01124660950154066,0.011758782900869846,passive,0
2.1408,rehab,large_slow,-5.072276501883573,-666.633902307324,320.31054801040784,-177.65341214878504,0.2936149867863702,-149.8544210661917,-49.5766,0.0027,23.2906,14.9103,0.2464,-7.2655,76.99358798489712,26.598974548944152,81.21044801013305,-19.353773328993054,-88.92926534016927,-43.15672132703993,-4.190087648901609,-0.87066650390625,-2.5810256806930694,3.4816741943359375,0.13570149739583334,-4.206882052951388,-3.245,-1.8567,-1.8644,-0.01637,-0.01095,0.06225,0.001078777015209198,0.0009999312460422516,0.0008899758104234934,0.0005257987650111318,0.0004999603843316436,0.0005080404225736856,0.00938471406698227,0.01124660950154066,0.011758782900869846,passive,0
2.161,rehab,large_slow,-6.25846855522554,-666.6350288735746,320.8742142751149,-177.65278416243746,0.29298984951092605,-149.85253912773734,-48.5288,0.0105,22.8742,-3.2064,0.2971,-2.2009,76.89129819964418,26.577640948909345,81.14810603679997,-19.267696804470486,-88.9268069797092,-43.25993008083767,-4.081257735148514,-0.9250814607827971,-2.613603950727104,3.554721408420139,0.13570149739583334,-4.139031304253472,-3.347,-1.6312,-1.9783,-0.00211,0.01333,0.06943,0.001078777015209198,0.0009999312460422516,0.0008899758104234934,0.0005257987650111318,0.0004999603843316436,0.0005080404225736856,0.00938471406698227,0.01124660950154066,0.011758782900869846,passive,0
2.1813,rehab,large_slow,-7.0470881762965325,-666.6353229222984,321.256694871617,-177.6515264101769,0.2917720370345835,-149.85184945309945,-48.6957,0.0399,22.8658,-11.7735,0.152,-2.1051,76.82331349590036,26.56312621466004,81.1063022424679,-19.21095954047309,-88.92519632975261,-43.32796732584635,-4.298924361125077,-0.9250814607827971,-2.620110086875387,3.582797580295139,0.13570149739583334,-4.274732801649305,-3.48,-1.6244,-1.2898,-0.02651,0.00861,0.06136,0.001078777015209198,0.0009999312460422516,0.0008899758104234934,0.0005257987650111318,0.0004999603843316436,0.0005080404225736856,0.00938471406698227,0.01124660950154066,0.011758782900869846,passive,0
2.2013,rehab,large_slow,-8.232375067093406,-666.632362381856,321.8178018692905,-177.6507510608168,0.29099263113654733,-149.8505018579163,-49.2794,0.049,22.856,-11.537,-0.0836,-5.3637,76.72109849382154,26.54196257638459,81.04425260336092,-19.125569661458332,-88.92276340060764,-43.43057420518663,-4.4077542748781715,-0.8162515470297029,-2.662294595548422,3.619418674045139,0.13570149739583334,-4.274732801649305,-3.3563,-1.6383,-1.5925,-0.01264,0.00574,0.06941,0.001078777015209198,0.0009999312460422516,0.0008899758104234934,0.0005257987650111318,0.0004999603843316436,0.0005080404225736856,0.00938471406698227,0.01124660950154066,0.011758782900869846,passive,0
2.2212,rehab,large_slow,-9.028605373118697,-666.6321442829603,322.1817394404936,-177.65051069122595,0.290838934887706,-149.8504777595392,-49.7941,0.0466,22.7532,-15.0119,-0.2221,-5.4031,76.6524883308033,26.528780342328666,81.00300628359955,-19.06924777560764,-88.92107645670573,-43.49857754177517,-4.244502605778156,-0.8162515470297029,-2.666733996702893,3.5535685221354165,0.13570149739583334,-4.071180555555555,-3.4546,-1.7249,-1.7926,-0.03927,0.01348,0.0661,0.001078777015209198,0.0009999312460422516,0.0008899758104234934,0.0005257987650111318,0.0004999603843316436,0.0005080404225736856,0.00938471406698227,0.01124660950154066,0.011758782900869846,passive,0
2.2414,rehab,large_slow,-10.23379617559644,-666.630329399583,322.72219415081963,-177.6506073216329,0.2909229483820065,-149.85034681017476,-51.0304,0.0348,22.9705,-17.6364,-0.3779,-4.7502,76.54866209124575,26.509459089524675,80.94116739707418,-18.98466322157118,-88.91860961914062,-43.60159132215712,-4.462176030225093,-0.8162515470297029,-2.568944798837794,3.531400892469618,0.13570149739583334,-4.0033213297526045,-3.5063,-1.6767,-1.8196,-0.02286,0.01302,0.07164,0.001078777015209198,0.0009999312460422516,0.0008899758104234934,0.0005257987650111318,0.0004999603843316436,0.0005080404225736856,0.00938471406698227,0.01124660950154066,0.011758782900869846,passive,0
2.2609,rehab,large_slow,-11.039572462873217,-666.6281698551778,323.0763301561942,-177.6511655113447,0.2914343559065458,-149.85088374850605,-51.0919,0.0072,22.8056,-10.7199,-0.488,-7.0344,76.47925650719368,26.497017888739556,80.90007744213142,-18.92818874782986,-88.916990492079,-43.66983201768663,-4.353339318001624,-0.7074148348062346,-2.504576881333153,3.498128255208333,0.06785074869791667,-4.0033213297526045,-3.4412,-1.686,-1.0966,-0.03439,0.00733,0.05892,0.001078777015209198,0.0009999312460422516,0.0008899758104234934,0.0005257987650111318,0.0004999603843316436,0.0005080404225736856,0.00938471406698227,0.01124660950154066,0.011758782900869846,passive,0
2.281,rehab,large_slow,-12.24740733542439,-666.6282629102174,323.6049433745902,-177.6517629471813,0.291962666265351,-149.85238150983065,-49.9102,-0.0142,22.1418,-0.6407,-0.331,-9.3477,76.37533508905089,26.479171904006808,80.83775586420947,-18.843968709309895,-88.9145999484592,-43.77131991916232,-4.081257735148514,-0.7074148348062346,-2.5469789410581685,3.511377970377604,0.06785074869791667,-4.206882052951388,-3.3782,-1.683,-1.7853,-0.01651,0.01288,0.06928,0.001078777015209198,0.0009999312460422516,0.0008899758104234934,0.0005257987650111318,0.0004999603843316436,0.0005080404225736856,0.00938471406698227,0.01124660950154066,0.011758782900869846,passive,0
2.3013,rehab,large_slow,-13.048640294345722,-666.6321114872026,323.9636921760084,-177.65119321226277,0.2914566354593684,-149.85238630028965,-50.2325,-0.011,22.1594,7.7794,-0.1038,-11.3862,76.30649377803991,26.46753972119624,80.79519064119546,-18.788341946072048,-88.91294691297743,-43.83953518337673,-4.298924361125077,-0.7074148348062346,-2.628227460502398,3.506927490234375,0.13570149739583334,-4.139031304253472,-3.5697,-1.6175,-1.5845,-0.03204,0.01747,0.067,0.001078777015209198,0.0009999312460422516,0.0008899758104234934,0.0005257987650111318,0.0004999603843316436,0.0005080404225736856,0.00938471406698227,0.01124660950154066,0.011758782900869846,passive,0
2.321,rehab,large_slow,-14.24994783491741,-666.6325912137044,324.4992452060648,-177.65065758624937,0.2909342557120739,-149.85262539234574,-50.4683,0.0035,22.0924,12.8929,-0.0928,-13.2549,76.20321821458269,26.449870496693222,80.73200565753596,-18.704952663845486,-88.9105224609375,-43.941641913519966,-4.4077542748781715,-0.7074148348062346,-2.589081868086711,3.5140313042534723,0.06785074869791667,-4.342592027452257,-3.4109,-1.7284,-1.8337,-0.01966,0.01931,0.06833,0.001078777015209198,0.0009999312460422516,0.0008899758104234934,0.0005257987650111318,0.0004999603843316436,0.0005080404225736856,0.00938471406698227,0.01124660950154066,0.011758782900869846,passive,0
2.341,rehab,large_slow,-15.241361493609693,-666.6324446701407,324.9441760368032,-177.649986288268,0.2903047667685746,-149.85171160152058,-50.0471,0.0089,21.706,7.6133,-0.2594,-11.5337,76.1180061869102,26.435348963973546,80.67938549683825,-18.635982937282986,-88.90847947862413,-44.026997884114586,-4.244502605778156,-0.7074148348062346,-2.620450010394106,3.472629123263889,0.06785074869791667,-4.071180555555555,-3.4941,-1.7539,-1.698,-0.01693,0.00614,0.0713,0.001078777015209198,0.0009999312460422516,0.0008899758104234934,0.0005257987650111318,0.0004999603843316436,0.0005080404225736856,0.00938471406698227,0.01124660950154066,0.011758782900869846,passive,0
2.361,rehab,large_slow,-16.0373465992775,-666.6309552122588,325.2869768841188,-177.6505964885474,0.29087162318555027,-149.85168425826836,-50.124,0.0081,21.5999,-3.4413,-0.5387,-6.8985,76.04959317953279,26.424498605256034,80.63777205967666,-18.58050028483073,-88.90688578287761,-44.0948232014974,-4.353339318001624,-0.6529998779296875,-2.6649459989944306,3.5858578152126737,0.06785074869791667,-4.206882052951388,-3.3576,-1.74,-2.1322,-0.01212,0.00674,0.06974,0.001078777015209198,0.0009999312460422516,0.0008899758104234934,0.0005257987650111318,0.0004999603843316436,0.0005080404225736856,0.00938471406698227,0.01124660950154066,0.011758782900869846,passive,0
2.3809,rehab,large_slow,-17.242865455323965,-666.6288672433668,325.79161800141304,-177.6519849700563,0.29229883155460695,-149.8522734095076,-49.8473,-0.0037,21.3433,-4.2687,-0.8282,-5.1434,75.94601848337909,26.409079674446936,80.57538249705097,-18.49740770128038,-88.90441046820746,-44.19688754611545,-4.244502605778156,-0.6529998779296875,-2.6250117840153155,3.4644826253255205,0.13570149739583334,-4.206882052951388,-3.5121,-1.7489,-1.9196,-0.02497,0.0018,0.06765,0.001078777015209198,0.0009999312460422516,0.0008899758104234934,0.0005257987650111318,0.0004999603843316436,0.0005080404225736856,0.00938471406698227,0.01124660950154066,0.011758782900869846,passive,0
2.4011,rehab,large_slow,-18.058106030615065,-666.6286098875856,326.1300994015577,-177.6525278309345,0.2927762054945047,-149.8536652289058,-49.7254,-0.0406,21.126,-2.6067,-0.9129,-3.3163,75.87604862628596,26.399038333703977,80.53329996543356,-18.44236585828993,-88.90284220377605,-44.26485697428385,-4.4077542748781715,-0.5985781225827661,-2.56102458085164,3.492889404296875,0.06785074869791667,-4.274732801649305,-3.3781,-1.7247,-1.8814,-0.01719,0.00909,0.06641,0.001078777015209198,0.0009999312460422516,0.0008899758104234934,0.0005257987650111318,0.0004999603843316436,0.0005080404225736856,0.00938471406698227,0.01124660950154066,0.011758782900869846,passive,0
2.4211,rehab,large_slow,-19.276302545284192,-666.6299129850554,326.6445524357769,-177.65246192501144,0.29264227604485965,-149.8540762769338,-50.2148,-0.0767,21.176,-3.302,-0.6923,-0.875,75.77156973357248,26.384068101939587,80.46933995615137,-18.360239664713543,-88.90046013726128,-44.368014865451386,-4.353339318001624,-0.5985781225827661,-2.7300413528291307,3.4655253092447915,0.06785074869791667,-4.47829352484809,-3.2998,-1.9066,-1.6146,-0.01956,0.00529,0.06503,0.001078777015209198,0.0009999312460422516,0.0008899758104234934,0.0005257987650111318,0.0004999603843316436,0.0005080404225736856,0.00938471406698227,0.01124660950154066,0.011758782900869846,passive,0
2.4409,rehab,large_slow,-20.076484033862112,-666.6340038286925,326.9962891872453,-177.6513869235754,0.29166613515938283,-149.85396550185712,-50.6527,-0.0875,21.3469,2.9451,-0.2891,-2.8336,75.70302755525796,26.374135536722616,80.4256529855256,-18.305867513020832,-88.89880710177951,-44.4360605875651,-4.190087648901609,-0.5985781225827661,-2.7144592587310488,3.431277804904514,0.06785074869791667,-4.139031304253472,-3.3742,-1.7403,-1.4181,-0.01606,-0.00486,0.06188,0.001078777015209198,0.0009999312460422516,0.0008899758104234934,0.0005257987650111318,0.0004999603843316436,0.0005080404225736856,0.00938471406698227,0.01124660950154066,0.011758782900869846,passive,0
2.4609,rehab,large_slow,-21.275090883547552,-666.6372277851009,327.5103738415994,-177.65083409190248,0.2911320953262146,-149.85385957818715,-50.4523,-0.0802,21.3501,5.9255,0.1727,-3.9749,75.60035025719368,26.359899539758665,80.36089075673925,-18.224334716796875,-88.89640808105469,-44.5379384358724,-4.462176030225093,-0.5985781225827661,-2.7021880197052908,3.3955128987630205,0.06785074869791667,-4.071180555555555,-3.3147,-1.7636,-1.4621,-0.00189,-0.00047,0.06717,0.001078777015209198,0.0009999312460422516,0.0008899758104234934,0.0005257987650111318,0.0004999603843316436,0.0005080404225736856,0.00938471406698227,0.01124660950154066,0.011758782900869846,passive,0
2.481,rehab,large_slow,-22.08079837940299,-666.639118597801,327.8476864198362,-177.65085553450498,0.29114971724238226,-149.85452408595933,-49.9294,-0.0597,21.2114,8.0983,0.6203,-4.2537,75.53135937983447,26.35090516345336,80.31767967903968,-18.169903225368923,-88.89482286241319,-44.60566202799479,-4.353339318001624,-0.544163165706219,-2.631381950756111,3.4267086452907987,0.06785074869791667,-4.274732801649305,-3.5281,-1.8903,-1.4852,-0.02738,0.00846,0.06533,0.001078777015209198,0.0009999312460422516,0.0008899758104234934,0.0005257987650111318,0.0004999603843316436,0.0005080404225736856,0.00938471406698227,0.01124660950154066,0.011758782900869846,passive,0
2.501,rehab,large_slow,-23.278418509427592,-666.6386298811556,328.3404809018271,-177.65200598221818,0.29214303696037935,-149.85412047591953,-49.8446,-0.0351,21.1415,16.6699,0.9024,-7.0067,75.42879085729618,26.337974472801285,80.25369927434637,-18.088158501519096,-88.89253404405382,-44.70773484971788,-4.298924361125077,-0.544163165706219,-2.602155326616646,3.359849717881944,0.06785074869791667,-4.274732801649305,-3.5673,-1.8166,-1.9292,-0.03134,0.00134,0.06975,0.001078777015209198,0.0009999312460422516,0.0008899758104234934,0.0005257987650111318,0.0004999603843316436,0.0005080404225736856,0.00938471406698227,0.01124660950154066,0.011758782900869846,passive,0
2.5208,rehab,large_slow,-24.060820418435036,-666.6370017008253,328.6698033787084,-177.65250440810453,0.29267064260378794,-149.85298499341081,-48.8441,-0.0182,20.5621,20.4269,0.9175,-8.2654,75.36176473787515,26.32923163989983,80.21122243144724,-18.034015231662327,-88.89093187120226,-44.77529737684462,-4.244502605778156,-0.5985781225827661,-2.7295722583732984,3.338309393988715,0.13570149739583334,-4.47829352484809,-3.4135,-1.887,-2.3177,-0.02196,0.00705,0.07153,0.001078777015209198,0.0009999312460422516,0.0008899758104234934,0.0005257987650111318,0.0004999603843316436,0.0005080404225736856,0.00938471406698227,0.01124660950154066,0.011758782900869846,passive,0
2.5414,rehab,large_slow,-25.22059249429853,-666.6365111809681,329.1692910417215,-177.65241028101164,0.2926887082452389,-149.85199320055298,-48.6669,-0.0089,20.4207,27.0676,0.7946,-10.8512,75.26249347346844,26.316219367603264,80.14686811088335,-17.953465779622395,-88.88854132758246,-44.87466600206163,-4.081257735148514,-0.544163165706219,-2.6331563515238243,3.3231268988715277,0.13570149739583334,-4.206882052951388,-3.4346,-1.926,-1.7198,-0.03226,0.00051,0.06224,0.001078777015209198,0.0009999312460422516,0.0008899758104234934,0.0005257987650111318,0.0004999603843316436,0.0005080404225736856,0.00938471406698227,0.01124660950154066,0.011758782900869846,passive,0
2.561,rehab,large_slow,-26.189348158494997,-666.6375433015816,329.5853993055227,-177.65187535956264,0.29222714846872966,-149.8522319519325,-49.0533,0.0012,20.674,37.1027,0.6272,-13.768,75.17965411195661,26.30575652169709,80.09292904693301,-17.887098524305554,-88.88659159342448,-44.95652940538194,-4.244502605778156,-0.489748208829672,-2.7427408954884744,3.3708869086371527,0.20355224609375,-4.0033213297526045,-3.49,-1.8564,-1.7163,-0.02415,0.00118,0.06866,0.001078777015209198,0.0009999312460422516,0.0008899758104234934,0.0005257987650111318,0.0004999603843316436,0.0005080404225736856,0.00938471406698227,0.01124660950154066,0.011758782900869846,passive,0
2.5808,rehab,large_slow,-26.964373423375623,-666.6392864864204,329.9128740140157,-177.6518662590984,0.2921904570823419,-149.85223993595145,-47.7014,0.0117,20.268,34.9738,0.4157,-9.8638,75.11343701051013,26.2979790715888,80.04958879829633,-17.833870781792534,-88.88509114583333,-45.02215067545573,-4.081257735148514,-0.489748208829672,-2.707898734819771,3.3758544921875,0.06785074869791667,-4.0033213297526045,-3.2873,-1.8105,-1.4664,0.00602,0.01514,0.07077,0.001078777015209198,0.0009999312460422516,0.0008899758104234934,0.0005257987650111318,0.0004999603843316436,0.0005080404225736856,0.00938471406698227,0.01124660950154066,0.011758782900869846,passive,0
2.601,rehab,large_slow,-28.124831884808625,-666.6399836756034,330.38820425686464,-177.65265827339766,0.2928831895623868,-149.85319739685454,-47.0272,0.0241,20.1096,28.4456,0.2158,-3.7103,75.01430171551091,26.287108317460163,79.98564918442528,-17.754830254448784,-88.8829125298394,-45.11945936414931,-3.918006066048499,-0.435333251953125,-2.5976275453473083,3.1913248697916665,0.13570149739583334,-4.139031304253472,-3.3837,-1.8478,-2.1495,-0.01536,0.01381,0.0714,0.001078777015209198,0.0009999312460422516,0.0008899758104234934,0.0005257987650111318,0.0004999603843316436,0.0005080404225736856,0.00938471406698227,0.01124660950154066,0.011758782900869846,passive,0
2.6208,rehab,large_slow,-28.875845425023787,-666.6397549953427,330.706916096325,-177.65291353741404,0.29321174570697717,-149.8531176532802,-46.2199,0.0314,19.8726,32.1605,-0.0286,-3.9942,74.9501377521175,26.279711581692837,79.94307716294091,-17.70236545138889,-88.88139512803819,-45.18312242296007,-4.026835979801594,-0.544163165706219,-2.644387424582302,3.2615492078993054,0.06785074869791667,-3.9354705810546875,-3.4907,-1.8557,-1.8846,-0.03259,0.01788,0.06974,0.001078777015209198,0.0009999312460422516,0.0008899758104234934,0.0005257987650111318,0.0004999603843316436,0.0005080404225736856,0.00938471406698227,0.01124660950154066,0.011758782900869846,passive,0
2.641,rehab,large_slow,-29.974328480181097,-666.6361754015797,331.1896620757192,-177.65279672509985,0.2931863641934384,-149.85231378853032,-44.2777,0.0292,19.2241,36.2357,-0.2442,-6.2945,74.85625087624729,26.268004615708154,79.87967462822942,-17.624282836914062,-88.87917412651909,-45.276947021484375,-3.918006066048499,-0.489748208829672,-2.5961998665686883,3.1968434651692705,0.13570149739583334,-3.8676198323567705,-3.2718,-2.0397,-2.1223,-0.00861,-0.01144,0.06487,0.001078777015209198,0.0009999312460422516,0.0008899758104234934,0.0005257987650111318,0.0004999603843316436,0.0005080404225736856,0.00938471406698227,0.01124660950154066,0.011758782900869846,passive,0
2.6613,rehab,large_slow,-30.6998084642874,-666.634203019909,331.513180051637,-177.65234497670284,0.29273154198593965,-149.85232945958862,-44.9087,0.0208,19.7493,32.604,-0.2127,-5.3241,74.79428961725519,26.260240762540608,79.83728616544516,-17.57275899251302,-88.87776692708333,-45.33832126193576,-3.8635911091719524,-0.435333251953125,-2.6500029611115408,3.1839836968315973,0.06785074869791667,-3.664059109157986,-3.3963,-1.92,-1.8266,-0.02595,-0.00885,0.05831,0.001078777015209198,0.0009999312460422516,0.0008899758104234934,0.0005257987650111318,0.0004999603843316436,0.0005080404225736856,0.00938471406698227,0.01124660950154066,0.011758782900869846,passive,0
2.681,rehab,large_slow,-31.758130299001827,-666.634033214278,331.98396388050065,-177.6522614689548,0.2925596634363661,-149.85120028692273,-45.5459,0.0106,20.2933,33.5001,0.0441,-5.6552,74.7040059306834,26.24970313346032,79.7741691664894,-17.496312459309895,-88.87575785319011,-45.42889065212673,-3.5915027278484684,-0.435333251953125,-2.609205340394879,3.059073554144965,0.13570149739583334,-3.799769083658854,-3.4313,-1.8096,-1.7771,-0.02267,0.01071,0.06314,0.001078777015209198,0.0009999312460422516,0.0008899758104234934,0.0005257987650111318,0.0004999603843316436,0.0005080404225736856,0.00938471406698227,0.01124660950154066,0.011758782900869846,passive,0
2.7008,rehab,large_slow,-32.44969238826377,-666.6353132651215,332.2906427422687,-177.65237427101223,0.29264216408105453,-149.8502310239182,-43.5534,0.001,19.5364,39.3125,0.4156,-8.0499,74.64506319253752,26.243244586604657,79.7323449767462,-17.445941501193577,-88.87442694769965,-45.48824734157986,-3.5915027278484684,-0.3809114966062036,-2.6343528823097153,3.1240081787109375,0.06785074869791667,-3.528349134657118,-3.4517,-2.027,-2.0435,-0.03563,0.00868,0.0671,0.001078777015209198,0.0009999312460422516,0.0008899758104234934,0.0005257987650111318,0.0004999603843316436,0.0005080404225736856,0.00938471406698227,0.01124660950154066,0.011758782900869846,passive,0
2.7213,rehab,large_slow,-33.464046493622945,-666.6379913877909,332.745712667297,-177.65236101879074,0.2926426409252116,-149.84998800308026,-42.205,0.0013,19.0503,48.8054,0.7132,-12.1957,74.5586614325495,26.233883092899134,79.67005739117613,-17.371478610568577,-88.87246873643663,-45.574069552951386,-3.5370877709719215,-0.3809114966062036,-2.6387650895826886,3.089353773328993,0.13570149739583334,-3.664059109157986,-3.4024,-1.9239,-1.9479,-0.02303,0.00112,0.06215,0.001078777015209198,0.0009999312460422516,0.0008899758104234934,0.0005257987650111318,0.0004999603843316436,0.0005080404225736856,0.00938471406698227,0.01124660950154066,0.011758782900869846,passive,0
2.7412,rehab,large_slow,-34.13156647261406,-666.6375774021462,333.04758452098423,-177.6521313158697,0.2924195035787053,-149.85055992951496,-41.7227,0.0355,19.0208,70.974,0.6159,-21.1053,74.50177863092706,26.227444941454593,79.6292257781076,-17.32269287109375,-88.87119717068143,-45.62984042697482,-3.482672814095374,-0.3809114966062036,-2.5931949426632115,2.89414299858941,0.06785074869791667,-3.4604983859592013,-3.3645,-1.938,-2.4241,-0.01127,0.0067,0.06886,0.001078777015209198,0.0009999312460422516,0.0008899758104234934,0.0005257987650111318,0.0004999603843316436,0.0005080404225736856,0.00938471406698227,0.01124660950154066,0.011758782900869846,passive,0
2.7609,rehab,large_slow,-35.27967527521872,-666.6360395016621,333.56890957142724,-177.65165863826144,0.29195750206251175,-149.85381086183014,-40.088,0.0724,18.5582,90.0633,0.1316,-27.2798,74.4039758361212,26.216445016388846,79.55861686479928,-17.238659328884548,-88.8690694173177,-45.723461574978295,-3.428251058748453,-0.435333251953125,-2.444281247582766,2.931637234157986,0.13570149739583334,-3.2569376627604165,-3.3337,-1.89,-1.6082,-0.03238,0.00562,0.05751,0.001078777015209198,0.0009999312460422516,0.0008899758104234934,0.0005257987650111318,0.0004999603843316436,0.0005080404225736856,0.00938471406698227,0.01124660950154066,0.011758782900869846,passive,0
2.781,rehab,large_slow,-35.89602447866887,-666.6329047782643,333.85896997134824,-177.6518230182821,0.2921312653353591,-149.85404490434334,-38.4234,0.0825,18.1276,87.8427,-0.4592,-22.4167,74.35143045859762,26.210108841999922,79.51947127238358,-17.19122992621528,-88.86789957682292,-45.775248209635414,-3.1561694758953434,-0.3809114966062036,-2.4343758762472927,2.9813639322916665,0.06785074869791667,-3.4604983859592013,-3.2477,-1.8865,-2.0496,-0.02244,0.01042,0.06343,0.001078777015209198,0.0009999312460422516,0.0008899758104234934,0.0005257987650111318,0.0004999603843316436,0.0005080404225736856,0.00938471406698227,0.01124660950154066,0.011758782900869846,passive,0
2.8008,rehab,large_slow,-36.49428623401981,-666.6311752712576,334.15048619574617,-177.6517047766918,0.2919098421988279,-149.85378947258974,-36.5394,0.07,17.6256,81.9646,-0.8917,-15.0295,74.300482721612,26.203806659962872,79.4802169044419,-17.144241333007812,-88.86683146158855,-45.82593282063802,-3.1561694758953434,-0.3809114966062036,-2.3435007227529394,2.9607306586371527,-0.0,-3.1890869140625,-3.4701,-1.9822,-2.0627,-0.02867,0.02689,0.06651,0.001078777015209198,0.0009999312460422516,0.0008899758104234934,0.0005257987650111318,0.0004999603843316436,0.0005080404225736856,0.00938471406698227,0.01124660950154066,0.011758782900869846,passive,0
2.8211,rehab,large_slow,-37.36333415885345,-666.6279837967802,334.57795324102165,-177.6515980768957,0.2917306044531097,-149.85470915480505,-34.2937,0.0167,17.0433,82.6734,-1.0909,-10.1345,74.22648137158687,26.194615128016707,79.42256587566716,-17.075212266710068,-88.86526319715712,-45.89825100368923,-2.992917806795328,-0.3809114966062036,-2.3942241102161974,2.891421847873264,0.13570149739583334,-2.9176754421657987,-3.4574,-2.1259,-1.9355,-0.04575,0.00839,0.0602,0.001078777015209198,0.0009999312460422516,0.0008899758104234934,0.0005257987650111318,0.0004999603843316436,0.0005080404225736856,0.00938471406698227,0.01124660950154066,0.011758782900869846,passive,0
2.8412,rehab,large_slow,-37.92176164088848,-666.6277881440756,334.85593531731934,-177.65146111295877,0.29167685169571883,-149.8563660743648,-32.3556,-0.0407,16.7611,81.0894,-0.8552,-5.604,74.17898045908106,26.188945203724472,79.3846304109781,-17.030241224500866,-88.86419508192274,-45.943595038519966,-2.8296661376953125,-0.3809114966062036,-2.4527249477877473,2.7789984809027777,0.13570149739583334,-2.8498246934678817,-3.3312,-2.0694,-1.2744,-0.0382,-0.00136,0.05305,0.001078777015209198,0.0009999312460422516,0.0008899758104234934,0.0005257987650111318,0.0004999603843316436,0.0005080404225736856,0.00938471406698227,0.01124660950154066,0.011758782900869846,passive,0
2.8613,rehab,large_slow,-38.711611397125424,-666.6319238295334,335.26862477720766,-177.651355451169,0.2915583249959189,-149.8568022449214,-31.1838,-0.0579,16.8898,78.4874,-0.1978,-2.7145,74.11192714577854,26.180990993386448,79.32761163994817,-16.963246663411457,-88.86274549696181,-46.00947062174479,-2.7208362239422184,-0.32649653972965653,-2.391239581721844,2.781999376085069,0.13570149739583334,-2.6462639702690973,-3.3135,-1.952,-1.3272,-0.01374,-0.0036,0.05843,0.001078777015209198,0.0009999312460422516,0.0008899758104234934,0.0005257987650111318,0.0004999603843316436,0.0005080404225736856,0.00938471406698227,0.01124660950154066,0.011758782900869846,passive,0
2.8811,rehab,large_slow,-39.21047529844713,-666.6337902520053,335.5364306344645,-177.65184226640645,0.2920770901833442,-149.85671800224924,-30.7277,-0.0355,17.3666,73.1727,0.5266,-1.0666,74.06956587687577,26.175837752842668,79.29033562688544,-16.918716430664062,-88.86181301540799,-46.05142381456163,-2.6664212670656715,-0.32649653972965653,-2.2830147318320697,2.7810245090060763,0.06785074869791667,-2.5784132215711804,-3.2714,-2.1677,-1.4995,-0.01884,-0.00298,0.05931,0.001078777015209198,0.0009999312460422516,0.0008899758104234934,0.0005257987650111318,0.0004999603843316436,0.0005080404225736856,0.00938471406698227,0.01124660950154066,0.011758782900869846,passive,0
2.9011,rehab,large_slow,-39.901842230252,-666.6354450085233,335.9401661732821,-177.65243957270442,0.2927395724568183,-149.85545190822648,-28.886,0.0025,17.3009,67.8017,1.0293,-3.9387,74.01084068978187,26.167523223574797,79.23510485356397,-16.852315266927082,-88.86049058702257,-46.11067877875434,-2.448754641089109,-0.32649653972965653,-2.2804109176786818,2.7553643120659723,0.06785074869791667,-2.374852498372396,-3.4462,-2.0336,-1.6388,-0.02741,0.00022,0.06477,0.001078777015209198,0.0009999312460422516,0.0008899758104234934,0.0005257987650111318,0.0004999603843316436,0.0005080404225736856,0.00938471406698227,0.01124660950154066,0.011758782900869846,passive,0
2.9212,rehab,large_slow,-40.3335460012568,-666.6366767832227,336.2123387527669,-177.65227800242178,0.29259349302352294,-149.8540387813262,-27.0941,0.0396,16.9962,70.4356,0.8682,-14.5366,73.9741833375232,26.161601755878714,79.19867864929803,-16.80893792046441,-88.85965983072917,-46.148266262478295,-2.2310880151125465,-0.3809114966062036,-2.278697703144338,2.7524820963541665,-0.0,-2.171291775173611,-3.3568,-1.9903,-1.8609,-0.02214,-0.00526,0.06506,0.001078777015209198,0.0009999312460422516,0.0008899758104234934,0.0005257987650111318,0.0004999603843316436,0.0005080404225736856,0.00938471406698227,0.01124660950154066,0.011758782900869846,passive,0
2.9412,rehab,large_slow,-40.9495733160145,-666.6317315528336,336.6169822274294,-177.65178980937677,0.29204662926869307,-149.8524880755417,-25.0805,0.0652,16.2504,77.8218,0.0613,-28.8108,73.92173313858486,26.151716779954363,79.14637801670791,-16.745715671115452,-88.85853237575955,-46.201561821831596,-2.067836346012531,-0.435333251953125,-2.1977891072188274,2.6075575086805554,-0.0,-2.171291775173611,-3.1705,-1.9824,-1.6052,-0.00582,0.00619,0.0584,0.001078777015209198,0.0009999312460422516,0.0008899758104234934,0.0005257987650111318,0.0004999603843316436,0.0005080404225736856,0.00938471406698227,0.01124660950154066,0.011758782900869846,passive,0
2.9619,rehab,large_slow,-41.34281729449739,-666.6277966710811,336.875227799304,-177.65169986570766,0.2919404614372501,-149.85280974183047,-23.9342,0.0536,15.8204,92.1468,-0.816,-46.7439,73.88824387352065,26.145421396387686,79.11288875164372,-16.70498318142361,-88.8578372531467,-46.23427497016059,-2.067836346012531,-0.3809114966062036,-2.0288879092377012,2.537689208984375,-0.0,-1.9677310519748263,-3.2191,-1.9941,-2.0082,-0.00898,0.01352,0.06051,0.001078777015209198,0.0009999312460422516,0.0008899758104234934,0.0005257987650111318,0.0004999603843316436,0.0005080404225736856,0.00938471406698227,0.01124660950154066,0.011758782900869846,passive,0
2.9811,rehab,large_slow,-41.98663234699174,-666.6261887690515,337.3026725966724,-177.65103119083562,0.2912554231654032,-149.8544460236119,-22.7015,0.0258,15.0353,101.0991,-1.1085,-59.5069,73.83355017935875,26.135597606696706,79.0568217664662,-16.63831075032552,-88.85670979817708,-46.28658718532986,-1.9045846769125154,-0.3809114966062036,-1.8975074692527847,2.239413791232639,-0.0,-1.696319580078125,-3.3764,-1.9376,-1.6371,-0.02277,0.01432,0.06347,0.001078777015209198,0.0009999312460422516,0.0008899758104234934,0.0005257987650111318,0.0004999603843316436,0.0005080404225736856,0.00938471406698227,0.01124660950154066,0.011758782900869846,passive,0
3.0011,rehab,large_slow,-42.324117092149926,-666.6282157258094,337.5259214749232,-177.65068471929956,0.290866362782573,-149.8554911530716,-20.3499,-0.0258,13.4438,102.1867,-0.7517,-63.9439,73.80496261143448,26.13092025907913,79.02685410905592,-16.603283352322048,-88.8561503092448,-46.31373935275607,-1.5780813387124846,-0.2720815828531095,-1.8143077888111077,2.1144866943359375,0.06785074869791667,-1.696319580078125,-3.3383,-1.9635,-1.804,-0.01499,0.00825,0.06708,0.001078777015209198,0.0009999312460422516,0.0008899758104234934,0.0005257987650111318,0.0004999603843316436,0.0005080404225736856,0.00938471406698227,0.01124660950154066,0.011758782900869846,passive,0
3.021,rehab,large_slow,-42.63935706966583,-666.6308370203495,337.7300929300153,-177.65056885409203,0.29080373752580096,-149.85626725850577,-18.178,-0.0777,12.0267,106.1674,-0.0528,-65.6092,73.77827181674466,26.126895564617495,78.99893279122834,-16.57061258951823,-88.85556538899739,-46.33928934733073,-1.6325030940594059,-0.2720815828531095,-1.6124815988068533,1.8983968098958333,0.06785074869791667,-1.4927588568793402,-3.3085,-1.8927,-1.7815,-0.01643,0.00388,0.06052,0.001078777015209198,0.0009999312460422516,0.0008899758104234934,0.0005257987650111318,0.0004999603843316436,0.0005080404225736856,0.00938471406698227,0.01124660950154066,0.011758782900869846,passive,0
3.0409,rehab,large_slow,-43.05756154458208,-666.6334098104121,338.0035027368612,-177.65060906205744,0.29082468951397955,-149.85740198211548,-15.6822,-0.0629,10.537,111.0151,0.7152,-66.7228,73.74285858456452,26.12143639290687,78.96158879346187,-16.526641845703125,-88.85486178927951,-46.37307908799913,-1.305999755859375,-0.16324487062964108,-1.4953575511970143,1.7354838053385415,-0.06785074869791667,-1.2892066107855902,-3.1544,-2.1418,-1.6958,-0.01266,0.00293,0.05635,0.001078777015209198,0.0009999312460422516,0.0008899758104234934,0.0005257987650111318,0.0004999603843316436,0.0005080404225736856,0.00938471406698227,0.01124660950154066,0.011758782900869846,passive,0
3.0609,rehab,large_slow,-43.30293024841451,-666.6341841723156,338.16265842251346,-177.65075536088133,0.2909481826457029,-149.85817917520748,-13.1148,-0.0046,9.071,110.4991,1.2326,-64.9507,73.72206886215966,26.118234313360535,78.93983368826385,-16.50083753797743,-88.85446336534288,-46.39280531141493,-1.251584798982828,-0.2176666259765625,-1.2751550957708075,1.5503438313802083,-0.0,-1.153496636284722,-3.0882,-2.1018,-1.8966,-0.01729,0.00645,0.05794,0.001078777015209198,0.0009999312460422516,0.0008899758104234934,0.0005257987650111318,0.0004999603843316436,0.0005080404225736856,0.00938471406698227,0.01124660950154066,0.011758782900869846,passive,0
3.081,rehab,large_slow,-43.60205461668071,-666.6334170812881,338.3726126794085,-177.65096035330788,0.2911812516709384,-149.85747263583565,-11.2098,0.0588,8.089,102.7016,1.3542,-60.2822,73.69666977684096,26.113590958094832,78.9117696025584,-16.46696302625868,-88.85390387641058,-46.41853332519531,-0.87066650390625,-0.16324487062964108,-1.135677677570003,1.32598876953125,0.06785074869791667,-1.0177951388888888,-3.2262,-2.139,-2.582,-0.02916,0.00986,0.06189,0.001078777015209198,0.0009999312460422516,0.0008899758104234934,0.0005257987650111318,0.0004999603843316436,0.0005080404225736856,0.00938471406698227,0.01124660950154066,0.011758782900869846,passive,0
3.1009,rehab,large_slow,-43.75639917295867,-666.6346521812327,338.49673692279373,-177.65101035915518,0.29126427360309937,-149.85602296062845,-9.7964,0.093,7.3639,94.5308,0.9349,-57.3556,73.68359631831103,26.11087156994508,78.8951813348449,-16.447084214952255,-88.85358174641927,-46.432834201388886,-0.7074148348062346,-0.16324487062964108,-0.9446474585202661,1.1764102511935763,0.06785074869791667,-0.7463751898871528,-3.1437,-1.9744,-2.7521,-0.01121,0.00315,0.06694,0.001078777015209198,0.0009999312460422516,0.0008899758104234934,0.0005257987650111318,0.0004999603843316436,0.0005080404225736856,0.00938471406698227,0.01124660950154066,0.011758782900869846,passive,0
3.121,rehab,large_slow,-43.950068125550445,-666.6270974072324,338.6500035622667,-177.6516783485945,0.2920148750257467,-149.85475473143816,-7.6156,0.0846,5.9822,88.5267,-0.1748,-56.4973,73.66696725977529,26.106472959612855,78.87600284991878,-16.421915690104168,-88.85317484537761,-46.45044962565104,-0.5985781225827661,-0.16324487062964108,-0.697203532303914,0.9265899658203125,0.06785074869791667,-0.6106736924913194,-3.2156,-1.9414,-1.5433,-0.0255,0.00411,0.05312,0.001078777015209198,0.0009999312460422516,0.0008899758104234934,0.0005257987650111318,0.0004999603843316436,0.0005080404225736856,0.00938471406698227,0.01124660950154066,0.011758782900869846,passive,0
3.141,rehab,large_slow,-44.05727371783182,-666.6238141219205,338.7392392803683,-177.65162049451865,0.2919591116763433,-149.85428389035363,-5.9527,0.0546,4.7895,83.6577,-1.3445,-55.6644,73.65778932476988,26.103909936281713,78.86507770802714,-16.408191257052952,-88.85297139485677,-46.45994398328993,-0.544163165706219,-0.16324487062964108,-0.6530678626334313,0.749630398220486,0.06785074869791667,-0.5428229437934028,-3.1608,-2.0391,-2.2003,-0.00463,-0.00319,0.06226,0.001078777015209198,0.0009999312460422516,0.0008899758104234934,0.0005257987650111318,0.0004999603843316436,0.0005080404225736856,0.00938471406698227,0.01124660950154066,0.011758782900869846,passive,0
3.1612,rehab,large_slow,-44.18850669135791,-666.6250514121566,338.8493298893722,-177.65098245806786,0.2912510412362875,-149.85417824266932,-4.3621,0.0112,3.6171,80.7988,-2.0134,-54.9324,73.64669422111889,26.101319719069075,78.85101847129293,-16.392127143012154,-88.85276794433594,-46.47096421983507,-0.3809114966062036,-0.05441495687654703,-0.466402261564047,0.5765448676215278,-0.0,-0.4071129692925347,-3.2205,-2.0629,-1.9403,-0.03491,0.00761,0.05471,0.001078777015209198,0.0009999312460422516,0.0008899758104234934,0.0005257987650111318,0.0004999603843316436,0.0005080404225736856,0.00938471406698227,0.01124660950154066,0.011758782900869846,passive,0
3.1812,rehab,large_slow,-44.25266494944183,-666.6260187566411,338.9006721915555,-177.65088377500055,0.2910955495135813,-149.85411066215676,-2.7426,-0.0295,2.4859,76.8969,-2.1306,-51.7775,73.64128263870089,26.10023876227955,78.84417241162593,-16.384201049804688,-88.85269165039062,-46.476355658637154,-0.2720815828531095,-0.0,-0.3893959876334313,0.4181247287326389,-0.0,-0.2714114718967014,-3.169,-2.061,-1.7871,-0.02002,0.01533,0.05644,0.001078777015209198,0.0009999312460422516,0.0008899758104234934,0.0005257987650111318,0.0004999603843316436,0.0005080404225736856,0.00938471406698227,0.01124660950154066,0.011758782900869846,passive,0
3.201,rehab,large_slow,-44.31419656949374,-666.6301148282208,338.94526120042525,-177.65188898917023,0.2921737748631402,-149.85318240589766,-1.2119,-0.0849,1.5204,66.0424,-1.8047,-42.5442,73.6361565920386,26.100062002049814,78.83647654316214,-16.37465582953559,-88.85255601671007,-46.48230658637153,-0.10882991375309406,-0.0,-0.18419095785310952,0.2588907877604167,-0.0,-0.13570149739583334,-3.2725,-1.9639,-1.7984,-0.03581,0.02039,0.05684,0.001078777015209198,0.0009999312460422516,0.0008899758104234934,0.0005257987650111318,0.0004999603843316436,0.0005080404225736856,0.00938471406698227,0.01124660950154066,0.011758782900869846,passive,0
3.221,rehab,large_slow,-44.32114824881702,-666.63131553953,338.95615284170515,-177.65258454545253,0.29293575841456215,-149.85217553118764,0.1613,-0.1218,0.7285,52.6232,-1.2841,-31.4314,73.63558552052714,26.100082397460938,78.83426704029046,-16.371383666992188,-88.85250515407986,-46.483849419487846,0.10882991375309406,-0.0,-0.10963893172764543,0.20097520616319445,-0.0,-0.06785074869791667,-3.1736,-2.0245,-1.5855,-0.01961,0.00981,0.05978,0.001078777015209198,0.0009999312460422516,0.0008899758104234934,0.0005257987650111318,0.0004999603843316436,0.0005080404225736856,0.00938471406698227,0.01124660950154066,0.011758782900869846,passive,0
3.2411,rehab,large_slow,-44.29691020954575,-666.6325397314031,338.9592300527745,-177.6533011622785,0.2937024612249341,-149.84959685857694,1.1125,-0.1195,0.2065,41.5961,-0.654,-22.292,73.63765225552096,26.100095994401688,78.83336964220103,-16.369433932834202,-88.8524881998698,-46.48434109157986,0.2176666259765625,-0.05441495687654703,0.03233352510055693,0.10096232096354166,-0.0,-0.0,-2.9776,-1.9851,-1.4678,0.00605,-0.0049,0.06266,0.001078777015209198,0.0009999312460422516,0.0008899758104234934,0.0005257987650111318,0.0004999603843316436,0.0005080404225736856,0.00938471406698227,0.01124660950154066,0.011758782900869846,passive,0
3.2614,rehab,large_slow,-44.233710683444784,-666.6340878476158,338.95406285957455,-177.654172114123,0.29462165060121914,-149.8442929754884,1.7658,-0.1224,-0.113,32.3991,0.0638,-14.795,73.64301624864635,26.100123188283185,78.833750356542,-16.368577745225693,-88.8524881998698,-46.484273274739586,0.16324487062964108,-0.0,0.02042940347501547,0.022786458333333332,-0.06785074869791667,-0.0,-3.2558,-2.2076,-1.9344,-0.02785,0.01319,0.05209,0.001078777015209198,0.0009999312460422516,0.0008899758104234934,0.0005257987650111318,0.0004999603843316436,0.0005080404225736856,0.00938471406698227,0.01124660950154066,0.011758782900869846,passive,0
3.2812,rehab,large_slow,-44.194242024083984,-666.6359401374006,338.95218826430954,-177.65427566878833,0.29475912126664794,-149.8414049289641,2.206,-0.1181,-0.2558,27.0809,0.7611,-10.1851,73.64638828995204,26.100109591342434,78.83402909382735,-16.368687947591145,-88.85247972276476,-46.4837900797526,0.2176666259765625,-0.0,0.0025358294496441833,-0.06302727593315972,-0.0,0.06785074869791667,-3.1512,-1.9949,-1.5091,-0.01569,-0.00271,0.06194,0.001078777015209198,0.0009999312460422516,0.0008899758104234934,0.0005257987650111318,0.0004999603843316436,0.0005080404225736856,0.00938471406698227,0.01124660950154066,0.011758782900869846,passive,0
3.3013,rehab,large_slow,-44.14914219655964,-666.6398705417746,338.95251284423557,-177.6536815401813,0.29419345537417074,-149.84099043797374,2.537,-0.1063,-0.3624,26.8448,1.3659,-8.5791,73.65029741041731,26.100075598990564,78.83434862193495,-16.369908650716145,-88.85252210828993,-46.480305989583336,0.16324487062964108,-0.0,0.02123162297919245,-0.10955810546875,-0.0,0.2714114718967014,-3.1766,-2.1691,-1.9477,-0.01296,0.00093,0.06287,0.001078777015209198,0.0009999312460422516,0.0008899758104234934,0.0005257987650111318,0.0004999603843316436,0.0005080404225736856,0.00938471406698227,0.01124660950154066,0.011758782900869846,passive,0
3.321,rehab,large_slow,-44.125113671222486,-666.6422929228735,338.9505766385663,-177.65293659603313,0.29356414784417784,-149.8444304857765,2.9737,-0.0786,-0.4936,30.6231,1.7377,-9.3029,73.65239133929262,26.100068800520187,78.835076058265,-16.371782090928818,-88.85254753960503,-46.47478739420573,0.10882991375309406,-0.0,0.05442855381729579,-0.1466793484157986,-0.0,0.339262220594618,-3.19,-2.2023,-1.8706,-0.00642,-0.00744,0.06239,0.001078777015209198,0.0009999312460422516,0.0008899758104234934,0.0005257987650111318,0.0004999603843316436,0.0005080404225736856,0.00938471406698227,0.01124660950154066,0.011758782900869846,passive,0
3.3409,rehab,large_slow,-44.06133720192262,-666.6443789374839,338.936772345124,-177.65203339879352,0.2928249838101113,-149.84915704626997,3.8317,-0.0306,-0.7678,35.5566,1.9789,-10.5951,73.65784371253288,26.100021211227567,78.83795181123337,-16.37610541449653,-88.85264078776042,-46.4646487765842,0.32649653972965653,-0.0,0.16893519033299814,-0.20136515299479166,-0.0,0.4749637179904514,-3.2655,-2.1232,-1.123,-0.01488,0.00933,0.05685,0.001078777015209198,0.0009999312460422516,0.0008899758104234934,0.0005257987650111318,0.0004999603843316436,0.0005080404225736856,0.00938471406698227,0.01124660950154066,0.011758782900869846,passive,0
3.3609,rehab,large_slow,-43.993895648664214,-666.6441048194259,338.9192719401355,-177.65181423971208,0.29274568990656724,-149.8509122556368,4.62,0.0117,-1.0189,38.8601,1.9927,-11.0559,73.66354083070661,26.099919234171953,78.84116748772045,-16.379674275716145,-88.85270860460069,-46.45723130967882,0.435333251953125,-0.0,0.2202296493077042,-0.21799723307291666,-0.0,0.4749637179904514,-3.3544,-1.9983,-1.5083,-0.01857,0.00029,0.05607,0.001078777015209198,0.0009999312460422516,0.0008899758104234934,0.0005257987650111318,0.0004999603843316436,0.0005080404225736856,0.00938471406698227,0.01124660950154066,0.011758782900869846,passive,0
3.3811,rehab,large_slow,-43.862445375778684,-666.6426242787924,338.891471484322,-177.65146064446554,0.2925738010488201,-149.85208776363726,5.5976,0.0547,-1.3189,39.6207,1.6038,-10.1055,73.67462233741685,26.099395751953125,78.84685100895344,-16.385608249240452,-88.85285271538628,-46.44503275553385,0.544163165706219,-0.0,0.2975690482866646,-0.23785909016927081,0.06785074869791667,0.4749637179904514,-3.2434,-2.1387,-2.1581,-0.00997,-0.00021,0.0658,0.001078777015209198,0.0009999312460422516,0.0008899758104234934,0.0005257987650111318,0.0004999603843316436,0.0005080404225736856,0.00938471406698227,0.01124660950154066,0.011758782900869846,passive,0
3.4009,rehab,large_slow,-43.75946875953771,-666.639996321194,338.8689120459192,-177.65159764704242,0.29281811503550825,-149.85236502530057,6.4311,0.089,-1.5558,37.1878,0.9033,-7.7527,73.68326999173306,26.098913060556544,78.8513447978709,-16.38964335123698,-88.85298834906683,-46.436148749457466,0.5985781225827661,-0.05441495687654703,0.2686891461362933,-0.2710723876953125,-0.0,0.6106736924913194,-3.1843,-2.102,-0.6385,-0.01318,-0.00599,0.05299,0.001078777015209198,0.0009999312460422516,0.0008899758104234934,0.0005257987650111318,0.0004999603843316436,0.0005080404225736856,0.00938471406698227,0.01124660950154066,0.011758782900869846,passive,0
3.421,rehab,large_slow,-43.56283098419512,-666.6374070076832,338.8230632607445,-177.65206105284287,0.29343387383104647,-149.8529015275014,7.0971,0.1034,-1.666,32.6156,0.1274,-4.9723,73.69985146097618,26.098464361511834,78.8595709470239,-16.39722188313802,-88.85329352484808,-46.41910976833767,0.5985781225827661,-0.05441495687654703,0.3205206842705755,-0.298216078016493,-0.06785074869791667,0.6106736924913194,-3.3205,-2.1601,-1.4376,-0.0301,0.01186,0.06221,0.001078777015209198,0.0009999312460422516,0.0008899758104234934,0.0005257987650111318,0.0004999603843316436,0.0005080404225736856,0.00938471406698227,0.01124660950154066,0.011758782900869846,passive,0
3.441,rehab,large_slow,-43.44544145527805,-666.6370545364433,338.7952369677789,-177.65205142121152,0.2934964768076202,-149.85361868766526,7.6661,0.0956,-1.684,29.9669,-0.4491,-3.567,73.70978402619315,26.098307996693222,78.86453383039719,-16.40234205457899,-88.85348849826389,-46.40851338704427,0.6529998779296875,-0.0,0.34470964186262376,-0.34027099609375,-0.0,0.678524441189236,-3.265,-2.0923,-1.5815,-0.0057,-0.00218,0.05811,0.001078777015209198,0.0009999312460422516,0.0008899758104234934,0.0005257987650111318,0.0004999603843316436,0.0005080404225736856,0.00938471406698227,0.01124660950154066,0.011758782900869846,passive,0
3.4609,rehab,large_slow,-43.32426824982267,-666.6361543513968,338.76540514748854,-177.6520281528777,0.2934539635347527,-149.8546337265629,8.092,0.0668,-1.6776,29.8721,-0.8401,-4.0625,73.72003611951772,26.09810404258199,78.86993861434483,-16.407962375217014,-88.853759765625,-46.39730665418837,0.7074148348062346,-0.05441495687654703,0.3693065076771349,-0.3654819064670139,-0.0,0.7463751898871528,-3.338,-2.0247,-1.6232,-0.00874,0.00578,0.06078,0.001078777015209198,0.0009999312460422516,0.0008899758104234934,0.0005257987650111318,0.0004999603843316436,0.0005080404225736856,0.00938471406698227,0.01124660950154066,0.011758782900869846,passive,0
3.4811,rehab,large_slow,-43.12651168215512,-666.6335729872018,338.7202965159033,-177.65184634847444,0.29323357694057073,-149.8558787067199,8.6303,0.0317,-1.7218,32.3265,-1.0783,-6.4338,73.73673996122757,26.097471784837175,78.87869504418704,-16.41696506076389,-88.85419209798177,-46.379453870985245,0.7618297916827815,-0.05441495687654703,0.3981932082978806,-0.3436194525824653,-0.0,0.7463751898871528,-3.281,-2.0657,-1.5567,-0.01748,0.00332,0.06135,0.001078777015209198,0.0009999312460422516,0.0008899758104234934,0.0005257987650111318,0.0004999603843316436,0.0005080404225736856,0.00938471406698227,0.01124660950154066,0.011758782900869846,passive,0
3.5011,rehab,large_slow,-42.979187049244366,-666.632302604617,338.6940246265687,-177.65150715634425,0.2928206141297416,-149.85604398696546,9.2845,0.0146,-1.8576,35.5564,-1.0453,-9.7816,73.7492015574238,26.096791937799736,78.88442615471264,-16.42296685112847,-88.85452270507812,-46.366890801323784,0.8162515470297029,-0.0,0.36863345911007117,-0.4067738850911458,-0.06785074869791667,0.8142344156901041,-3.1309,-2.0905,-2.0521,-0.00185,0.00202,0.06003,0.001078777015209198,0.0009999312460422516,0.0008899758104234934,0.0005257987650111318,0.0004999603843316436,0.0005080404225736856,0.00938471406698227,0.01124660950154066,0.011758782900869846,passive,0
3.5211,rehab,large_slow,-42.73782984335632,-666.6326401008556,338.6545695753317,-177.65097638122165,0.2922035580966495,-149.85570048736744,10.1162,0.0133,-2.1317,36.708,-0.6624,-12.1155,73.76967175172106,26.095901338180692,78.8928494595065,-16.43197801378038,-88.8550313313802,-46.34685940212673,0.87066650390625,-0.05441495687654703,0.36216131531366025,-0.397093031141493,-0.06785074869791667,0.8820851643880208,-3.0905,-2.0237,-1.1396,-0.00802,-0.00624,0.06162,0.001078777015209198,0.0009999312460422516,0.0008899758104234934,0.0005257987650111318,0.0004999603843316436,0.0005080404225736856,0.00938471406698227,0.01124660950154066,0.011758782900869846,passive,0
3.5408,rehab,large_slow,-42.569822559818775,-666.6336329056296,338.6224300710118,-177.65080634957403,0.29192322697881307,-149.8555671212162,10.9906,0.0058,-2.4559,36.3658,-0.0465,-12.0205,73.78394853950726,26.095595407013846,78.89892049355082,-16.43853081597222,-88.85542975531683,-46.332787407769096,0.9250814607827971,-0.0,0.3792390728941058,-0.4617479112413194,-0.06785074869791667,0.9499359130859375,-3.2343,-1.9821,-0.9592,-0.01291,0.00664,0.05575,0.001078777015209198,0.0009999312460422516,0.0008899758104234934,0.0005257987650111318,0.0004999603843316436,0.0005080404225736856,0.00938471406698227,0.01124660950154066,0.011758782900869846,passive,0
3.5612,rehab,large_slow,-42.29778082126704,-666.6345843052785,338.55828834554137,-177.65120719014774,0.29212596437824495,-149.85499640112243,11.8687,-0.0037,-2.7808,34.8641,0.5393,-9.4976,73.80705654030979,26.09560220548422,78.90965527827197,-16.449593438042534,-88.85609944661458,-46.31037394205729,1.0339181730062654,-0.0,0.49085635950069617,-0.4782867431640625,-0.0,1.0177951388888888,-3.4702,-1.9,-1.3814,-0.02845,0.00804,0.06393,0.001078777015209198,0.0009999312460422516,0.0008899758104234934,0.0005257987650111318,0.0004999603843316436,0.0005080404225736856,0.00938471406698227,0.01124660950154066,0.011758782900869846,passive,0
3.5813,rehab,large_slow,-42.1053001835187,-666.6339223860197,338.5082772570721,-177.6515240432825,0.2923211842490338,-149.85420321189142,12.459,-0.0007,-2.9826,31.3155,0.7812,-5.0839,73.82337286920831,26.095609003954593,78.91799020295096,-16.458087497287327,-88.85654873318143,-46.294945610894096,0.979496417659344,-0.0,0.5317151664507271,-0.5462816026475694,-0.06785074869791667,1.0177951388888888,-3.186,-1.8466,-1.1096,0.00411,-0.00475,0.0628,0.001078777015209198,0.0009999312460422516,0.0008899758104234934,0.0005257987650111318,0.0004999603843316436,0.0005080404225736856,0.00938471406698227,0.01124660950154066,0.011758782900869846,passive,0
3.6012,rehab,large_slow,-41.80663356589742,-666.6318408129722,338.427591647241,-177.65195253403945,0.2926801918786396,-149.8533317844954,12.8168,0.025,-2.997,26.1399,0.6643,0.2386,73.84865638053063,26.095595407013846,78.93147836817373,-16.471811930338543,-88.85716756184895,-46.27068413628472,1.0883331298828125,-0.0,0.5851375466526145,-0.5842166476779513,-0.06785074869791667,1.0177951388888888,-3.1428,-2.0659,-1.5415,-0.01152,-0.01315,0.06434,0.001078777015209198,0.0009999312460422516,0.0008899758104234934,0.0005257987650111318,0.0004999603843316436,0.0005080404225736856,0.00938471406698227,0.01124660950154066,0.011758782900869846,passive,0
