t,trajectory_type,trajectory_variant,x,y,z,rx,ry,rz,vx,vy,vz,ax,ay,az,j1,j2,j3,j4,j5,j6,dj1,dj2,dj3,dj4,dj5,dj6,fx,fy,fz,tx,ty,tz,Mx,My,Mz,Bx,By,Bz,Kx,Ky,Kz,mode,comfort
0.0002,rehab,safe_near_limit_slow,83.4247855052377,-666.6470174874476,259.04440306764764,-177.3963299530077,0.13673224895311847,-149.98639002388182,0.0016,0.0007,-0.0012,-0.0355,-0.0312,0.087,84.70724124719601,30.28583262226369,86.04836190100944,-28.411068386501736,-89.10140143500433,-35.411885579427086,-0.05441495687654703,0.05441495687654703,-0.003677972472540223,0.023930867513020832,-0.0,-0.0,0.0543,-0.0494,-0.334,0.01669,-0.0077,-0.00542,0.0008682070183567703,0.001180085469968617,0.0010169126326218247,0.0005454596830531955,0.0006339680403470993,0.0005986441974528134,0.009759419597685337,0.00819050706923008,0.008521596901118755,passive,1
0.0208,rehab,safe_near_limit_slow,83.42467955734048,-666.6469784110077,259.0443154504789,-177.39634395008656,0.13672058817793084,-149.98638060908243,0.0011,0.0005,-0.0006,-0.0349,-0.0241,0.0676,84.70723444872563,30.28583262226369,86.04837549795019,-28.41107686360677,-89.1014183892144,-35.411902533637154,-0.05441495687654703,-0.0,-0.021755105198019802,-0.02045525444878472,-0.06785074869791667,-0.0,-0.0392,-0.0742,-0.4294,0.00534,-0.00675,-0.00501,0.0008682070183567703,0.001180085469968617,0.0010169126326218247,0.0005454596830531955,0.0006339680403470993,0.0005986441974528134,0.009759419597685337,0.00819050706923008,0.008521596901118755,passive,1
0.0405,rehab,safe_near_limit_slow,83.42492829509472,-666.6469938424045,259.0442902923444,-177.3963390467657,0.13672789000700653,-149.98636837420887,0.0003,0.0001,0.0005,-0.0317,-0.0115,0.0323,84.70725484413676,30.285839420734064,86.04836869947981,-28.41107686360677,-89.10140991210938,-35.41189405653212,-0.0,-0.0,0.00019035717048267327,-0.022752549913194444,-0.0,-0.0,-0.0932,-0.1458,-0.2696,-0.00703,-0.00578,0.00053,0.0008682070183567703,0.001180085469968617,0.0010169126326218247,0.0005454596830531955,0.0006339680403470993,0.0005986441974528134,0.009759419597685337,0.00819050706923008,0.008521596901118755,passive,1
0.0607,rehab,safe_near_limit_slow,83.42477243882132,-666.6469871773215,259.0444459539229,-177.39632793042932,0.1367196465883396,-149.98637348541294,-0.0004,-0.0002,0.0012,-0.0264,-0.0013,0.0031,84.70723444872563,30.28583262226369,86.04836190100944,-28.411085340711804,-89.1014183892144,-35.41189405653212,-0.0,0.10882991375309406,-0.006159414159189356,-0.0,-0.06785074869791667,-0.0,-0.0097,-0.156,-1.0763,0.0084,-0.01319,0.00286,0.0008682070183567703,0.001180085469968617,0.0010169126326218247,0.0005454596830531955,0.0006339680403470993,0.0005986441974528134,0.009759419597685337,0.00819050706923008,0.008521596901118755,passive,1
0.0806,rehab,safe_near_limit_slow,83.42475294855421,-666.6470293936787,259.0444200097589,-177.3963328325446,0.13671276022725048,-149.98637381491073,-0.0009,-0.0003,0.0015,-0.0199,0.0054,-0.0166,84.70724124719601,30.28583262226369,86.04836190100944,-28.41107686360677,-89.1014183892144,-35.411902533637154,-0.0,-0.0,-0.002597015683013614,-0.007544623480902778,-0.06785074869791667,-0.0,-0.0173,-0.0914,-0.4546,0.01075,-0.00531,2e-05,0.0008682070183567703,0.001180085469968617,0.0010169126326218247,0.0005454596830531955,0.0006339680403470993,0.0005986441974528134,0.009759419597685337,0.00819050706923008,0.008521596901118755,passive,1
0.1007,rehab,safe_near_limit_slow,83.42477080577771,-666.647001995077,259.0444636820728,-177.39632106515305,0.13671550132437615,-149.98639051261463,-0.0008,-0.0002,0.0016,-0.0086,0.0067,-0.0241,84.70724124719601,30.285825823793317,86.04836869947981,-28.411085340711804,-89.10140991210938,-35.411885579427086,-0.0,-0.05441495687654703,-0.024120972888304455,-0.003009372287326389,-0.0,-0.0,-0.1933,-0.0664,-0.4741,-0.00062,-0.00461,0.00458,0.0008682070183567703,0.001180085469968617,0.0010169126326218247,0.0005454596830531955,0.0006339680403470993,0.0005986441974528134,0.009759419597685337,0.00819050706923008,0.008521596901118755,passive,1
0.1204,rehab,safe_near_limit_slow,83.42469619248651,-666.6469666354001,259.044393674281,-177.39633350940818,0.13672394565244395,-149.9863887501124,-0.0015,0.0003,0.0002,0.0042,0.0057,-0.0243,84.70723444872563,30.285825823793317,86.04837549795019,-28.41107686360677,-89.10140991210938,-35.41189405653212,-0.05441495687654703,-0.0,0.004894898669554455,-0.029296875,-0.0,-0.06785074869791667,0.0377,-0.0147,-0.6508,0.01343,-0.00707,0.00073,0.0008682070183567703,0.001180085469968617,0.0010169126326218247,0.0005454596830531955,0.0006339680403470993,0.0005986441974528134,0.009759419597685337,0.00819050706923008,0.008521596901118755,passive,1
0.1407,rehab,safe_near_limit_slow,83.42476841037406,-666.6470308494422,259.044420402776,-177.3963279197223,0.1367196617783623,-149.98637349624096,-0.0016,0.0005,-0.0014,0.0115,0.0052,-0.023,84.70724124719601,30.28583262226369,86.04836190100944,-28.41107686360677,-89.10140991210938,-35.411902533637154,0.05441495687654703,-0.05441495687654703,-0.03224514498568998,0.0024159749348958335,-0.0,0.06785074869791667,0.0707,0.0529,-0.5915,0.0106,-0.0047,-0.00093,0.0008682070183567703,0.001180085469968617,0.0010169126326218247,0.0005454596830531955,0.0006339680403470993,0.0005986441974528134,0.009759419597685337,0.00819050706923008,0.008521596901118755,passive,1
0.1603,rehab,safe_near_limit_slow,83.4247083394633,-666.6470001182709,259.04454190588064,-177.39631058406061,0.13671808862102283,-149.98638851535694,-0.0006,0.0005,-0.0012,0.0137,0.002,-0.0142,84.70723444872563,30.285819025322944,86.04836869947981,-28.411085340711804,-89.10140143500433,-35.41189405653212,-0.0,0.05441495687654703,-0.01070079236927599,-0.023600260416666664,0.06785074869791667,-0.06785074869791667,0.0427,-0.0373,-0.4865,0.00426,-0.00549,-0.0025,0.0008682070183567703,0.001180085469968617,0.0010169126326218247,0.0005454596830531955,0.0006339680403470993,0.0005986441974528134,0.009759419597685337,0.00819050706923008,0.008521596901118755,passive,1
0.1806,rehab,safe_near_limit_slow,83.42463255284828,-666.6469779899776,259.0443940673004,-177.39632861679584,0.13673123229374612,-149.98640369829093,-0.0002,0.0003,-0.0009,0.0114,-0.0046,0.0036,84.70722765025526,30.285825823793317,86.04837549795019,-28.41107686360677,-89.10140143500433,-35.411885579427086,-0.05441495687654703,-0.0,-0.021014071927212254,0.0009494357638888889,-0.0,-0.0,0.1112,0.0191,-0.2659,0.02672,0.00095,0.00283,0.0008682070183567703,0.001180085469968617,0.0010169126326218247,0.0005454596830531955,0.0006339680403470993,0.0005986441974528134,0.009759419597685337,0.00819050706923008,0.008521596901118755,passive,1
0.2003,rehab,safe_near_limit_slow,83.42469904761255,-666.646936194653,259.0443413946429,-177.39633906817974,0.13672785962699244,-149.98638874796396,0.0004,-0.0,-0.0003,0.0095,-0.0095,0.026,84.70723444872563,30.285825823793317,86.04838229642056,-28.41107686360677,-89.10140991210938,-35.41189405653212,-0.0,-0.0,0.025773001189279082,-0.0,-0.0,-0.0,0.1838,-0.0516,-0.5491,0.01983,-0.00425,0.00024,0.0008682070183567703,0.001180085469968617,0.0010169126326218247,0.0005454596830531955,0.0006339680403470993,0.0005986441974528134,0.009759419597685337,0.00819050706923008,0.008521596901118755,passive,1
0.2205,rehab,safe_near_limit_slow,83.4246045330945,-666.6469422460673,259.04422861935626,-177.39634820235483,0.13672427085663685,-149.98640443045664,0.0,-0.0,0.0002,0.0093,-0.0076,0.0387,84.70722765025526,30.28583262226369,86.04838909489094,-28.411085340711804,-89.1014183892144,-35.411885579427086,-0.0,-0.05441495687654703,0.027431827960628093,-0.005272759331597222,-0.0,-0.0,-0.0933,-0.0075,-0.2302,0.00222,-0.00334,0.00051,0.0008682070183567703,0.001180085469968617,0.0010169126326218247,0.0005454596830531955,0.0006339680403470993,0.0005986441974528134,0.009759419597685337,0.00819050706923008,0.008521596901118755,passive,1
0.2407,rehab,safe_near_limit_slow,83.42469333736102,-666.6469970761409,259.0444459539229,-177.39632797084403,0.13672041676743388,-149.9863972206391,-0.0002,-0.0,0.0005,0.0018,-0.001,0.0308,84.70723444872563,30.285825823793317,86.04836869947981,-28.41107686360677,-89.10140991210938,-35.411885579427086,-0.0,-0.0,0.016629058535736384,-0.010409884982638888,-0.0,0.06785074869791667,0.0011,-0.0676,-0.71,-0.00037,0.00331,0.00326,0.0008682070183567703,0.001180085469968617,0.0010169126326218247,0.0005454596830531955,0.0006339680403470993,0.0005986441974528134,0.009759419597685337,0.00819050706923008,0.008521596901118755,passive,1
0.2606,rehab,safe_near_limit_slow,83.42477366089942,-666.6469715543378,259.04441140242915,-177.39632662392515,0.13671941529810028,-149.98639051046538,-0.0001,-0.0004,0.0015,-0.0069,0.0035,0.0196,84.70724124719601,30.285825823793317,86.04836869947981,-28.41107686360677,-89.10140991210938,-35.411885579427086,-0.0,0.05441495687654703,-0.023787847839959776,0.010893079969618056,-0.0,-0.0,-0.1713,-0.1514,-0.717,0.00176,0.00066,0.00305,0.0008682070183567703,0.001180085469968617,0.0010169126326218247,0.0005454596830531955,0.0006339680403470993,0.0005986441974528134,0.009759419597685337,0.00819050706923008,0.008521596901118755,passive,1
0.2804,rehab,safe_near_limit_slow,83.42470879918065,-666.6469985319062,259.04444634694227,-177.396323017607,0.1367265481394345,-149.98637996521293,-0.0004,-0.0004,0.0023,-0.0089,0.004,0.0072,84.70723444872563,30.285825823793317,86.04836869947981,-28.41107686360677,-89.10140143500433,-35.411902533637154,-0.0,-0.0,5.4387762995049506e-05,-0.00013563368055555556,-0.0,-0.0,-0.1123,-0.2165,-0.9557,0.00108,8e-05,0.0032,0.0008682070183567703,0.001180085469968617,0.0010169126326218247,0.0005454596830531955,0.0006339680403470993,0.0005986441974528134,0.009759419597685337,0.00819050706923008,0.008521596901118755,passive,1
0.3008,rehab,safe_near_limit_slow,83.42469287764365,-666.6469986625057,259.04454151286114,-177.3963154968819,0.13671118706927102,-149.98638883402882,0.0002,0.0001,0.0025,-0.0018,0.0016,-0.0055,84.70722085178488,30.285819025322944,86.04836869947981,-28.41107686360677,-89.1014183892144,-35.41189405653212,-0.0,-0.0,-0.024311330058787127,0.0031873914930555555,-0.06785074869791667,0.06785074869791667,-0.0509,-0.1015,-0.6135,0.00586,-0.00333,0.004,0.0008682070183567703,0.001180085469968617,0.0010169126326218247,0.0005454596830531955,0.0006339680403470993,0.0005986441974528134,0.009759419597685337,0.00819050706923008,0.008521596901118755,passive,1
0.3204,rehab,safe_near_limit_slow,83.4245391629,-666.6469732016294,259.04447150506394,-177.39632794113638,0.13671963139835244,-149.98639386999608,0.0002,0.0005,0.0012,0.0037,0.0001,-0.0122,84.70722085178488,30.285819025322944,86.04837549795019,-28.41107686360677,-89.10140991210938,-35.411902533637154,-0.0,-0.05441495687654703,0.0,-0.002407497829861111,-0.0,-0.0,0.0096,-0.2074,-0.6269,-0.00831,0.00169,-0.00015,0.0008682070183567703,0.001180085469968617,0.0010169126326218247,0.0005454596830531955,0.0006339680403470993,0.0005986441974528134,0.009759419597685337,0.00819050706923008,0.008521596901118755,passive,1
0.3406,rehab,safe_near_limit_slow,83.42469690609666,-666.6469549903796,259.04456706399736,-177.3963154873829,0.13671078678787937,-149.986380354823,-0.0008,0.0004,0.0009,0.0003,0.0016,-0.021,84.70723444872563,30.285812226852567,86.04837549795019,-28.411085340711804,-89.10140991210938,-35.411902533637154,0.05441495687654703,-0.0,0.023611087610225866,-0.030263264973958332,-0.0,-0.0,-0.0246,-0.126,-0.3995,-0.00669,-0.00059,-0.0055,0.0008682070183567703,0.001180085469968617,0.0010169126326218247,0.0005454596830531955,0.0006339680403470993,0.0005986441974528134,0.009759419597685337,0.00819050706923008,0.008521596901118755,passive,1
0.3603,rehab,safe_near_limit_slow,83.4246154092291,-666.6469937435628,259.04452378470944,-177.39632240257217,0.13671610251334165,-149.98639554205275,-0.0007,-0.0001,0.0007,-0.0026,0.0,-0.0231,84.70722765025526,30.285819025322944,86.04836869947981,-28.41107686360677,-89.10140991210938,-35.41189405653212,-0.0,-0.0,-0.007811442460163985,-0.0,-0.0,-0.06785074869791667,0.0185,-0.0406,-0.5211,0.00927,-0.00105,0.00107,0.0008682070183567703,0.001180085469968617,0.0010169126326218247,0.0005454596830531955,0.0006339680403470993,0.0005986441974528134,0.009759419597685337,0.00819050706923008,0.008521596901118755,passive,1
0.3806,rehab,safe_near_limit_slow,83.4247771808795,-666.646931860157,259.04464489477925,-177.3963099595244,0.13670724271471352,-149.98638201605246,0.0001,-0.0003,-0.0002,-0.0047,-0.0058,-0.0127,84.70724124719601,30.285805428382194,86.04837549795019,-28.411085340711804,-89.10140991210938,-35.41189405653212,-0.0,-0.05441495687654703,0.005343597714263614,0.006298489040798611,-0.0,-0.0,0.1237,-0.0179,-0.0662,0.01045,0.00262,-0.00444,0.0008682070183567703,0.001180085469968617,0.0010169126326218247,0.0005454596830531955,0.0006339680403470993,0.0005986441974528134,0.009759419597685337,0.00819050706923008,0.008521596901118755,passive,1
0.4003,rehab,safe_near_limit_slow,83.42469731706268,-666.6469557956015,259.04458388734344,-177.39632380061187,0.13671785897318553,-149.98640558121335,0.0004,-0.0002,0.0004,-0.0001,-0.0064,-0.0007,84.70723444872563,30.285812226852567,86.04836869947981,-28.411068386501736,-89.10140991210938,-35.411877102322045,-0.0,-0.05441495687654703,0.01218965738126547,0.023829142252604164,-0.0,0.06785074869791667,0.0049,-0.1586,-0.7551,0.00564,-0.00386,0.00115,0.0008682070183567703,0.001180085469968617,0.0010169126326218247,0.0005454596830531955,0.0006339680403470993,0.0005986441974528134,0.009759419597685337,0.00819050706923008,0.008521596901118755,passive,1
0.4206,rehab,safe_near_limit_slow,83.42460158045677,-666.6469774700402,259.04450566354274,-177.3963342412902,0.13671450149420156,-149.98640423865447,-0.0005,0.0001,0.0001,0.0115,0.0014,-0.0014,84.70722765025526,30.285819025322944,86.04836869947981,-28.411068386501736,-89.1014183892144,-35.411885579427086,0.05441495687654703,-0.0,0.019151291044631806,0.010553995768229166,-0.06785074869791667,-0.0,-0.0239,-0.0636,-0.7703,0.00909,-0.01636,0.00223,0.0008682070183567703,0.001180085469968617,0.0010169126326218247,0.0005454596830531955,0.0006339680403470993,0.0005986441974528134,0.009759419597685337,0.00819050706923008,0.008521596901118755,passive,1
0.4403,rehab,safe_near_limit_slow,83.42453421500288,-666.6470200464648,259.0446370718039,-177.39630302292238,0.1367019573674347,-149.9863940443614,-0.0006,0.0002,-0.0,0.0098,0.0084,-0.0062,84.70722085178488,30.285812226852567,86.04836869947981,-28.41109381781684,-89.10140991210938,-35.411902533637154,-0.05441495687654703,-0.05441495687654703,-0.013297808052289604,-0.009969075520833334,-0.0,0.06785074869791667,-0.061,0.0271,-0.2451,0.01459,-0.00689,-0.00051,0.0008682070183567703,0.001180085469968617,0.0010169126326218247,0.0005454596830531955,0.0006339680403470993,0.0005986441974528134,0.009759419597685337,0.00819050706923008,0.008521596901118755,passive,1
0.4608,rehab,safe_near_limit_slow,83.424676242496,-666.6470104381307,259.0444632890557,-177.39632595776763,0.13670821468201025,-149.9863891613778,-0.0003,-0.0002,0.0005,-0.0039,0.0076,-0.0021,84.70723444872563,30.285825823793317,86.04836869947981,-28.411085340711804,-89.1014183892144,-35.41189405653212,0.05441495687654703,-0.0,-0.005969056988706683,0.00022040473090277778,-0.06785074869791667,-0.0,0.0505,-0.1795,-1.1257,0.00836,-0.00475,-0.00453,0.0008682070183567703,0.001180085469968617,0.0010169126326218247,0.0005454596830531955,0.0006339680403470993,0.0005986441974528134,0.009759419597685337,0.00819050706923008,0.008521596901118755,passive,1
0.4805,rehab,safe_near_limit_slow,83.42469849039199,-666.6469425641967,259.04466171812544,-177.39631821213342,0.136713159628287,-149.9863886357791,0.0001,-0.0001,0.0006,-0.0082,0.0024,-0.0015,84.70722085178488,30.285812226852567,86.04836869947981,-28.411068386501736,-89.10140991210938,-35.411885579427086,-0.0,-0.05441495687654703,-0.0041130745765006185,-6.781684027777778e-05,-0.0,-0.0,0.1423,0.0178,-0.3833,0.02986,-0.00362,8e-05,0.0008682070183567703,0.001180085469968617,0.0010169126326218247,0.0005454596830531955,0.0006339680403470993,0.0005986441974528134,0.009759419597685337,0.00819050706923008,0.008521596901118755,passive,1
0.5006,rehab,safe_near_limit_slow,83.42462224406475,-666.6469220222832,259.0446094384744,-177.39632377090496,0.13671707360285082,-149.98639543209998,0.0007,0.0006,-0.0003,-0.0048,-0.0014,0.0006,84.70722765025526,30.285805428382194,86.04837549795019,-28.411068386501736,-89.10140991210938,-35.41189405653212,-0.0,-0.0,0.019083306340887996,0.029407077365451388,-0.0,0.06785074869791667,0.0007,-0.0734,-0.2037,0.01495,0.00583,0.00034,0.0008682070183567703,0.001180085469968617,0.0010169126326218247,0.0005454596830531955,0.0006339680403470993,0.0005986441974528134,0.009759419597685337,0.00819050706923008,0.008521596901118755,passive,1
0.5205,rehab,safe_near_limit_slow,83.42461780464033,-666.6469648891901,259.04456706399736,-177.39631550758892,0.13671117187926696,-149.98639562167116,0.0002,0.0008,-0.0009,-0.0087,-0.0015,0.005,84.70722765025526,30.285812226852567,86.04837549795019,-28.411085340711804,-89.10140991210938,-35.41189405653212,-0.0,-0.05441495687654703,0.02427053923654084,-0.0,-0.0,0.06785074869791667,0.0883,-0.0491,-0.2508,0.01753,-0.00526,-0.00055,0.0008682070183567703,0.001180085469968617,0.0010169126326218247,0.0005454596830531955,0.0006339680403470993,0.0005986441974528134,0.009759419597685337,0.00819050706923008,0.008521596901118755,passive,1
0.5403,rehab,safe_near_limit_slow,83.42469282889368,-666.6470010540774,259.0446538951473,-177.39631131594174,0.1367086444662456,-149.98639720543167,-0.0012,0.0002,0.0003,-0.0151,-0.0007,0.0035,84.70723444872563,30.285812226852567,86.04836190100944,-28.41107686360677,-89.10140991210938,-35.411885579427086,-0.0,0.05441495687654703,-0.010551226021039604,0.015547010633680556,-0.0,-0.0,0.0647,0.0247,-0.4314,0.01652,0.00133,0.00329,0.0008682070183567703,0.001180085469968617,0.0010169126326218247,0.0005454596830531955,0.0006339680403470993,0.0005986441974528134,0.009759419597685337,0.00819050706923008,0.008521596901118755,passive,1
0.5607,rehab,safe_near_limit_slow,83.4246165825593,-666.6469805121656,259.0446016154947,-177.39631685450763,0.13671217334878144,-149.98639553337432,-0.0015,-0.0003,0.0006,-0.0143,-0.0049,0.0068,84.70722765025526,30.285812226852567,86.04836869947981,-28.41107686360677,-89.10140991210938,-35.41189405653212,-0.0,-0.05441495687654703,-0.01046964437654703,0.027058919270833332,-0.0,-0.0,0.0618,-0.0044,-0.7831,0.01609,-0.00903,0.00461,0.0008682070183567703,0.001180085469968617,0.0010169126326218247,0.0005454596830531955,0.0006339680403470993,0.0005986441974528134,0.009759419597685337,0.00819050706923008,0.008521596901118755,passive,1
0.5804,rehab,safe_near_limit_slow,83.42462351489753,-666.6469040077193,259.0444625047065,-177.3963266049248,0.1367186147386107,-149.98638714899434,-0.0008,-0.0002,0.0005,-0.0073,-0.0102,0.0125,84.70722765025526,30.285812226852567,86.04838909489094,-28.411085340711804,-89.10140991210938,-35.411902533637154,0.05441495687654703,-0.0,0.030926241733060026,-1.6954210069444445e-05,-0.0,-0.06785074869791667,0.0328,-0.0195,-0.6017,0.01045,0.00287,0.00258,0.0008682070183567703,0.001180085469968617,0.0010169126326218247,0.0005454596830531955,0.0006339680403470993,0.0005986441974528134,0.009759419597685337,0.00819050706923008,0.008521596901118755,passive,1
0.6008,rehab,safe_near_limit_slow,83.42454319136331,-666.6469295295042,259.0444970562003,-177.3963279518434,0.13671961620833686,-149.98639385916803,-0.0012,-0.0001,0.0009,0.0063,-0.0081,0.0048,84.70722085178488,30.285812226852567,86.04838229642056,-28.41107686360677,-89.10140991210938,-35.411902533637154,0.05441495687654703,-0.0,-0.007009222955987005,0.0031958685980902775,-0.0,-0.0,-0.0181,-0.0628,-0.7505,0.00984,0.00278,-0.00215,0.0008682070183567703,0.001180085469968617,0.0010169126326218247,0.0005454596830531955,0.0006339680403470993,0.0005986441974528134,0.009759419597685337,0.00819050706923008,0.008521596901118755,passive,1
0.6204,rehab,safe_near_limit_slow,83.4245398277658,-666.646963948144,259.04475727706057,-177.39630575837865,0.13670431501966263,-149.98640231448894,-0.0012,-0.0,0.0004,0.0188,-0.0005,-0.014,84.70722085178488,30.28579862991182,86.04836869947981,-28.41107686360677,-89.10140991210938,-35.41189405653212,-0.0,-0.0,0.0014684696008663365,0.0021616617838541665,-0.0,0.06785074869791667,0.0272,-0.0772,-0.5403,0.00799,-0.00496,-0.00129,0.0008682070183567703,0.001180085469968617,0.0010169126326218247,0.0005454596830531955,0.0006339680403470993,0.0005986441974528134,0.009759419597685337,0.00819050706923008,0.008521596901118755,passive,1
0.6404,rehab,safe_near_limit_slow,83.4244566978393,-666.6470175190666,259.0447317259348,-177.39630574767162,0.13670433020967646,-149.98640912378735,-0.0006,-0.0003,0.0004,0.0187,0.0039,-0.0212,84.70721405331452,30.285805428382194,86.04836190100944,-28.41107686360677,-89.10140991210938,-35.41189405653212,-0.0,-0.0,-0.03221115263381807,-0.022786458333333332,-0.0,-0.0,-0.009,-0.1197,-0.3398,-0.00348,-0.00702,-0.0047,0.0008682070183567703,0.001180085469968617,0.0010169126326218247,0.0005454596830531955,0.0006339680403470993,0.0005986441974528134,0.009759419597685337,0.00819050706923008,0.008521596901118755,passive,1
0.6607,rehab,safe_near_limit_slow,83.42463607283726,-666.6469382958038,259.0446275596451,-177.39631197260064,0.13671944480244552,-149.98640367225235,0.0,-0.0006,0.0004,0.0116,0.0025,-0.0147,84.70722765025526,30.285805428382194,86.04837549795019,-28.41107686360677,-89.10140143500433,-35.411885579427086,0.05441495687654703,-0.0,-4.758929262066832e-05,0.0002288818359375,0.06785074869791667,-0.0,-0.0223,-0.0685,-0.5021,0.00518,-0.01336,-0.00041,0.0008682070183567703,0.001180085469968617,0.0010169126326218247,0.0005454596830531955,0.0006339680403470993,0.0005986441974528134,0.009759419597685337,0.00819050706923008,0.008521596901118755,passive,1
0.6805,rehab,safe_near_limit_slow,83.42445837963918,-666.6470003097579,259.0446016154947,-177.3963168343015,0.1367117882575931,-149.98640066193727,0.0003,-0.0003,-0.0005,0.0108,0.0019,-0.0095,84.70721405331452,30.285812226852567,86.04836869947981,-28.41107686360677,-89.10140991210938,-35.411902533637154,-0.0,0.05441495687654703,0.023413931969368813,8.477105034722223e-06,-0.0,-0.0,-0.1192,-0.0587,-0.4078,0.01012,0.00685,0.00216,0.0008682070183567703,0.001180085469968617,0.0010169126326218247,0.0005454596830531955,0.0006339680403470993,0.0005986441974528134,0.009759419597685337,0.00819050706923008,0.008521596901118755,passive,1
0.7009,rehab,safe_near_limit_slow,83.42455457596768,-666.646977048982,259.04458428036287,-177.3963188675846,0.13672437543554733,-149.98641039110532,0.0005,0.0001,-0.0017,0.0077,0.003,-0.0031,84.70722085178488,30.285812226852567,86.04836869947981,-28.411068386501736,-89.10140143500433,-35.411885579427086,-0.05441495687654703,-0.0,0.012108075736772896,0.030000474717881944,-0.0,-0.0,-0.1192,-0.0587,-0.4078,0.01012,0.00685,0.00216,0.0008682070183567703,0.001180085469968617,0.0010169126326218247,0.0005454596830531955,0.0006339680403470993,0.0005986441974528134,0.009759419597685337,0.00819050706923008,0.008521596901118755,passive,1
0.7205,rehab,safe_near_limit_slow,83.42455457596768,-666.646977048982,259.04458428036287,-177.3963188675846,0.13672437543554733,-149.98641039110532,0.0004,0.0002,-0.0012,-0.0003,0.004,0.0024,84.70722085178488,30.285812226852567,86.04836869947981,-28.411068386501736,-89.10140143500433,-35.411885579427086,-0.05441495687654703,-0.0,0.012108075736772896,0.030000474717881944,-0.0,-0.0,-0.1192,-0.0587,-0.4078,0.01012,0.00685,0.00216,0.0008682070183567703,0.001180085469968617,0.0010169126326218247,0.0005454596830531955,0.0006339680403470993,0.0005986441974528134,0.009759419597685337,0.00819050706923008,0.008521596901118755,passive,1
0.7404,rehab,safe_near_limit_slow,83.42455457596768,-666.646977048982,259.04458428036287,-177.3963188675846,0.13672437543554733,-149.98641039110532,-0.0,-0.0001,0.0,-0.0049,0.0032,0.0061,84.70722085178488,30.285812226852567,86.04836869947981,-28.411068386501736,-89.10140143500433,-35.411885579427086,-0.05441495687654703,-0.0,0.012108075736772896,0.030000474717881944,-0.0,-0.0,-0.1192,-0.0587,-0.4078,0.01012,0.00685,0.00216,0.0008682070183567703,0.001180085469968617,0.0010169126326218247,0.0005454596830531955,0.0006339680403470993,0.0005986441974528134,0.009759419597685337,0.00819050706923008,0.008521596901118755,passive,1
0.7603,rehab,safe_near_limit_slow,83.42455457596768,-666.646977048982,259.04458428036287,-177.3963188675846,0.13672437543554733,-149.98641039110532,0.0002,0.0,0.0002,-0.0055,-0.0,0.0114,84.70722085178488,30.285812226852567,86.04836869947981,-28.411068386501736,-89.10140143500433,-35.411885579427086,-0.05441495687654703,-0.0,0.012108075736772896,0.030000474717881944,-0.0,-0.0,-0.1192,-0.0587,-0.4078,0.01012,0.00685,0.00216,0.0008682070183567703,0.001180085469968617,0.0010169126326218247,0.0005454596830531955,0.0006339680403470993,0.0005986441974528134,0.009759419597685337,0.00819050706923008,0.008521596901118755,passive,1
0.7804,rehab,safe_near_limit_slow,83.42455457596768,-666.646977048982,259.04458428036287,-177.3963188675846,0.13672437543554733,-149.98641039110532,0.0002,0.0001,0.0001,-0.0041,-0.0024,0.0128,84.70722085178488,30.285812226852567,86.04836869947981,-28.411068386501736,-89.10140143500433,-35.411885579427086,-0.05441495687654703,-0.0,0.012108075736772896,0.030000474717881944,-0.0,-0.0,-0.1192,-0.0587,-0.4078,0.01012,0.00685,0.00216,0.0008682070183567703,0.001180085469968617,0.0010169126326218247,0.0005454596830531955,0.0006339680403470993,0.0005986441974528134,0.009759419597685337,0.00819050706923008,0.008521596901118755,passive,1
0.8003,rehab,safe_near_limit_slow,83.42455457596768,-666.646977048982,259.04458428036287,-177.3963188675846,0.13672437543554733,-149.98641039110532,-0.0002,-0.0,0.0,-0.002,-0.0015,0.0048,84.70722085178488,30.285812226852567,86.04836869947981,-28.411068386501736,-89.10140143500433,-35.411885579427086,-0.05441495687654703,-0.0,0.012108075736772896,0.030000474717881944,-0.0,-0.0,-0.1192,-0.0587,-0.4078,0.01012,0.00685,0.00216,0.0008682070183567703,0.001180085469968617,0.0010169126326218247,0.0005454596830531955,0.0006339680403470993,0.0005986441974528134,0.009759419597685337,0.00819050706923008,0.008521596901118755,passive,1
0.8204,rehab,safe_near_limit_slow,83.42455457596768,-666.646977048982,259.04458428036287,-177.3963188675846,0.13672437543554733,-149.98641039110532,0.0,-0.0,0.0,-0.0,0.0003,-0.0039,84.70722085178488,30.285812226852567,86.04836869947981,-28.411068386501736,-89.10140143500433,-35.411885579427086,-0.05441495687654703,-0.0,0.012108075736772896,0.030000474717881944,-0.0,-0.0,-0.1192,-0.0587,-0.4078,0.01012,0.00685,0.00216,0.0008682070183567703,0.001180085469968617,0.0010169126326218247,0.0005454596830531955,0.0006339680403470993,0.0005986441974528134,0.009759419597685337,0.00819050706923008,0.008521596901118755,passive,1
0.8407,rehab,safe_near_limit_slow,83.42455457596768,-666.646977048982,259.04458428036287,-177.3963188675846,0.13672437543554733,-149.98641039110532,-0.0,0.0,-0.0,-0.0004,0.0002,-0.0038,84.70722085178488,30.285812226852567,86.04836869947981,-28.411068386501736,-89.10140143500433,-35.411885579427086,-0.05441495687654703,-0.0,0.012108075736772896,0.030000474717881944,-0.0,-0.0,-0.1192,-0.0587,-0.4078,0.01012,0.00685,0.00216,0.0008682070183567703,0.001180085469968617,0.0010169126326218247,0.0005454596830531955,0.0006339680403470993,0.0005986441974528134,0.009759419597685337,0.00819050706923008,0.008521596901118755,passive,1
0.8605,rehab,safe_near_limit_slow,83.42455457596768,-666.646977048982,259.04458428036287,-177.3963188675846,0.13672437543554733,-149.98641039110532,0.0,-0.0,0.0,-0.0005,-0.0004,-0.0006,84.70722085178488,30.285812226852567,86.04836869947981,-28.411068386501736,-89.10140143500433,-35.411885579427086,-0.05441495687654703,-0.0,0.012108075736772896,0.030000474717881944,-0.0,-0.0,-0.1192,-0.0587,-0.4078,0.01012,0.00685,0.00216,0.0008682070183567703,0.001180085469968617,0.0010169126326218247,0.0005454596830531955,0.0006339680403470993,0.0005986441974528134,0.009759419597685337,0.00819050706923008,0.008521596901118755,passive,1
0.8807,rehab,safe_near_limit_slow,83.42455457596768,-666.646977048982,259.04458428036287,-177.3963188675846,0.13672437543554733,-149.98641039110532,0.0,0.0,0.0,0.0013,0.0002,0.0002,84.70722085178488,30.285812226852567,86.04836869947981,-28.411068386501736,-89.10140143500433,-35.411885579427086,-0.05441495687654703,-0.0,0.012108075736772896,0.030000474717881944,-0.0,-0.0,-0.1192,-0.0587,-0.4078,0.01012,0.00685,0.00216,0.0008682070183567703,0.001180085469968617,0.0010169126326218247,0.0005454596830531955,0.0006339680403470993,0.0005986441974528134,0.009759419597685337,0.00819050706923008,0.008521596901118755,passive,1
0.9005,rehab,safe_near_limit_slow,83.42455457596768,-666.646977048982,259.04458428036287,-177.3963188675846,0.13672437543554733,-149.98641039110532,0.0,0.0,0.0,0.0006,0.0002,0.0002,84.70722085178488,30.285812226852567,86.04836869947981,-28.411068386501736,-89.10140143500433,-35.411885579427086,-0.05441495687654703,-0.0,0.012108075736772896,0.030000474717881944,-0.0,-0.0,-0.1192,-0.0587,-0.4078,0.01012,0.00685,0.00216,0.0008682070183567703,0.001180085469968617,0.0010169126326218247,0.0005454596830531955,0.0006339680403470993,0.0005986441974528134,0.009759419597685337,0.00819050706923008,0.008521596901118755,passive,1
0.9205,rehab,safe_near_limit_slow,83.42455457596768,-666.646977048982,259.04458428036287,-177.3963188675846,0.13672437543554733,-149.98641039110532,0.0,-0.0,0.0,-0.0004,-0.0001,0.0001,84.70722085178488,30.285812226852567,86.04836869947981,-28.411068386501736,-89.10140143500433,-35.411885579427086,-0.05441495687654703,-0.0,0.012108075736772896,0.030000474717881944,-0.0,-0.0,-0.1192,-0.0587,-0.4078,0.01012,0.00685,0.00216,0.0008682070183567703,0.001180085469968617,0.0010169126326218247,0.0005454596830531955,0.0006339680403470993,0.0005986441974528134,0.009759419597685337,0.00819050706923008,0.008521596901118755,passive,1
0.9408,rehab,safe_near_limit_slow,83.42455457596768,-666.646977048982,259.04458428036287,-177.3963188675846,0.13672437543554733,-149.98641039110532,0.0,0.0,0.0,-0.0,0.0,-0.0,84.70722085178488,30.285812226852567,86.04836869947981,-28.411068386501736,-89.10140143500433,-35.411885579427086,-0.05441495687654703,-0.0,0.012108075736772896,0.030000474717881944,-0.0,-0.0,-0.1192,-0.0587,-0.4078,0.01012,0.00685,0.00216,0.0008682070183567703,0.001180085469968617,0.0010169126326218247,0.0005454596830531955,0.0006339680403470993,0.0005986441974528134,0.009759419597685337,0.00819050706923008,0.008521596901118755,passive,1
0.9605,rehab,safe_near_limit_slow,83.42455457596768,-666.646977048982,259.04458428036287,-177.3963188675846,0.13672437543554733,-149.98641039110532,0.0,-0.0,0.0,-0.0,0.0,-0.0,84.70722085178488,30.285812226852567,86.04836869947981,-28.411068386501736,-89.10140143500433,-35.411885579427086,-0.05441495687654703,-0.0,0.012108075736772896,0.030000474717881944,-0.0,-0.0,-0.1192,-0.0587,-0.4078,0.01012,0.00685,0.00216,0.0008682070183567703,0.001180085469968617,0.0010169126326218247,0.0005454596830531955,0.0006339680403470993,0.0005986441974528134,0.009759419597685337,0.00819050706923008,0.008521596901118755,passive,1
0.9807,rehab,safe_near_limit_slow,83.42455457596768,-666.646977048982,259.04458428036287,-177.3963188675846,0.13672437543554733,-149.98641039110532,-0.0,0.0,0.0,0.0,0.0,-0.0,84.70722085178488,30.285812226852567,86.04836869947981,-28.411068386501736,-89.10140143500433,-35.411885579427086,-0.05441495687654703,-0.0,0.012108075736772896,0.030000474717881944,-0.0,-0.0,-0.1192,-0.0587,-0.4078,0.01012,0.00685,0.00216,0.0008682070183567703,0.001180085469968617,0.0010169126326218247,0.0005454596830531955,0.0006339680403470993,0.0005986441974528134,0.009759419597685337,0.00819050706923008,0.008521596901118755,passive,1
1.0006,rehab,safe_near_limit_slow,83.42455457596768,-666.646977048982,259.04458428036287,-177.3963188675846,0.13672437543554733,-149.98641039110532,0.0,0.0,0.0,0.0,0.0,-0.0,84.70722085178488,30.285812226852567,86.04836869947981,-28.411068386501736,-89.10140143500433,-35.411885579427086,-0.05441495687654703,-0.0,0.012108075736772896,0.030000474717881944,-0.0,-0.0,-0.1192,-0.0587,-0.4078,0.01012,0.00685,0.00216,0.0008682070183567703,0.001180085469968617,0.0010169126326218247,0.0005454596830531955,0.0006339680403470993,0.0005986441974528134,0.009759419597685337,0.00819050706923008,0.008521596901118755,passive,1
1.0207,rehab,safe_near_limit_slow,83.42455457596768,-666.646977048982,259.04458428036287,-177.3963188675846,0.13672437543554733,-149.98641039110532,0.0,0.0,-0.0,0.0,-0.0,0.0,84.70722085178488,30.285812226852567,86.04836869947981,-28.411068386501736,-89.10140143500433,-35.411885579427086,-0.05441495687654703,-0.0,0.012108075736772896,0.030000474717881944,-0.0,-0.0,-0.1192,-0.0587,-0.4078,0.01012,0.00685,0.00216,0.0008682070183567703,0.001180085469968617,0.0010169126326218247,0.0005454596830531955,0.0006339680403470993,0.0005986441974528134,0.009759419597685337,0.00819050706923008,0.008521596901118755,passive,1
1.0407,rehab,safe_near_limit_slow,83.42455457596768,-666.646977048982,259.04458428036287,-177.3963188675846,0.13672437543554733,-149.98641039110532,0.0,0.0,0.0,-0.0,-0.0,0.0,84.70722085178488,30.285812226852567,86.04836869947981,-28.411068386501736,-89.10140143500433,-35.411885579427086,-0.05441495687654703,-0.0,0.012108075736772896,0.030000474717881944,-0.0,-0.0,-0.1192,-0.0587,-0.4078,0.01012,0.00685,0.00216,0.0008682070183567703,0.001180085469968617,0.0010169126326218247,0.0005454596830531955,0.0006339680403470993,0.0005986441974528134,0.009759419597685337,0.00819050706923008,0.008521596901118755,passive,1
1.0608,rehab,safe_near_limit_slow,83.42455457596768,-666.646977048982,259.04458428036287,-177.3963188675846,0.13672437543554733,-149.98641039110532,0.0,0.0,-0.0,0.0,-0.0,-0.0,84.70722085178488,30.285812226852567,86.04836869947981,-28.411068386501736,-89.10140143500433,-35.411885579427086,-0.05441495687654703,-0.0,0.012108075736772896,0.030000474717881944,-0.0,-0.0,-0.1192,-0.0587,-0.4078,0.01012,0.00685,0.00216,0.0008682070183567703,0.001180085469968617,0.0010169126326218247,0.0005454596830531955,0.0006339680403470993,0.0005986441974528134,0.009759419597685337,0.00819050706923008,0.008521596901118755,passive,1
1.0808,rehab,safe_near_limit_slow,83.42455457596768,-666.646977048982,259.04458428036287,-177.3963188675846,0.13672437543554733,-149.98641039110532,0.0,0.0,0.0,-0.0,-0.0,-0.0,84.70722085178488,30.285812226852567,86.04836869947981,-28.411068386501736,-89.10140143500433,-35.411885579427086,-0.05441495687654703,-0.0,0.012108075736772896,0.030000474717881944,-0.0,-0.0,-0.1192,-0.0587,-0.4078,0.01012,0.00685,0.00216,0.0008682070183567703,0.001180085469968617,0.0010169126326218247,0.0005454596830531955,0.0006339680403470993,0.0005986441974528134,0.009759419597685337,0.00819050706923008,0.008521596901118755,passive,1
1.1008,rehab,safe_near_limit_slow,83.42455457596768,-666.646977048982,259.04458428036287,-177.3963188675846,0.13672437543554733,-149.98641039110532,0.0,0.0,0.0,-0.0,0.0,0.0,84.70722085178488,30.285812226852567,86.04836869947981,-28.411068386501736,-89.10140143500433,-35.411885579427086,-0.05441495687654703,-0.0,0.012108075736772896,0.030000474717881944,-0.0,-0.0,-0.1192,-0.0587,-0.4078,0.01012,0.00685,0.00216,0.0008682070183567703,0.001180085469968617,0.0010169126326218247,0.0005454596830531955,0.0006339680403470993,0.0005986441974528134,0.009759419597685337,0.00819050706923008,0.008521596901118755,passive,1
1.1203,rehab,safe_near_limit_slow,83.42455457596768,-666.646977048982,259.04458428036287,-177.3963188675846,0.13672437543554733,-149.98641039110532,-0.0,-0.0,0.0,-0.0,0.0,0.0,84.70722085178488,30.285812226852567,86.04836869947981,-28.411068386501736,-89.10140143500433,-35.411885579427086,-0.05441495687654703,-0.0,0.012108075736772896,0.030000474717881944,-0.0,-0.0,-0.1192,-0.0587,-0.4078,0.01012,0.00685,0.00216,0.0008682070183567703,0.001180085469968617,0.0010169126326218247,0.0005454596830531955,0.0006339680403470993,0.0005986441974528134,0.009759419597685337,0.00819050706923008,0.008521596901118755,passive,1
1.1407,rehab,safe_near_limit_slow,83.42455457596768,-666.646977048982,259.04458428036287,-177.3963188675846,0.13672437543554733,-149.98641039110532,0.0,0.0,-0.0,0.0,-0.0,0.0,84.70722085178488,30.285812226852567,86.04836869947981,-28.411068386501736,-89.10140143500433,-35.411885579427086,-0.05441495687654703,-0.0,0.012108075736772896,0.030000474717881944,-0.0,-0.0,-0.1192,-0.0587,-0.4078,0.01012,0.00685,0.00216,0.0008682070183567703,0.001180085469968617,0.0010169126326218247,0.0005454596830531955,0.0006339680403470993,0.0005986441974528134,0.009759419597685337,0.00819050706923008,0.008521596901118755,passive,1
1.1606,rehab,safe_near_limit_slow,83.42455457596768,-666.646977048982,259.04458428036287,-177.3963188675846,0.13672437543554733,-149.98641039110532,0.0,0.0,0.0,0.0,-0.0,0.0,84.70722085178488,30.285812226852567,86.04836869947981,-28.411068386501736,-89.10140143500433,-35.411885579427086,-0.05441495687654703,-0.0,0.012108075736772896,0.030000474717881944,-0.0,-0.0,-0.1192,-0.0587,-0.4078,0.01012,0.00685,0.00216,0.0008682070183567703,0.001180085469968617,0.0010169126326218247,0.0005454596830531955,0.0006339680403470993,0.0005986441974528134,0.009759419597685337,0.00819050706923008,0.008521596901118755,passive,1
1.1805,rehab,safe_near_limit_slow,83.42455457596768,-666.646977048982,259.04458428036287,-177.3963188675846,0.13672437543554733,-149.98641039110532,-0.0,0.0,0.0,-371.8633,3290.3467,-1001.8217,84.70722085178488,30.285812226852567,86.04836869947981,-28.411068386501736,-89.10140143500433,-35.411885579427086,-0.05441495687654703,-0.0,0.012108075736772896,0.030000474717881944,-0.0,-0.0,-0.1192,-0.0587,-0.4078,0.01012,0.00685,0.00216,0.0008682070183567703,0.001180085469968617,0.0010169126326218247,0.0005454596830531955,0.0006339680403470993,0.0005986441974528134,0.009759419597685337,0.00819050706923008,0.008521596901118755,passive,1
1.2006,rehab,safe_near_limit_slow,83.42455457596768,-666.646977048982,259.04458428036287,-177.3963188675846,0.13672437543554733,-149.98641039110532,0.0,-0.0,0.0,-184.5994,1628.6781,-495.895,84.70722085178488,30.285812226852567,86.04836869947981,-28.411068386501736,-89.10140143500433,-35.411885579427086,-0.05441495687654703,-0.0,0.012108075736772896,0.030000474717881944,-0.0,-0.0,-0.1192,-0.0587,-0.4078,0.01012,0.00685,0.00216,0.0008682070183567703,0.001180085469968617,0.0010169126326218247,0.0005454596830531955,0.0006339680403470993,0.0005986441974528134,0.009759419597685337,0.00819050706923008,0.008521596901118755,passive,1
1.2203,rehab,safe_near_limit_slow,83.42455457596768,-666.646977048982,259.04458428036287,-177.3963188675846,0.13672437543554733,-149.98641039110532,0.0,-0.0,0.0,1443.044,-12780.7564,3891.3828,84.70722085178488,30.285812226852567,86.04836869947981,-28.411068386501736,-89.10140143500433,-35.411885579427086,-0.05441495687654703,-0.0,0.012108075736772896,0.030000474717881944,-0.0,-0.0,-0.0184,-0.0839,-0.6845,0.00979,0.0005,0.00084,0.0008682070183567703,0.001180085469968617,0.0010169126326218247,0.0005454596830531955,0.0006339680403470993,0.0005986441974528134,0.009759419597685337,0.00819050706923008,0.008521596901118755,passive,1
1.2405,rehab,safe_near_limit_slow,83.42455457596768,-666.646977048982,259.04458428036287,-177.3963188675846,0.13672437543554733,-149.98641039110532,0.0,0.0,0.0,2268.9235,-20076.846,6112.8538,84.70722085178488,30.285812226852567,86.04836869947981,-28.411068386501736,-89.10140143500433,-35.411885579427086,-0.05441495687654703,-0.0,0.012108075736772896,0.030000474717881944,-0.0,-0.0,-0.1394,-0.0464,-0.9598,-0.00105,0.00463,-0.00181,0.0008682070183567703,0.001180085469968617,0.0010169126326218247,0.0005454596830531955,0.0006339680403470993,0.0005986441974528134,0.009759419597685337,0.00819050706923008,0.008521596901118755,passive,1
1.2608,rehab,safe_near_limit_slow,83.42455457596768,-666.646977048982,259.04458428036287,-177.3963188675846,0.13672437543554733,-149.98641039110532,0.0,0.0,0.0,903.9627,-7946.7746,2419.6149,84.70722085178488,30.285812226852567,86.04836869947981,-28.411068386501736,-89.10140143500433,-35.411885579427086,-0.05441495687654703,-0.0,0.012108075736772896,0.030000474717881944,-0.0,-0.0,-0.1185,0.0058,-0.4232,0.00969,-0.00099,0.00068,0.0008682070183567703,0.001180085469968617,0.0010169126326218247,0.0005454596830531955,0.0006339680403470993,0.0005986441974528134,0.009759419597685337,0.00819050706923008,0.008521596901118755,passive,1
1.2805,rehab,safe_near_limit_slow,83.42455457596768,-666.646977048982,259.04458428036287,-177.3963188675846,0.13672437543554733,-149.98641039110532,0.0,0.0,0.0,-1584.114,14190.2875,-4320.4545,84.70722085178488,30.285812226852567,86.04836869947981,-28.411068386501736,-89.10140143500433,-35.411885579427086,-0.05441495687654703,-0.0,0.012108075736772896,0.030000474717881944,-0.0,-0.0,0.0384,0.0174,-0.2274,0.01448,0.00688,-0.00415,0.0008682070183567703,0.001180085469968617,0.0010169126326218247,0.0005454596830531955,0.0006339680403470993,0.0005986441974528134,0.009759419597685337,0.00819050706923008,0.008521596901118755,passive,1
1.3004,rehab,safe_near_limit_slow,83.42455457596768,-666.646977048982,259.04458428036287,-177.3963188675846,0.13672437543554733,-149.98641039110532,179.0363,-1584.1614,482.3344,-4557.4356,40479.0745,-12323.1652,84.70722085178488,30.285812226852567,86.04836869947981,-28.411068386501736,-89.10140143500433,-35.411885579427086,-0.05441495687654703,-0.0,0.012108075736772896,0.030000474717881944,-0.0,-0.0,-0.1254,-0.0094,-0.8368,0.00704,-0.0019,0.00739,0.0008682070183567703,0.001180085469968617,0.0010169126326218247,0.0005454596830531955,0.0006339680403470993,0.0005986441974528134,0.009759419597685337,0.00819050706923008,0.008521596901118755,passive,1
1.3203,rehab,safe_near_limit_slow,83.42455457596768,-666.646977048982,259.04458428036287,-177.3963188675846,0.13672437543554733,-149.98641039110532,137.6241,-1215.5468,370.1042,-7258.434,64026.1894,-19493.6511,84.70722085178488,30.285812226852567,86.04836869947981,-28.411068386501736,-89.10140143500433,-35.411885579427086,-0.05441495687654703,-0.0,0.012108075736772896,0.030000474717881944,-0.0,-0.0,-0.0598,0.06,-0.2535,0.00984,-0.01479,0.00218,0.0008682070183567703,0.001180085469968617,0.0010169126326218247,0.0005454596830531955,0.0006339680403470993,0.0005986441974528134,0.009759419597685337,0.00819050706923008,0.008521596901118755,passive,1
1.3406,rehab,safe_near_limit_slow,83.42455457596768,-666.646977048982,259.04458428036287,-177.3963188675846,0.13672437543554733,-149.98641039110532,-266.8517,2367.614,-720.8679,-9289.2049,81628.275,-24859.0464,84.70722085178488,30.285812226852567,86.04836869947981,-28.411068386501736,-89.10140143500433,-35.411885579427086,-0.05441495687654703,-0.0,0.012108075736772896,0.030000474717881944,-0.0,-0.0,-0.0314,-0.0686,-0.3781,0.00038,-0.01701,-0.00534,0.0008682070183567703,0.001180085469968617,0.0010169126326218247,0.0005454596830531955,0.0006339680403470993,0.0005986441974528134,0.009759419597685337,0.00819050706923008,0.008521596901118755,passive,1
1.3603,rehab,safe_near_limit_slow,83.42455457596768,-666.646977048982,259.04458428036287,-177.3963188675846,0.13672437543554733,-149.98641039110532,-556.8642,4934.1077,-1502.2924,-9893.686,86885.7309,-26462.4956,84.70722085178488,30.285812226852567,86.04836869947981,-28.411068386501736,-89.10140143500433,-35.411885579427086,-0.05441495687654703,-0.0,0.012108075736772896,0.030000474717881944,-0.0,-0.0,-0.0586,0.0004,-0.609,-0.00019,-0.01345,0.00325,0.0008682070183567703,0.001180085469968617,0.0010169126326218247,0.0005454596830531955,0.0006339680403470993,0.0005986441974528134,0.009759419597685337,0.00819050706923008,0.008521596901118755,passive,1
1.3805,rehab,safe_near_limit_slow,83.42455457596768,-666.646977048982,259.04458428036287,-177.3963188675846,0.13672437543554733,-149.98641039110532,-750.1087,6632.7001,-2019.4727,-8723.7979,76654.468,-23343.4808,84.70722085178488,30.285812226852567,86.04836869947981,-28.411068386501736,-89.10140143500433,-35.411885579427086,-0.05441495687654703,-0.0,0.012108075736772896,0.030000474717881944,-0.0,-0.0,-0.2615,-0.1366,-1.2371,-0.00919,-0.00525,0.00596,0.0008682070183567703,0.001180085469968617,0.0010169126326218247,0.0005454596830531955,0.0006339680403470993,0.0005986441974528134,0.009759419597685337,0.00819050706923008,0.008521596901118755,passive,1
1.4007,rehab,safe_near_limit_slow,83.42455457596768,-666.646977048982,259.04458428036287,-177.3963188675846,0.13672437543554733,-149.98641039110532,-862.9621,7580.5918,-2308.0968,-3854.9129,33837.3398,-10296.5777,84.70722085178488,30.285812226852567,86.04836869947981,-28.411068386501736,-89.10140143500433,-35.411885579427086,-0.05441495687654703,-0.0,0.012108075736772896,0.030000474717881944,-0.0,-0.0,-0.1202,0.1132,-0.1386,0.0048,0.01642,0.00119,0.0008682070183567703,0.001180085469968617,0.0010169126326218247,0.0005454596830531955,0.0006339680403470993,0.0005986441974528134,0.009759419597685337,0.00819050706923008,0.008521596901118755,passive,1
1.4205,rehab,safe_near_limit_slow,-1.4893847215047176,84.69437854124767,30.281427213461093,86.04590085473392,-28.411068386501736,-89.10140991210938,-869.284,7614.8224,-2319.2411,3865.1772,-34079.5681,10395.0197,-35.43460438638481,-5.773125531650436,-4.851402784201042,-3.5052144732325985,8.519599620663065,0.1728288680808987,-5.677582463173181,-110.94579008474886,-93.18793093449074,-68.72979565919475,165.027083336211,3.313594055143198,-0.0483,0.0492,-0.3151,0.00842,0.00449,-0.00231,0.0008682070183567703,0.001180085469968617,0.0010169126326218247,0.0005454596830531955,0.0006339680403470993,0.0005986441974528134,0.009759419597685337,0.00819050706923008,0.008521596901118755,passive,1
1.4405,rehab,safe_near_limit_slow,-1.6100195186468125,84.69249536495397,30.2805230169013,86.0457716837968,-28.41109381781684,-89.10140143500433,-763.1702,6712.1445,-2044.1121,8802.9492,-77255.9397,23550.0321,-35.44280421847058,-7.857929816605491,-6.606879203143734,-4.793660058570737,11.622282463585876,0.2351032135869957,-7.727540484614437,-145.03796801879085,-122.15620344036007,-89.80407500924763,216.04492301952033,4.331265648360726,-0.085,0.1464,-0.0423,0.00975,0.00294,0.00461,0.0008682070183567703,0.001180085469968617,0.0010169126326218247,0.0005454596830531955,0.0006339680403470993,0.0005986441974528134,0.009759419597685337,0.00819050706923008,0.008521596901118755,passive,1
1.4604,rehab,safe_near_limit_slow,-1.862705751746759,84.68962641045599,30.279340083056155,86.04546575262995,-28.41107686360677,-89.10140143500433,-562.8668,4972.9754,-1513.3421,9939.7986,-86768.373,26448.0747,-35.45758601347419,-11.616648812289299,-9.767180410581666,-7.132162988170876,17.22650329542219,0.3472944970646097,-11.422989235517989,-219.52453090268142,-183.97592379582053,-136.63637028660233,326.7568029765576,6.553585917501436,-0.0278,0.0682,-0.1507,0.01847,-0.00456,0.00568,0.0008682070183567703,0.001180085469968617,0.0010169126326218247,0.0005454596830531955,0.0006339680403470993,0.0005986441974528134,0.009759419597685337,0.00819050706923008,0.008521596901118755,passive,1
1.4803,rehab,safe_near_limit_slow,-2.2146767013123867,84.6830930804262,30.275825273872602,86.04371854574373,-28.41104295518663,-89.10140143500433,-262.3252,2343.0455,-711.5634,9357.5276,-81237.6654,24757.2359,-35.48366631751929,-18.247096333080748,-15.264126084340468,-11.19643989046537,26.973335031291512,0.5457375236304074,-17.94306524679179,-316.19074889377487,-260.5370758366201,-192.2451103313346,461.6346930357275,9.476023655530257,-0.0987,-0.1159,-0.9057,0.0076,-0.00338,0.00095,0.0008682070183567703,0.001180085469968617,0.0010169126326218247,0.0005454596830531955,0.0006339680403470993,0.0005986441974528134,0.009759419597685337,0.00819050706923008,0.008521596901118755,passive,1
1.5007,rehab,safe_near_limit_slow,-2.4582766609763738,84.67570994159964,30.27195694422958,86.04178098168704,-28.411059909396702,-89.10140143500433,144.9247,-1233.5204,378.2692,7445.7645,-64591.756,19673.6974,-35.505999989647556,-23.923941631039725,-19.91727158182499,-14.628024692925123,35.217038926494304,0.7160382044446578,-23.52648327885909,-377.6547881955142,-308.6988690468299,-227.65396512447464,546.93016334606,11.334851927280452,-0.0644,-0.0143,-0.3748,0.00042,-0.01259,8e-05,0.0008682070183567703,0.001180085469968617,0.0010169126326218247,0.0005454596830531955,0.0006339680403470993,0.0005986441974528134,0.009759419597685337,0.00819050706923008,0.008521596901118755,passive,1
1.5205,rehab,safe_near_limit_slow,-1.1742294391225148,84.66122240123183,30.26541001725905,86.03968705281173,-28.41107686360677,-89.10140991210938,188.2766,-1594.6579,487.8794,4697.1297,-41185.7169,12517.0205,-35.546524163612894,-1.860487386224463,-1.5060611326180862,-1.1137795190627742,2.671989752061954,0.05591538492311088,-1.8301822973096904,-14.183774427856104,-10.931578487971585,-8.27528347890901,19.606287103179906,0.428624407966538,1.2392,-0.3145,-3.3664,-0.04473,0.01587,0.01296,0.0008682070183567703,0.001180085469968617,0.0010169126326218247,0.0005454596830531955,0.0006339680403470993,0.0005986441974528134,0.009759419597685337,0.00819050706923008,0.008521596901118755,passive,1
1.5404,rehab,safe_near_limit_slow,-1.1755092669349445,84.88243782874382,30.51533538516205,86.19926754790957,-28.325203789605034,-89.10112169053819,9.3106,0.7198,1.1104,1586.2931,-14412.4728,4327.9676,-35.577991194397676,-2.0811224422701002,-1.6749911298381548,-1.2432043022378991,2.9765662142002824,0.06258036521344934,-2.0473532398757044,-13.553253165987691,-10.333839535858775,-7.977630499311789,18.69401199705578,0.4093213670230945,-0.6949,-0.0059,-4.6207,-0.08622,0.04001,0.00575,0.0008682070183567703,0.001180085469968617,0.0010169126326218247,0.0005454596830531955,0.0006339680403470993,0.0005986441974528134,0.009759419597685337,0.00819050706923008,0.008521596901118755,passive,1
1.5607,rehab,safe_near_limit_slow,-1.1771725561072168,84.83767669979889,30.429450308922494,86.11226072405825,-28.19983588324653,-89.0947977701823,8.6731,-0.4395,-0.1114,-1063.9321,8682.5818,-2727.3044,-35.631471189345476,-2.3931587855372527,-1.9103882607218736,-1.4285139168102035,3.406099829718734,0.07199807712510164,-2.3545031644989223,-12.607418503840508,-9.432400629672008,-7.538621381364391,17.328297490903854,0.3803167718530176,-0.4686,-0.6709,4.0395,0.10487,-0.05315,-0.02423,0.0008682070183567703,0.001180085469968617,0.0010169126326218247,0.0005454596830531955,0.0006339680403470993,0.0005986441974528134,0.009759419597685337,0.00819050706923008,0.008521596901118755,passive,1
1.5806,rehab,safe_near_limit_slow,-1.1781100766100723,84.84459074416964,30.489195266572555,86.09249077220954,-28.14587910970052,-89.0921613905165,5.0604,-1.8154,-1.52,-2414.9933,20454.6337,-6315.4363,-35.67107925791246,-2.5885711050079863,-2.0552781107223694,-1.5462335754072853,3.6742571816414937,0.07788955285548127,-2.5468640578303336,-11.97673743913441,-8.828962220208767,-7.249715381796325,16.419051782623484,0.3609513425928412,0.3851,-0.0681,2.3639,0.09059,-0.03446,0.00399,0.0008682070183567703,0.001180085469968617,0.0010169126326218247,0.0005454596830531955,0.0006339680403470993,0.0005986441974528134,0.009759419597685337,0.00819050706923008,0.008521596901118755,passive,1
1.6007,rehab,safe_near_limit_slow,-1.1792604592199847,84.69758741926438,30.332347756565206,85.98616269555423,-28.07888454861111,-89.09500122070312,-1.621,-3.4725,-3.14,-1553.4121,12831.7782,-3979.9243,-35.73602645401647,-2.8627693085319095,-2.254535321359441,-1.7140988946025004,4.0491969005120865,0.08614588479005647,-2.8167945958017526,-11.030720515670112,-7.926080260789499,-6.81223304876962,15.053523987118497,0.33191152670752894,0.1034,0.0373,-1.3255,0.01004,-0.00562,0.01606,0.0008682070183567703,0.001180085469968617,0.0010169126326218247,0.0005454596830531955,0.0006339680403470993,0.0005986441974528134,0.009759419597685337,0.00819050706923008,0.008521596901118755,passive,1
1.6205,rehab,safe_near_limit_slow,-1.179855813192463,84.5927074167988,30.23789660765393,85.92396349009901,-28.01910400390625,-89.09462822808159,-2.7646,-5.2175,-4.8227,119.6086,-1780.9074,494.3514,-35.782783025558686,-3.032952554548274,-2.3753395624090956,-1.8201656383531883,4.2809426142698115,0.09126282932214735,-2.9843391722419454,-10.399848668463143,-7.324567159017227,-6.519650862735187,14.142525206484047,0.312544494285305,-0.3015,-0.2895,-0.9632,0.00319,-0.00291,0.00452,0.0008682070183567703,0.001180085469968617,0.0010169126326218247,0.0005454596830531955,0.0006339680403470993,0.0005986441974528134,0.009759419597685337,0.00819050706923008,0.008521596901118755,passive,1
1.6404,rehab,safe_near_limit_slow,-1.1804077025556452,84.5093037822459,30.14889103351253,85.8763062127746,-27.937850952148438,-89.09170362684462,-0.0213,-5.5679,-5.0254,344.4652,-3417.7992,1019.3348,-35.84484025493629,-3.2314863656353054,-2.5128613778493403,-1.946080597541311,4.550093454576576,0.09722355947872074,-3.1798074312785474,-9.611165755707487,-6.576812610070738,-6.146921163185901,13.000947474806134,0.28835959842154624,-0.0508,-0.073,0.0895,0.02398,-0.00561,0.00272,0.0008682070183567703,0.001180085469968617,0.0010169126326218247,0.0005454596830531955,0.0006339680403470993,0.0005986441974528134,0.009759419597685337,0.00819050706923008,0.008521596901118755,passive,1
1.6607,rehab,safe_near_limit_slow,-1.1807876905375287,84.40258819277923,30.05589475726137,85.8229382203357,-27.83487108018663,-89.08946567111545,-0.0104,-5.0457,-4.5486,4.076,-0.9461,3.06,-35.9241962037127,-3.4489025708097643,-2.658237154345322,-2.0871870018623895,4.842874578860901,0.10373847054623297,-3.3938873542727066,-8.664558170501415,-5.687288991529283,-5.686654300340912,11.625822375016524,0.25938522885127213,-0.2342,0.0918,0.2102,0.02026,0.00148,0.00967,0.0008682070183567703,0.001180085469968617,0.0010169126326218247,0.0005454596830531955,0.0006339680403470993,0.0005986441974528134,0.009759419597685337,0.00819050706923008,0.008521596901118755,passive,1
1.6806,rehab,safe_near_limit_slow,-1.180857228173223,84.31955167562654,29.99219308985342,85.78396258967938,-27.762502034505207,-89.08931308322482,0.0002,-4.6011,-4.0801,33.2373,12.4661,16.3799,-35.979813796087065,-3.5812155010468416,-2.7432450957194376,-2.17519634691854,5.0197366198849735,0.10769474424776604,-3.5241747063174955,-8.031401092623083,-5.073554542711668,-5.41273347565145,10.717312047603398,0.2398510678958173,-0.1814,0.0684,-0.3948,0.00026,-0.00272,0.00961,0.0008682070183567703,0.001180085469968617,0.0010169126326218247,0.0005454596830531955,0.0006339680403470993,0.0005986441974528134,0.009759419597685337,0.00819050706923008,0.008521596901118755,passive,1
1.7005,rehab,safe_near_limit_slow,-1.180740808040957,84.20754007773824,29.89977468358408,85.72709338499767,-27.648646036783852,-89.08679538302951,0.0113,-4.1867,-3.4634,25.0353,17.5574,21.6247,-36.06691306020539,-3.760762912044413,-2.8534979280605555,-2.2971406513683235,5.257227897485173,0.1130538728695285,-3.7010220161892704,-7.087839072994484,-4.250164146846237,-4.844621894761723,9.304336596293886,0.2114173165423908,-0.2522,-0.0448,-0.7459,-0.01203,-0.00445,0.005,0.0008682070183567703,0.001180085469968617,0.0010169126326218247,0.0005454596830531955,0.0006339680403470993,0.0005986441974528134,0.009759419597685337,0.00819050706923008,0.008521596901118755,passive,1
1.7207,rehab,safe_near_limit_slow,-1.1804750076986328,84.14655779848005,29.84508778789256,85.69202007633625,-27.568800184461804,-89.0837181939019,0.0205,-4.1365,-3.3408,-1.3982,12.1736,16.6975,-36.12719650640963,-3.8678264554050656,-2.915393301672786,-2.371881138625298,5.397040565041422,0.11624170660340383,-3.8064893070135497,-6.4546371740803465,-3.654009959275175,-4.543237555054631,8.389368699512964,0.19204801482430864,-0.2964,-0.187,-1.0144,-0.01149,0.00773,-0.0006,0.0008682070183567703,0.001180085469968617,0.0010169126326218247,0.0005454596830531955,0.0006339680403470993,0.0005986441974528134,0.009759419597685337,0.00819050706923008,0.008521596901118755,passive,1
1.7406,rehab,safe_near_limit_slow,-1.17982729031688,84.05826606372796,29.77026382295212,85.63857730072324,-27.443322075737846,-89.08083597819011,0.032,-4.115,-3.2362,-5.1234,3.0659,8.0702,-36.22054969581144,-4.009472470215769,-2.991193626677102,-2.4735654919396666,5.578773904144185,0.1204488966379813,-3.9460583723975873,-5.507094599899316,-2.806709102687409,-4.014122674256271,6.987068938979621,0.16335346320062583,-0.1814,0.0526,-0.0286,0.00742,0.00086,0.00046,0.0008682070183567703,0.001180085469968617,0.0010169126326218247,0.0005454596830531955,0.0006339680403470993,0.0005986441974528134,0.009759419597685337,0.00819050706923008,0.008521596901118755,passive,1
1.7606,rehab,safe_near_limit_slow,-1.1792115946877229,83.9948567305461,29.720927323445235,85.60207631328318,-27.356736924913193,-89.07969156901042,0.0423,-4.0712,-3.1563,0.6208,-2.4786,2.1511,-36.284505219057834,-4.091259917487378,-3.0304335861428555,-2.5342929775789003,5.681212129233337,0.12287092948426448,-4.026664265785129,-4.873271045369165,-2.2253529470273214,-3.687593939538658,6.057943828352562,0.14405953674412741,-0.3263,-0.2531,0.0207,-0.00087,-0.00795,-0.00114,0.0008682070183567703,0.001180085469968617,0.0010169126326218247,0.0005454596830531955,0.0006339680403470993,0.0005986441974528134,0.009759419597685337,0.00819050706923008,0.008521596901118755,passive,1
1.781,rehab,safe_near_limit_slow,-1.1780626848265094,83.890275860777,29.64362871528852,85.54406496557858,-27.224222819010414,-89.07669915093315,0.0582,-4.1913,-3.1517,0.5207,-4.1367,-0.9723,-36.38262064705214,-4.194988647338249,-3.072881423967111,-2.613951183580099,5.806523346208792,0.12593410469818878,-4.128955834566739,-3.9273601020183695,-1.4333787734522467,-3.070040456520928,4.626082526604169,0.11580548964218038,-0.3918,-0.3001,0.2253,0.02103,-0.00956,-0.00155,0.0008682070183567703,0.001180085469968617,0.0010169126326218247,0.0005454596830531955,0.0006339680403470993,0.0005986441974528134,0.009759419597685337,0.00819050706923008,0.008521596901118755,passive,1
1.8004,rehab,safe_near_limit_slow,-1.1771302342272254,83.81753222777111,29.590784205068456,85.50226117124652,-27.133865356445312,-89.07427469889323,0.0743,-4.3712,-3.2054,0.3396,-3.4563,-0.9887,-36.449254195876165,-4.2515145024957235,-3.090562855435408,-2.6589127528282575,5.870968493707274,0.1275986553608277,-4.184749727510706,-3.2973877086560335,-0.9247094912013051,-2.62772219450369,3.6613370992808063,0.09711117066046882,-0.1962,-0.3183,0.0482,0.02087,-0.00723,0.0018,0.0008682070183567703,0.001180085469968617,0.0010169126326218247,0.0005454596830531955,0.0006339680403470993,0.0005986441974528134,0.009759419597685337,0.00819050706923008,0.008521596901118755,passive,1
1.8203,rehab,safe_near_limit_slow,-1.1757440398290155,83.72798277599976,29.52561406805964,85.44862803846303,-27.018610636393227,-89.07214694552951,0.0776,-4.3613,-3.1727,0.0637,-2.7193,-0.1785,-36.53364312029512,-4.307947752256069,-3.100742330024886,-2.7059204805262027,5.92999275720274,0.12925440951150335,-4.240501058287549,-2.5052666625669664,-0.24335060944121556,-2.1475300284734544,2.4738220363307963,0.07334005847070968,-0.1713,-0.3544,-0.1102,0.02036,-0.00269,-0.00103,0.0008682070183567703,0.001180085469968617,0.0010169126326218247,0.0005454596830531955,0.0006339680403470993,0.0005986441974528134,0.009759419597685337,0.00819050706923008,0.008521596901118755,passive,1
1.8408,rehab,safe_near_limit_slow,-1.1738134368084552,83.62342910011216,29.450654133711712,85.3847088200031,-26.87771267361111,-89.06910366482205,0.0745,-4.4003,-3.2164,-0.2631,-2.6115,-0.0107,-36.63610813359566,-4.354799647202867,-3.095795661584688,-2.748347865022538,5.969089658839799,0.1306205974032082,-4.286894446320133,-1.5570926370502023,0.524076858798885,-1.4917533199820459,1.0238550993690865,0.04522206875634538,-0.2129,-0.2379,0.8139,0.0243,-0.01555,0.00285,0.0008682070183567703,0.001180085469968617,0.0010169126326218247,0.0005454596830531955,0.0006339680403470993,0.0005986441974528134,0.009759419597685337,0.00819050706923008,0.008521596901118755,passive,1
1.8605,rehab,safe_near_limit_slow,-1.1723553766589936,83.55521324837562,29.401052493860227,85.34215719392984,-26.78280300564236,-89.06661139594183,0.0651,-4.4384,-3.2343,-0.573,-2.0039,0.4722,-36.704895934401584,-4.373391694951323,-3.0823989663026907,-2.7676806351699668,5.97574484553931,0.13115747874792305,-4.305401110464402,-0.9249252164167387,1.0243264370046745,-1.0368441474284749,0.0506824124891986,0.026561536969893492,-0.1774,-0.3326,0.1912,0.0268,-0.00819,0.00538,0.0008682070183567703,0.001180085469968617,0.0010169126326218247,0.0005454596830531955,0.0006339680403470993,0.0005986441974528134,0.009759419597685337,0.00819050706923008,0.008521596901118755,passive,1
1.8805,rehab,safe_near_limit_slow,-1.1700105274840897,83.45190369256652,29.324168592396347,85.27645677623183,-26.63967556423611,-89.06336466471355,0.0492,-4.3564,-3.1104,-0.7804,-1.1766,1.1074,-36.80839740387193,-4.382455675440156,-3.047561782292263,-2.782618992949182,5.956387354075332,0.13140982408543778,-4.314670124731634,-0.011591174242582974,1.7504030993542936,-0.3166083955008503,-1.4217197503719952,-3.945554993833866e-05,-0.2671,-0.3719,0.0241,0.0226,-0.00889,0.00224,0.0008682070183567703,0.001180085469968617,0.0010169126326218247,0.0005454596830531955,0.0006339680403470993,0.0005986441974528134,0.009759419597685337,0.00819050706923008,0.008521596901118755,passive,1
1.9008,rehab,safe_near_limit_slow,-1.169984039333584,83.3826476748627,29.27245262825843,85.23200837692411,-26.54394361707899,-89.06159294976128,0.0314,-4.465,-3.1069,-0.803,-0.8107,1.7186,-36.87743410237465,-4.382310902315112,-3.015627710834856,-2.7814582837208945,5.923478415280847,0.1314380075285726,-4.3148855518690965,0.009902550779372632,2.1406318859719407,0.3098818943669108,-2.438821610884066,0.003249426505651191,-0.2544,-0.5809,-0.8009,0.02645,-0.01856,0.00509,0.0008682070183567703,0.001180085469968617,0.0010169126326218247,0.0005454596830531955,0.0006339680403470993,0.0005986441974528134,0.009759419597685337,0.00819050706923008,0.008521596901118755,passive,1
1.9203,rehab,safe_near_limit_slow,-1.1700275870269008,83.27574172822555,29.19764226025874,85.1656960968924,-26.400892469618054,-89.05854966905382,0.0132,-4.5494,-3.1015,-0.6766,-0.3127,2.3671,-36.98099901344397,-4.382024778880833,-2.956236804626755,-2.760607277913607,5.843520750697273,0.1315984770577927,-4.31547729285775,0.013359596096051973,2.7113998244398205,1.2704821816810614,-3.969921478441596,0.009127595568254926,-0.3134,-0.4791,-0.6466,0.02177,-0.01412,0.00574,0.0008682070183567703,0.001180085469968617,0.0010169126326218247,0.0005454596830531955,0.0006339680403470993,0.0005986441974528134,0.009759419597685337,0.00819050706923008,0.008521596901118755,passive,1
1.9407,rehab,safe_near_limit_slow,-1.1700592507902057,83.20265137323058,29.150059766108445,85.1209553633586,-26.305872599283852,-89.05626085069444,-0.0011,-4.5231,-3.0504,-0.4815,0.7332,3.1083,-37.05005221248467,-4.381787829448314,-2.9091090546149445,-2.7337937944693635,5.7697725803569355,0.13178319710505093,-4.316051515813157,0.01566953944383372,3.0851513772578265,1.9201605736540373,-4.993170126921439,0.012990872377827143,-0.3504,-0.2656,-0.4322,0.03177,-0.01041,0.01156,0.0008682070183567703,0.001180085469968617,0.0010169126326218247,0.0005454596830531955,0.0006339680403470993,0.0005986441974528134,0.009759419597685337,0.00819050706923008,0.008521596901118755,passive,1
1.9605,rehab,safe_near_limit_slow,-1.1701107105295876,83.09297844915106,29.082557753761215,85.05447312156753,-26.165271335177952,-89.05308193630643,-0.0092,-4.5289,-3.0169,-0.2785,1.1205,3.2732,-37.15365267140629,-4.381363025693474,-2.827328917438976,-2.6739133888042943,5.628407117521661,0.13217515245855793,-4.3171840051474675,0.019141684681826383,3.6360572039927956,2.9079816679101347,-6.531621561389886,0.01870532617686693,-0.5175,-0.4428,-0.4102,0.00985,-0.00814,0.00951,0.0008682070183567703,0.001180085469968617,0.0010169126326218247,0.0005454596830531955,0.0006339680403470993,0.0005986441974528134,0.009759419597685337,0.00819050706923008,0.008521596901118755,passive,1
1.9804,rehab,safe_near_limit_slow,-1.170147610313819,83.02230834960938,29.03680404814163,85.01073856164913,-26.072828504774304,-89.05103895399306,-0.0077,-4.4096,-2.8963,-0.088,1.7971,3.862,-37.22273680080658,-4.3810335605734,-2.76553484629094,-2.620724349782222,5.513624489747571,0.13251206947373362,-4.318120680570914,0.021472279065974226,3.9972963685741543,3.5747364597326485,-7.5594438224689595,0.022462653070931538,-0.4432,-0.3724,-0.5825,0.02734,-0.01095,0.01145,0.0008682070183567703,0.001180085469968617,0.0010169126326218247,0.0005454596830531955,0.0006339680403470993,0.0005986441974528134,0.009759419597685337,0.00819050706923008,0.008521596901118755,passive,1
2.0008,rehab,safe_near_limit_slow,-1.1702174749716436,82.90175107446048,28.95456295202274,84.9355406808381,-25.914306640625,-89.04726664225261,-0.0025,-4.3642,-2.806,0.0497,2.6036,5.015,-37.34367500305059,-4.380367647634387,-2.643648065123294,-2.501753230500725,5.273124651132832,0.13324507024847776,-4.320111136870253,0.025519802271389832,4.618084145535678,4.757178636793889,-9.362328486250826,0.028949203922934427,-0.5864,-0.5262,-0.593,0.016,-0.01211,0.00953,0.0008682070183567703,0.001180085469968617,0.0010169126326218247,0.0005454596830531955,0.0006339680403470993,0.0005986441974528134,0.009759419597685337,0.00819050706923008,0.008521596901118755,passive,1
2.0207,rehab,safe_near_limit_slow,-1.1702602768658525,82.83411989117613,28.907905049843365,84.8935601262763,-25.826695760091145,-89.04503716362846,-0.0021,-4.3289,-2.707,0.1135,1.4469,5.0075,-37.41280998673711,-4.379935958226611,-2.566261051795138,-2.418814412781245,5.113007561095451,0.1337448653266904,-4.321450007214622,0.027845883821127883,4.967237581698888,5.440440399517854,-10.394552431014436,0.0326067697287199,-0.6106,-0.4685,-0.4175,0.00511,-0.01763,0.01162,0.0008682070183567703,0.001180085469968617,0.0010169126326218247,0.0005454596830531955,0.0006339680403470993,0.0005986441974528134,0.009759419597685337,0.00819050706923008,0.008521596901118755,passive,1
2.0408,rehab,safe_near_limit_slow,-1.1703051432986586,82.76493865664642,28.863524635239404,84.8534083602452,-25.74103461371528,-89.04295179578993,-0.0015,-4.3221,-2.6136,0.1102,-0.8195,4.2406,-37.48196786420514,-4.37946711638304,-2.4833257871321734,-2.3248911001978456,4.936360866193645,0.13430287069837732,-4.322936094894203,0.030187149668777377,5.31286427696294,6.128476320199604,-11.428036547966801,0.036231960542916546,-0.5666,-0.4326,0.0899,0.00768,-0.03152,0.00589,0.0008682070183567703,0.001180085469968617,0.0010169126326218247,0.0005454596830531955,0.0006339680403470993,0.0005986441974528134,0.009759419597685337,0.00819050706923008,0.008521596901118755,passive,1
2.0605,rehab,safe_near_limit_slow,-1.1703413244170997,82.65822986565014,28.802114052347616,84.79458799456606,-25.616633097330727,-89.03981526692708,-0.0008,-4.383,-2.547,0.064,-2.5113,3.5976,-37.585752146380145,-4.3787083265343085,-2.352349483428995,-2.169452848381326,4.650267851604717,0.1352095192039826,-4.325346770640337,0.03178006124926469,5.337592891008161,6.3544321493580815,-11.678687976024513,0.036570575900896074,-0.6522,-0.4436,-0.8136,0.00555,-0.01357,0.01072,0.0008682070183567703,0.001180085469968617,0.0010169126326218247,0.0005454596830531955,0.0006339680403470993,0.0005986441974528134,0.009759419597685337,0.00819050706923008,0.008521596901118755,passive,1
2.0804,rehab,safe_near_limit_slow,-1.1703332611063226,82.58513271218479,28.76380467178798,84.75696525951423,-25.536702473958332,-89.03768751356337,-0.0,-4.3444,-2.4084,0.0205,-2.9752,3.337,-37.654972505990074,-4.3782059023378395,-2.2710936778835844,-2.0735718244893064,4.473342022241589,0.1357521366927017,-4.326807624229545,0.03117706270934591,4.925888837492512,5.778242702092554,-10.691026943510028,0.032348422607242355,-0.5762,-0.3691,-0.5875,0.01715,-0.01038,0.01285,0.0008682070183567703,0.001180085469968617,0.0010169126326218247,0.0005454596830531955,0.0006339680403470993,0.0005986441974528134,0.009759419597685337,0.00819050706923008,0.008521596901118755,passive,1
2.1007,rehab,safe_near_limit_slow,-1.170316714969502,82.47834913801438,28.708913821985227,84.70283583839341,-25.42364332411024,-89.03440687391493,0.0006,-4.4392,-2.366,0.0171,-2.2257,3.7147,-37.75884299110728,-4.377470485341206,-2.1614381251522374,-1.9472294124582845,4.237653551753873,0.1364403734669395,-4.328692568583037,0.030263373140826385,4.317829232158895,4.898669394570802,-9.203747477038023,0.026090081206575626,-0.6823,-0.4861,-0.6516,0.00071,-0.01205,0.01245,0.0008682070183567703,0.001180085469968617,0.0010169126326218247,0.0005454596830531955,0.0006339680403470993,0.0005986441974528134,0.009759419597685337,0.00819050706923008,0.008521596901118755,passive,1
2.1206,rehab,safe_near_limit_slow,-1.170302661946093,82.41019447251122,28.672154492670945,84.66912222380685,-25.35159640842014,-89.0321773952908,0.0011,-4.6363,-2.3961,0.0235,-0.6124,4.5476,-37.828112789230175,-4.3769924527268245,-2.096379886936006,-1.8748458868422802,4.100413346047382,0.13681622854022635,-4.329743687939924,0.029666565204422565,3.9188233649235107,4.303213858136736,-8.209539799075701,0.02196667647780259,-0.759,-0.4678,-0.3305,0.0125,-0.00949,0.01169,0.0008682070183567703,0.001180085469968617,0.0010169126326218247,0.0005454596830531955,0.0006339680403470993,0.0005986441974528134,0.009759419597685337,0.00819050706923008,0.008521596901118755,passive,1
2.1404,rehab,safe_near_limit_slow,-1.1702724119410786,82.29283927690865,28.60815369256652,84.61460528987469,-25.231586032443577,-89.02824401855469,0.0014,-4.6239,-2.2854,0.0172,1.3521,5.3827,-37.94936989560426,-4.37617947454072,-1.9976754186128431,-1.7711859576969857,3.8983925625499793,0.13731724080301433,-4.33118817471545,0.028555549036327912,3.2277889485676425,3.2413765636008125,-6.457077335042396,0.014809759640850625,-0.7919,-0.4947,-0.557,0.01432,-0.00322,0.01549,0.0008682070183567703,0.001180085469968617,0.0010169126326218247,0.0005454596830531955,0.0006339680403470993,0.0005986441974528134,0.009759419597685337,0.00819050706923008,0.008521596901118755,passive,1
2.1604,rehab,safe_near_limit_slow,-1.1702522276300251,82.22415433071627,28.5727064680345,84.58454925234955,-25.166363186306423,-89.02609083387587,0.0015,-4.4922,-2.1306,0.0087,2.8021,5.6372,-38.018675080619246,-4.375728596087924,-1.949870108908236,-1.7253737433655658,3.8049659684471493,0.13751429234076795,-4.331785260715648,0.027947946179692467,2.844364973109119,2.6359511835494054,-5.468470295921724,0.01082474554436885,-0.803,-0.542,-0.6954,0.03278,0.0013,0.01479,0.0008682070183567703,0.001180085469968617,0.0010169126326218247,0.0005454596830531955,0.0006339680403470993,0.0005986441974528134,0.009759419597685337,0.00819050706923008,0.008521596901118755,passive,1
2.1804,rehab,safe_near_limit_slow,-1.1702165684842383,82.11828855004642,28.52457329778388,84.54142655476485,-25.071996053059895,-89.02285257975261,0.0017,-4.3905,-1.9912,0.001,4.3366,5.6979,-38.122646817057316,-4.375071393013741,-1.8897556821730888,-1.6752587993913437,3.695015654110456,0.13768919568946103,-4.332367608389731,0.026979367184835474,2.263383445111362,1.695157886949499,-3.9470705539555797,0.004770924100223946,-0.775,-0.604,-0.2449,0.02464,-0.01326,0.01482,0.0008682070183567703,0.001180085469968617,0.0010169126326218247,0.0005454596830531955,0.0006339680403470993,0.0005986441974528134,0.009759419597685337,0.00819050706923008,0.008521596901118755,passive,1
2.2004,rehab,safe_near_limit_slow,-1.1701898005255897,82.0458168558555,28.494836788366335,84.5142666656192,-25.011198255750866,-89.02064853244357,0.0019,-4.2571,-1.8439,-0.0037,5.0707,5.2319,-38.19196668267229,-4.37464620516792,-1.8573729737196842,-1.6544667032647453,3.6420218561667994,0.1377255173125036,-4.332544866851862,0.026330173596918617,1.8806836141749272,1.0614971390765329,-2.9309627167519476,0.000773405339771216,-0.7249,-0.6977,-0.4909,0.02856,-0.01817,0.01161,0.0008682070183567703,0.001180085469968617,0.0010169126326218247,0.0005454596830531955,0.0006339680403470993,0.0005986441974528134,0.009759419597685337,0.00819050706923008,0.008521596901118755,passive,1
2.2207,rehab,safe_near_limit_slow,-1.1701451451927873,81.93846900864403,28.451863657129874,84.47395173629911,-24.922044542100693,-89.01735941569011,0.0018,-4.1617,-1.7391,-0.007,3.3495,3.4381,-38.29594777928996,-4.374027968946592,-1.8201959377899257,-1.6424056838317824,3.5930476791694588,0.13766077647403563,-4.332493300550411,0.025351480026429132,1.313237874001043,0.10178153697639285,-1.4041844651481377,-0.005167691163872386,-0.8756,-0.8235,-1.2518,0.01143,-0.0185,0.0189,0.0008682070183567703,0.001180085469968617,0.0010169126326218247,0.0005454596830531955,0.0006339680403470993,0.0005986441974528134,0.009759419597685337,0.00819050706923008,0.008521596901118755,passive,1
2.2406,rehab,safe_near_limit_slow,-1.1701123651455219,81.8689750444771,28.42397633165416,84.44804276570235,-24.863611857096352,-89.01516384548611,0.0013,-4.1651,-1.7238,-0.0104,0.1895,1.1886,-38.365265418775586,-4.373628896459536,-1.8029284997780337,-1.6472290878546403,3.5807744262124075,0.13753881031774995,-4.332246715261334,0.024695916423026893,0.9392235340577489,-0.5439966379583262,-0.38464999230227553,-0.009092418373768394,-0.8669,-0.802,-0.4065,0.01547,-0.0108,0.01669,0.0008682070183567703,0.001180085469968617,0.0010169126326218247,0.0005454596830531955,0.0006339680403470993,0.0005986441974528134,0.009759419597685337,0.00819050706923008,0.008521596901118755,passive,1
2.2606,rehab,safe_near_limit_slow,-1.1700771696060683,81.80102433308517,28.39481769221844,84.42119560619392,-24.805806477864582,-89.01293436686198,0.001,-4.1637,-1.7387,-0.0134,-2.9445,-0.6593,-38.43457741127907,-4.373240337276485,-1.7916114598968136,-1.6624319434512813,3.5848268733147393,0.13735433439521216,-4.33182992077441,0.024038221191206317,0.5685935202670577,-1.1944752218440333,0.6361984030701198,-0.012988573772076961,-0.8378,-0.8145,-0.4616,0.00956,-0.00956,0.01129,0.0008682070183567703,0.001180085469968617,0.0010169126326218247,0.0005454596830531955,0.0006339680403470993,0.0005986441974528134,0.009759419597685337,0.00819050706923008,0.008521596901118755,passive,1
2.2805,rehab,safe_near_limit_slow,-1.170033561920947,81.69880933100634,28.3502197265625,84.38198882754486,-24.719899495442707,-89.00961134168837,0.0009,-4.1909,-1.7554,-0.0127,-4.8841,-1.6776,-38.53852894974003,-4.372673830108198,-1.7848134603060117,-1.703335966222852,3.6191755064995945,0.13697039836557678,-4.330907736317613,0.02378847696611715,0.20346874274322263,-1.8519822422291554,1.6585469426733772,-0.01685492545533407,-0.8828,-0.8766,-0.5043,0.01538,-0.00457,0.01375,0.0008682070183567703,0.001180085469968617,0.0010169126326218247,0.0005454596830531955,0.0006339680403470993,0.0005986441974528134,0.009759419597685337,0.00819050706923008,0.008521596901118755,passive,1
2.3007,rehab,safe_near_limit_slow,-1.1700499286722035,81.62944453777654,28.31932747718131,84.35490372157332,-24.66260274251302,-89.0074242485894,0.0008,-4.37,-1.8192,-0.0066,-5.3322,-1.7279,-38.60781761325524,-4.372270254226152,-1.7778385041156142,-1.7264575506068525,3.6354845426807003,0.13673912469513994,-4.330339828829466,0.026070944514415127,0.574853298740425,-1.200168197712497,0.6355465165253751,-0.013017320554808975,-1.061,-1.0891,-1.1978,-0.00351,0.00281,0.01304,0.0008682070183567703,0.001180085469968617,0.0010169126326218247,0.0005454596830531955,0.0006339680403470993,0.0005986441974528134,0.009759419597685337,0.00819050706923008,0.008521596901118755,passive,1
2.3204,rehab,safe_near_limit_slow,-1.1700780750771456,81.52166838693147,28.27480429469949,84.31388854980469,-24.576246473524304,-89.00421142578125,0.0005,-4.5131,-1.8531,-0.0005,-4.1359,-0.8651,-38.711737001015116,-4.371595546196261,-1.756309752013685,-1.7414895946892273,3.6292367947439175,0.13650659459685244,-4.329758732501077,0.029553906877451665,1.1255884935224179,-0.21531677774078162,-0.89978407658009,-0.007322944028946512,-0.9256,-0.7857,-0.6944,0.01357,-0.01315,0.01289,0.0008682070183567703,0.001180085469968617,0.0010169126326218247,0.0005454596830531955,0.0006339680403470993,0.0005986441974528134,0.009759419597685337,0.00819050706923008,0.008521596901118755,passive,1
2.3407,rehab,safe_near_limit_slow,-1.1700539641313545,81.44942784073329,28.24682858910891,84.2863955356107,-24.517957899305554,-89.0020751953125,0.0003,-4.6572,-1.8799,0.0012,-2.0307,0.3859,-38.78100989171877,-4.371120622149505,-1.739826084786955,-1.7475911606439354,3.6190212588405046,0.13637321493931154,-4.329413371827684,0.02945328247960788,0.895564291392148,-0.6209526741685419,-0.26430189237203194,-0.009754666407957302,-1.0065,-0.9149,-0.81,0.00803,-0.01522,0.01349,0.0008682070183567703,0.001180085469968617,0.0010169126326218247,0.0005454596830531955,0.0006339680403470993,0.0005986441974528134,0.009759419597685337,0.00819050706923008,0.008521596901118755,passive,1
2.3604,rehab,safe_near_limit_slow,-1.1699980750808563,81.34203920269957,28.20503839171759,84.24473450915649,-24.43036397298177,-88.99876912434895,0.0006,-4.6704,-1.8554,0.0001,0.1139,1.3617,-38.884904850873745,-4.370427718452419,-1.7259995135683326,-1.776314923329636,3.634160401688291,0.13605829701290872,-4.328576981013299,0.02845940549889292,0.3490417628260189,-1.6097040012042105,1.2705749949938545,-0.015517560569833218,-1.1154,-1.0389,-0.8054,-0.0046,-0.00745,0.01153,0.0008682070183567703,0.001180085469968617,0.0010169126326218247,0.0005454596830531955,0.0006339680403470993,0.0005986441974528134,0.009759419597685337,0.00819050706923008,0.008521596901118755,passive,1
2.3806,rehab,safe_near_limit_slow,-1.1699751207362357,81.25423695781443,28.170801294912206,84.21040903223623,-24.358130560980904,-88.9960225423177,0.001,-4.5368,-1.7795,0.0004,3.044,2.3202,-38.97146527782726,-4.3698591694649735,-1.722119772980868,-1.8142920684063313,3.668453544858785,0.1357149342844366,-4.327648122313121,0.029114627153673925,0.2629145454680071,-1.780170720167007,1.5270593367588956,-0.016468798769153636,-1.1408,-0.9564,-1.1305,0.00746,0.00111,0.02028,0.0008682070183567703,0.001180085469968617,0.0010169126326218247,0.0005454596830531955,0.0006339680403470993,0.0005986441974528134,0.009759419597685337,0.00819050706923008,0.008521596901118755,passive,1
2.4004,rehab,safe_near_limit_slow,-1.1699992205153764,81.15087301424234,28.12981331702506,84.16834689602993,-24.27090115017361,-88.99271647135417,0.001,-4.4364,-1.7229,0.0026,5.0832,2.7211,-39.075315724286625,-4.3691121360751595,-1.7081301133412552,-1.8431653108734736,3.6835763844758063,0.1353992379939939,-4.326757166854378,0.03257686742578939,0.8104996005453733,-0.789532593081805,-0.010888918211680608,-0.010796187055461813,-1.1898,-0.9208,-0.9601,0.00831,-0.00953,0.01811,0.0008682070183567703,0.001180085469968617,0.0010169126326218247,0.0005454596830531955,0.0006339680403470993,0.0005986441974528134,0.009759419597685337,0.00819050706923008,0.008521596901118755,passive,1
2.4205,rehab,safe_near_limit_slow,-1.1700025297887258,81.0829494967319,28.101966782371598,84.14011284856512,-24.212248060438366,-88.9905293782552,0.0007,-4.3018,-1.6573,0.002,5.1124,2.2429,-39.14453940878726,-4.368571883620831,-1.6925195918284786,-1.8509180376220513,3.6758811588128992,0.13525385294599346,-4.326318215440494,0.03406081994214246,0.9704852041991784,-0.4921994092299542,-0.4681476826196676,-0.00915285180980163,-1.144,-1.0683,-1.0387,0.01234,-0.00726,0.02105,0.0008682070183567703,0.001180085469968617,0.0010169126326218247,0.0005454596830531955,0.0006339680403470993,0.0005986441974528134,0.009759419597685337,0.00819050706923008,0.008521596901118755,passive,1
2.4407,rehab,safe_near_limit_slow,-1.1699457351182214,80.97982349962291,28.061930590336864,84.09586160489829,-24.12384033203125,-88.98727416992188,0.0005,-4.2535,-1.6315,-0.0021,3.8463,1.3956,-39.24835928618602,-4.367768590213927,-1.6768113113476701,-1.8766663432288055,3.686159031246916,0.13495412646946647,-4.325424595609917,0.0330619744914884,0.43002891780830055,-1.489272253074638,1.0689799758712528,-0.014862484576383391,-1.2023,-1.147,-0.905,0.00553,-0.00781,0.01791,0.0008682070183567703,0.001180085469968617,0.0010169126326218247,0.0005454596830531955,0.0006339680403470993,0.0005986441974528134,0.009759419597685337,0.00819050706923008,0.008521596901118755,passive,1
2.4605,rehab,safe_near_limit_slow,-1.1699186667645458,80.90862311939202,28.03502904306544,84.06560841173228,-24.06492445203993,-88.98517184787326,0.0006,-4.1906,-1.614,-0.0028,1.3046,0.275,-39.3175582966698,-4.36724300294955,-1.6726581425032805,-1.9056355980389128,3.711128880818926,0.1346873958887329,-4.324637411414756,0.033135668431257405,0.2536717431667409,-1.826244621305726,1.5821531385017857,-0.016748737508009977,-1.0988,-0.9189,-0.4938,0.01422,-0.00756,0.0127,0.0008682070183567703,0.001180085469968617,0.0010169126326218247,0.0005454596830531955,0.0006339680403470993,0.0005986441974528134,0.009759419597685337,0.00819050706923008,0.008521596901118755,passive,1
2.4805,rehab,safe_near_limit_slow,-1.1699332845224968,80.83611063437887,28.009296832698407,84.03547079256265,-24.006551106770832,-88.98299323187933,0.0009,-4.1136,-1.5996,0.0023,-1.4697,-0.7211,-39.386745264823695,-4.366689811813984,-1.6649783461977208,-1.928211114194056,3.7261797989129875,0.13445699473635386,-4.323932576532741,0.0354457965200801,0.6154084841725194,-1.161320828835244,0.5556769873128022,-0.012994919806885717,-1.0739,-1.0378,-0.5736,0.01545,-0.0061,0.01301,0.0008682070183567703,0.001180085469968617,0.0010169126326218247,0.0005454596830531955,0.0006339680403470993,0.0005986441974528134,0.009759419597685337,0.00819050706923008,0.008521596901118755,passive,1
2.5007,rehab,safe_near_limit_slow,-1.169938954555415,80.72972816996055,27.96864877832998,83.98949273742072,-23.917761908637154,-88.97982279459636,0.0009,-4.223,-1.6545,0.0079,-3.191,-1.1099,-39.4905078364346,-4.3657967241941265,-1.6440818616310082,-1.944618737862669,3.7219285425234006,0.13420872302205566,-4.323110092217419,0.037825871323989436,0.8923007306371744,-0.641470091267173,-0.24095117256977072,-0.010138373696126583,-0.9644,-1.0644,-0.8591,0.01966,-0.02254,0.00952,0.0008682070183567703,0.001180085469968617,0.0010169126326218247,0.0005454596830531955,0.0006339680403470993,0.0005986441974528134,0.009759419597685337,0.00819050706923008,0.008521596901118755,passive,1
2.5203,rehab,safe_near_limit_slow,-1.1699003819930014,80.6602138103825,27.94117615954711,83.9583693400468,-23.858311971028645,-88.97766960991753,0.0006,-4.3144,-1.684,0.0073,-3.6968,-0.8868,-39.55967127023346,-4.365198288429184,-1.6333722356671743,-1.9615781835327084,3.7283338757241324,0.13400876770219838,-4.322455992115337,0.03711919749356625,0.5357714587539244,-1.3112647989644084,0.7851400505298097,-0.013907716756027201,-1.1456,-1.1492,-0.825,0.0066,0.00258,0.01687,0.0008682070183567703,0.001180085469968617,0.0010169126326218247,0.0005454596830531955,0.0006339680403470993,0.0005986441974528134,0.009759419597685337,0.00819050706923008,0.008521596901118755,passive,1
2.5407,rehab,safe_near_limit_slow,-1.1698654885771596,80.55827074711866,27.898780898292465,83.91143270058207,-23.768607245551216,-88.97435506184895,0.0009,-4.3954,-1.6913,0.0025,-3.7132,-0.3922,-39.66339306839148,-4.3643112835383135,-1.6256626376245364,-2.002976406338064,3.762248987782435,0.13362006086836686,-4.321214872437196,0.037645128792078,0.36307909967446167,-1.652758811587738,1.2991081459466718,-0.01578187536211273,-1.3087,-1.2814,-1.3848,0.00478,-0.00382,0.02024,0.0008682070183567703,0.001180085469968617,0.0010169126326218247,0.0005454596830531955,0.0006339680403470993,0.0005986441974528134,0.009759419597685337,0.00819050706923008,0.008521596901118755,passive,1
2.5606,rehab,safe_near_limit_slow,-1.1698779822717984,80.49044240819346,27.87110432539836,83.87973143322633,-23.709013197157116,-88.97215949164496,0.0014,-4.5553,-1.7254,-0.0015,-2.9757,0.2014,-39.73252504145644,-4.363686719720761,-1.6164041175024124,-2.022927797185048,3.7730947431500184,0.13340346693979654,-4.320484948967973,0.03974161533193409,0.6894002817503871,-1.0358792144060658,0.35613519488990686,-0.012377936009499988,-1.3456,-1.1222,-1.4285,0.00731,0.0006,0.02239,0.0008682070183567703,0.001180085469968617,0.0010169126326218247,0.0005454596830531955,0.0006339680403470993,0.0005986441974528134,0.009759419597685337,0.00819050706923008,0.008521596901118755,passive,1
2.5806,rehab,safe_near_limit_slow,-1.1698320319052564,80.38711245697324,27.832509409083,83.83244127330214,-23.618859185112846,-88.96904839409721,0.0015,-4.5567,-1.693,-0.0025,-0.4344,1.1054,-39.83620025713423,-4.3627386651259314,-1.6056938748674199,-2.059096691521489,3.798779119786211,0.13304409296566178,-4.319273723270456,0.03968917194896448,0.3696841608391389,-1.6590691576113055,1.298704967789211,-0.01580232300569107,-1.2965,-1.1492,-1.1507,0.00297,0.0016,0.0212,0.0008682070183567703,0.001180085469968617,0.0010169126326218247,0.0005454596830531955,0.0006339680403470993,0.0005986441974528134,0.009759419597685337,0.00819050706923008,0.008521596901118755,passive,1
2.6007,rehab,safe_near_limit_slow,-1.1698360047842116,80.29919463809173,27.802174634272507,83.79286057878248,-23.543548583984375,-88.96642049153645,0.001,-4.472,-1.6298,-0.0013,2.3121,1.7439,-39.922574137907525,-4.361914081968621,-1.5938057335196376,-2.083734743596466,3.8117179520620326,0.13277482267781693,-4.318323864504592,0.04182596580200411,0.6363303379775328,-1.1535864166134853,0.5266955136471709,-0.01304105357036178,-1.2976,-1.2401,-1.5321,-0.0008,-0.01969,0.01919,0.0008682070183567703,0.001180085469968617,0.0010169126326218247,0.0005454596830531955,0.0006339680403470993,0.0005986441974528134,0.009759419597685337,0.00819050706923008,0.008521596901118755,passive,1
2.6208,rehab,safe_near_limit_slow,-1.1697725545668107,80.19352601306274,27.76678179750348,83.74441467889464,-23.452343410915798,-88.96313137478299,0.0006,-4.4492,-1.5991,-0.003,3.8747,1.815,-40.02619578582897,-4.360924654317699,-1.5858523812486425,-2.1257147367386153,3.8459655953522187,0.13238411696647745,-4.316975309553328,0.040820198776643925,0.11491053752978413,-2.1764127904333113,2.0705269669907924,-0.01858312081992608,-1.07,-1.3123,-0.8848,0.01296,-0.0121,0.01221,0.0008682070183567703,0.001180085469968617,0.0010169126326218247,0.0005454596830531955,0.0006339680403470993,0.0005986441974528134,0.009759419597685337,0.00819050706923008,0.008521596901118755,passive,1
2.6405,rehab,safe_near_limit_slow,-1.1697411565075069,80.12346097738435,27.74114476572169,83.71093221230082,-23.391003078884548,-88.96099514431424,0.0006,-4.3947,-1.5789,-0.005,4.4674,1.68,-40.09525656097063,-4.360275201666042,-1.586637421278958,-2.1658173460608054,3.886995664102777,0.13205880112465707,-4.315883428782641,0.040883919360938124,-0.053621748818972574,-2.5238869847399314,2.586371802948537,-0.02039822355471144,-1.366,-1.289,-1.3217,0.00819,0.00489,0.02311,0.0008682070183567703,0.001180085469968617,0.0010169126326218247,0.0005454596830531955,0.0006339680403470993,0.0005986441974528134,0.009759419597685337,0.00819050706923008,0.008521596901118755,passive,1
2.6604,rehab,safe_near_limit_slow,-1.169757836445796,80.0194511791267,27.70213514271349,83.65913466651841,-23.298814561631943,-88.95779927571614,0.0007,-4.2315,-1.5361,-0.0019,3.2208,1.0944,-40.19881670049,-4.359245778719156,-1.5804862787405227,-2.2122132773496617,3.92745735617428,0.13164677219279497,-4.314424612704926,0.04435195055649074,0.47672007319478715,-1.509996653936731,1.0424205971747875,-0.014871144315975469,-1.3893,-1.3589,-1.1344,0.01064,-0.00125,0.02291,0.0008682070183567703,0.001180085469968617,0.0010169126326218247,0.0005454596830531955,0.0006339680403470993,0.0005986441974528134,0.009759419597685337,0.00819050706923008,0.008521596901118755,passive,1
2.6808,rehab,safe_near_limit_slow,-1.1697715970914349,79.95003879660428,27.675498735786665,83.62400697009399,-23.23705885145399,-88.9556376139323,0.001,-4.1172,-1.5109,0.0042,0.2102,0.069,-40.267839422883576,-4.3585135722850055,-1.5693694528744473,-2.229551132224117,3.9338269575104334,0.1314453330998333,-4.313635698215634,0.04666067354712382,0.8256049601751589,-0.827824578664114,0.01155369244714237,-0.011226730656233029,-1.434,-1.284,-0.6948,0.00561,-0.00086,0.01791,0.0008682070183567703,0.001180085469968617,0.0010169126326218247,0.0005454596830531955,0.0006339680403470993,0.0005986441974528134,0.009759419597685337,0.00819050706923008,0.008521596901118755,passive,1
2.7005,rehab,safe_near_limit_slow,-1.1697782655497064,79.87993976857402,27.649929688708617,83.5886005363842,-23.174413045247395,-88.95348442925346,0.0011,-4.1542,-1.5274,0.0075,-2.1659,-0.5337,-40.336850922863306,-4.357746545725405,-1.5532210446078665,-2.236943581138462,3.9252221962957634,0.13129645500953302,-4.312978862238026,0.04835014610897373,1.0506492125194988,-0.375533316443466,-0.6655996225289689,-0.008869574408265635,-1.3779,-1.3223,-0.6647,0.00993,-0.00338,0.01966,0.0008682070183567703,0.001180085469968617,0.0010169126326218247,0.0005454596830531955,0.0006339680403470993,0.0005986441974528134,0.009759419597685337,0.00819050706923008,0.008521596901118755,passive,1
2.7206,rehab,safe_near_limit_slow,-1.1697166175494036,79.77446829918587,27.611314376982133,83.5362455160311,-23.080096774631077,-88.95039876302083,0.0009,-4.2543,-1.5451,0.0069,-3.7695,-0.6996,-40.44034652179256,-4.356598343896678,-1.535234394840046,-2.2603022442773124,3.930815472684479,0.13100649590214175,-4.311789622228446,0.04744225190485381,0.5345423983449393,-1.402649415283008,0.8771357293824166,-0.014371409839948661,-1.3855,-1.295,-0.6484,0.00932,0.00038,0.01851,0.0008682070183567703,0.001180085469968617,0.0010169126326218247,0.0005454596830531955,0.0006339680403470993,0.0005986441974528134,0.009759419597685337,0.00819050706923008,0.008521596901118755,passive,1
2.7408,rehab,safe_near_limit_slow,-1.1696731319104101,79.70415851857402,27.58686027904548,83.50035639092474,-23.017247517903645,-88.94833034939236,0.0011,-4.3699,-1.5568,0.005,-5.0365,-0.7579,-40.50932527539539,-4.355846514087602,-1.5300957322796904,-2.2896454334819794,3.9551619559459184,0.13074021874004416,-4.310780282217763,0.04664924801993279,0.19306371767946473,-2.092498520234152,1.9082581668161018,-0.01799880511299534,-1.3586,-1.4626,-0.9771,0.01627,-0.00394,0.01927,0.0008682070183567703,0.001180085469968617,0.0010169126326218247,0.0005454596830531955,0.0006339680403470993,0.0005986441974528134,0.009759419597685337,0.00819050706923008,0.008521596901118755,passive,1
2.7609,rehab,safe_near_limit_slow,-1.1696161849823479,79.59921053140471,27.54991059256072,83.44687282448947,-22.922880384657116,-88.94515143500433,0.0013,-4.5613,-1.5989,0.0028,-4.4974,-0.3864,-40.61275910604246,-4.354735659784836,-1.5317155021747908,-2.352908673248777,4.020249949422627,0.13024112642767705,-4.308963721552317,0.04647676110636212,-0.1387551895604485,-2.795076940564911,2.9422747518381693,-0.021575960573723456,-1.4015,-1.3736,-1.2991,0.00798,-0.01342,0.02683,0.0008682070183567703,0.001180085469968617,0.0010169126326218247,0.0005454596830531955,0.0006339680403470993,0.0005986441974528134,0.009759419597685337,0.00819050706923008,0.008521596901118755,passive,1
2.7804,rehab,safe_near_limit_slow,-1.1696253963786496,79.52942423301168,27.52556527015006,83.41060298504216,-22.85962422688802,-88.94300672743056,0.0015,-4.6678,-1.6179,0.0025,-1.8376,0.4097,-40.6816907049626,-4.353969397758561,-1.530448493011427,-2.3908050959953187,4.057016743666431,0.12993238534875218,-4.307800556192731,0.04864240565886817,0.2087056265587426,-2.1107599943448814,1.9107915771864774,-0.01793027948338433,-1.5994,-1.483,-1.3244,-0.00626,0.00112,0.02551,0.0008682070183567703,0.001180085469968617,0.0010169126326218247,0.0005454596830531955,0.0006339680403470993,0.0005986441974528134,0.009759419597685337,0.00819050706923008,0.008521596901118755,passive,1
2.8005,rehab,safe_near_limit_slow,-1.16964495084256,79.40728971273592,27.482619332795096,83.34533087097772,-22.747684054904514,-88.93935309516058,0.0014,-4.5782,-1.5666,0.0032,1.6028,1.2037,-40.802281180438214,-4.352539484298035,-1.5149387005983783,-2.4306757799159584,4.081625233075314,0.12953120817016384,-4.306119130001562,0.05283005943809512,0.8106751983039118,-0.9058906575987883,0.1041827835112538,-0.011639791352986756,-1.6166,-1.5517,-1.2904,-0.01146,0.0006,0.02349,0.0008682070183567703,0.001180085469968617,0.0010169126326218247,0.0005454596830531955,0.0006339680403470993,0.0005986441974528134,0.009759419597685337,0.00819050706923008,0.008521596901118755,passive,1
2.8208,rehab,safe_near_limit_slow,-1.1696231583387804,79.33748301893178,27.458688717077273,83.30630765102877,-22.682986789279514,-88.93730163574219,0.0014,-4.5421,-1.5403,-0.0004,4.1767,1.5942,-40.871170734105576,-4.3516858384542445,-1.5017515156330319,-2.4446980739227797,4.082603997857426,0.12934705383216283,-4.305267900134524,0.053235630126309975,0.7186654094048885,-1.093746199387589,0.3839394735472012,-0.012642034974423512,-1.5038,-1.5259,-1.068,-0.00716,-0.00408,0.01926,0.0008682070183567703,0.001180085469968617,0.0010169126326218247,0.0005454596830531955,0.0006339680403470993,0.0005986441974528134,0.009759419597685337,0.00819050706923008,0.008521596901118755,passive,1
2.8403,rehab,safe_near_limit_slow,-1.1695560642944176,79.23269819505144,27.423805765586323,83.24767764252012,-22.584762573242188,-88.93422444661458,0.0013,-4.4314,-1.5021,-0.0052,5.3229,1.5737,-40.97447568729474,-4.350423291633376,-1.4915579689587233,-2.485592296228134,4.113511799753056,0.12896836806675083,-4.303679637507329,0.052209763623593385,0.2164222689948582,-2.1420359468394063,1.9340459247452197,-0.018009195024153105,-1.4442,-1.4593,-1.5648,0.00915,-0.00131,0.02729,0.0008682070183567703,0.001180085469968617,0.0010169126326218247,0.0005454596830531955,0.0006339680403470993,0.0005986441974528134,0.009759419597685337,0.00819050706923008,0.008521596901118755,passive,1
2.8606,rehab,safe_near_limit_slow,-1.1695082442106546,79.16236801902846,27.400296655031713,83.20849125928218,-22.519336276584202,-88.93218994140625,0.0012,-4.2407,-1.4485,-0.0068,5.2726,1.2727,-41.04332202110204,-4.349595752231039,-1.4914064142974581,-2.526900513302621,4.154801131043051,0.12864485963959282,-4.302403539753641,0.05152424797934359,-0.1134526930180078,-2.8474160593816227,2.969014074149935,-0.021542826189602234,-1.5915,-1.4306,-0.9862,-0.00133,0.00337,0.02601,0.0008682070183567703,0.001180085469968617,0.0010169126326218247,0.0005454596830531955,0.0006339680403470993,0.0005986441974528134,0.009759419597685337,0.00819050706923008,0.008521596901118755,passive,1
2.8806,rehab,safe_near_limit_slow,-1.1694602680620212,79.05667899858834,27.36461828250696,83.14935136549543,-22.42071363661024,-88.92913818359375,0.0014,-4.1313,-1.4293,-0.0056,3.7908,0.6067,-41.14654943473749,-4.348365140824484,-1.4988573120273685,-2.6057209356089572,4.24126403813041,0.12807691078009498,-4.300224730636515,0.051989721860934424,-0.2663565585869952,-3.214990335287382,3.489298384673423,-0.023229589807276185,-1.6384,-1.5201,-0.917,-0.00152,0.00022,0.02103,0.0008682070183567703,0.001180085469968617,0.0010169126326218247,0.0005454596830531955,0.0006339680403470993,0.0005986441974528134,0.009759419597685337,0.00819050706923008,0.008521596901118755,passive,1
2.9007,rehab,safe_near_limit_slow,-1.1694665262496724,78.98706946042505,27.340667271378017,83.108812086653,-22.354583740234375,-88.92707824707031,0.0011,-4.0813,-1.4323,-0.0018,1.2674,-0.2378,-41.21533933696773,-4.347511360336398,-1.4996930185864343,-2.650253734298502,4.28676236045078,0.1277412519726795,-4.298874190141078,0.054266755533731025,0.07637505383687647,-2.5246050858740783,2.456376010151473,-0.01963314932851701,-1.5631,-1.5494,-1.1707,-0.00334,-0.00051,0.02148,0.0008682070183567703,0.001180085469968617,0.0010169126326218247,0.0005454596830531955,0.0006339680403470993,0.0005986441974528134,0.009759419597685337,0.00819050706923008,0.008521596901118755,passive,1
2.9205,rehab,safe_near_limit_slow,-1.1694755914878785,78.9186156622254,27.315784869807782,83.06867391756265,-22.287334865993923,-88.92505221896701,0.0007,-4.1762,-1.4798,0.0037,-2.009,-1.0807,-41.28410910180442,-4.346620497511111,-1.4950802074169545,-2.683695439539946,4.315724040226954,0.1274627468497158,-4.297671203866926,0.05638275712982476,0.41386451354872744,-1.827057102055072,1.4216690282786713,-0.0160721853603718,-1.5818,-1.5968,-1.3922,-0.0077,-0.00589,0.02101,0.0008682070183567703,0.001180085469968617,0.0010169126326218247,0.0005454596830531955,0.0006339680403470993,0.0005986441974528134,0.009759419597685337,0.00819050706923008,0.008521596901118755,passive,1
2.9405,rehab,safe_near_limit_slow,-1.1694771605615422,78.81690374695428,27.27861763227104,83.00551612778466,-22.184804280598957,-88.92191569010417,0.0009,-4.1851,-1.4829,0.0076,-4.5331,-1.4917,-41.38723107691956,-4.345218838281539,-1.4788652481891873,-2.714511622667004,4.330529793335813,0.12714270144087436,-4.29612162758275,0.059263000728933674,0.7503988403989581,-1.1284536398648015,0.3865689335302188,-0.012560456674748364,-1.5842,-1.6494,-1.5746,-0.0086,-0.00614,0.0214,0.0008682070183567703,0.001180085469968617,0.0010169126326218247,0.0005454596830531955,0.0006339680403470993,0.0005986441974528134,0.009759419597685337,0.00819050706923008,0.008521596901118755,passive,1
2.9609,rehab,safe_near_limit_slow,-1.1694325812709936,78.74828678546565,27.25371483528968,82.96243422102219,-22.115902370876736,-88.91984727647569,0.0012,-4.241,-1.4941,0.0087,-4.7322,-1.0951,-41.45595809069527,-4.344278060006701,-1.4701488058594947,-2.739631257551167,4.3470670329854855,0.1269065070843567,-4.2950075449681435,0.05832355931545408,0.42046481629753885,-1.8333052027585597,1.4212534356073494,-0.016074912956294592,-1.7416,-1.5086,-1.4005,-0.00105,0.00988,0.02846,0.0008682070183567703,0.001180085469968617,0.0010169126326218247,0.0005454596830531955,0.0006339680403470993,0.0005986441974528134,0.009759419597685337,0.00819050706923008,0.008521596901118755,passive,1
2.9808,rehab,safe_near_limit_slow,-1.1693725891760618,78.6432912090037,27.21762175607209,82.89661822932781,-22.012040879991318,-88.91685485839844,0.0016,-4.4027,-1.5382,0.0109,-3.6776,-0.3834,-41.55901114005706,-4.342883842859635,-1.466048819592558,-2.79702290512418,4.400551315325352,0.12645579268877327,-4.293031442594852,0.05828959981357684,0.10223415203290305,-2.553901925494913,2.4595784484658725,-0.019533831441265193,-1.5899,-1.4933,-0.5156,-0.00524,-0.01353,0.02172,0.0008682070183567703,0.001180085469968617,0.0010169126326218247,0.0005454596830531955,0.0006339680403470993,0.0005986441974528134,0.009759419597685337,0.00819050706923008,0.008521596901118755,passive,1
3.0009,rehab,safe_near_limit_slow,-1.1693791588665237,78.57323977026608,27.193922288347,82.85304683269841,-21.942367553710938,-88.9148457845052,0.002,-4.587,-1.5772,0.0236,-1.7804,0.4674,-41.62768674983296,-4.341929649076093,-1.4611854054589202,-2.8310983927646305,4.429892790121848,0.12617726794417194,-4.2917599626584035,0.06012301057012337,0.40629730513330736,-1.907193791339488,1.5092323739639872,-0.016307618366799507,-1.5423,-1.5691,-1.4486,0.00248,-0.00044,0.02273,0.0008682070183567703,0.001180085469968617,0.0010169126326218247,0.0005454596830531955,0.0006339680403470993,0.0005986441974528134,0.009759419597685337,0.00819050706923008,0.008521596901118755,passive,1
3.0204,rehab,safe_near_limit_slow,-1.1692932113920174,78.45072453564937,27.152737154818997,82.77553067348971,-21.819474962022568,-88.91129387749565,0.0022,-4.6184,-1.5584,0.0237,0.0979,1.108,-41.7478183714261,-4.340253263833915,-1.457955766348995,-2.903035887268146,4.498820275308901,0.12563219470251852,-4.289329979275891,0.059414344555434435,-0.1227350283628322,-3.110512905912799,3.2408384686989566,-0.02203655125043724,-1.5495,-1.5323,-1.5682,0.00344,0.00501,0.02179,0.0008682070183567703,0.001180085469968617,0.0010169126326218247,0.0005454596830531955,0.0006339680403470993,0.0005986441974528134,0.009759419597685337,0.00819050706923008,0.008521596901118755,passive,1
3.0404,rehab,safe_near_limit_slow,-1.169268095064826,78.39883860975209,27.1351155196086,82.74147713538444,-21.76641676161024,-88.90975952148438,0.0019,-4.4306,-1.4728,-0.0215,1.6059,1.4815,-41.799280889749134,-4.3395428904347,-1.460571593489668,-2.9430296794181743,4.54152093520932,0.12535550247605443,-4.288149066566049,0.05958245452589353,-0.19643336557351176,-3.2977301138715016,3.501661031579607,-0.02284559919019102,-1.5887,-1.569,-1.3292,-0.00295,-0.01124,0.0244,0.0008682070183567703,0.001180085469968617,0.0010169126326218247,0.0005454596830531955,0.0006339680403470993,0.0005986441974528134,0.009759419597685337,0.00819050706923008,0.008521596901118755,passive,1
3.0607,rehab,safe_near_limit_slow,-1.1692487447873772,78.27947786538908,27.09435189124381,82.66113961097038,-21.641277737087673,-88.90623304578993,0.002,-4.3456,-1.4316,-0.0924,3.4563,1.8835,-41.91930782280378,-4.337820143902604,-1.4587924439437572,-3.0202101909857504,4.617137223002388,0.12479222022676595,-4.285595991490254,0.06216731041071384,0.06261502671909742,-2.781755038760956,2.726729036783705,-0.02016283051630851,-1.6655,-1.5894,-1.2393,0.00157,-0.00213,0.02638,0.0008682070183567703,0.001180085469968617,0.0010169126326218247,0.0005454596830531955,0.0006339680403470993,0.0005986441974528134,0.009759419597685337,0.00819050706923008,0.008521596901118755,passive,1
3.0806,rehab,safe_near_limit_slow,-1.1691966023317328,78.21127561059329,27.071903342067603,82.61423016538714,-21.568383110894096,-88.9042239718967,0.0022,-4.3178,-1.4136,-0.1277,4.5948,1.8435,-41.98786175585424,-4.336834665235045,-1.4609327800174654,-3.0719720319893895,4.671159182289664,0.12443590085453593,-4.2840144241473865,0.06139812125383059,-0.24994926861587885,-3.5095330952473343,3.7667822625488045,-0.023527568338010948,-1.6798,-1.679,-1.6365,-0.0087,0.00771,0.0289,0.0008682070183567703,0.001180085469968617,0.0010169126326218247,0.0005454596830531955,0.0006339680403470993,0.0005986441974528134,0.009759419597685337,0.00819050706923008,0.008521596901118755,passive,1
3.1004,rehab,safe_near_limit_slow,-1.1691418114928516,78.10704146281327,27.03878119440362,82.54152732320351,-21.457739935980904,-88.9011722140842,0.0021,-4.2227,-1.3805,-0.0795,3.5247,0.8987,-42.09064136675311,-4.335366849598898,-1.4713618277077956,-3.167070629569224,4.776858557417718,0.12382296593926867,-4.281374061346099,0.06192717982862846,-0.389207629902764,-3.894872774523641,4.291171707748467,-0.025093847000334787,-1.8121,-1.6243,-1.9666,-0.01281,0.00915,0.0309,0.0008682070183567703,0.001180085469968617,0.0010169126326218247,0.0005454596830531955,0.0006339680403470993,0.0005986441974528134,0.009759419597685337,0.00819050706923008,0.008521596901118755,passive,1
3.1205,rehab,safe_near_limit_slow,-1.169115255920796,78.03650733267907,27.016081101823563,82.49194607876315,-21.383243136935764,-88.8991461859809,-0.0032,-4.2219,-1.3851,0.0618,0.3878,-0.705,-42.159126238927236,-4.334365172734778,-1.476300160496713,-3.226888581703946,4.841730208566375,0.12343499363254296,-4.279653011373341,0.06272673225289724,-0.37556906717917116,-3.911699933745148,4.294308499685973,-0.024994475822381897,-1.8117,-1.7664,-1.8493,-0.0165,0.00101,0.02617,0.0008682070183567703,0.001180085469968617,0.0010169126326218247,0.0005454596830531955,0.0006339680403470993,0.0005986441974528134,0.009759419597685337,0.00819050706923008,0.008521596901118755,passive,1
3.1405,rehab,safe_near_limit_slow,-1.1690589798467907,77.96558568973353,26.993102271958154,82.44139265305925,-21.307618882921005,-88.89720492892795,-0.0064,-4.2084,-1.3943,0.2958,-2.2254,-1.9778,-42.227582158737995,-4.333371353670401,-1.4853572754320865,-3.296850431457443,4.920860433611729,0.12300227140826792,-4.277778979881575,0.06192569301795388,-0.6784825379302537,-4.651906620800546,5.337137876981625,-0.02826693545898706,-1.6331,-1.7517,-1.9764,-0.00645,0.00629,0.02865,0.0008682070183567703,0.001180085469968617,0.0010169126326218247,0.0005454596830531955,0.0006339680403470993,0.0005986441974528134,0.009759419597685337,0.00819050706923008,0.008521596901118755,passive,1
3.1603,rehab,safe_near_limit_slow,-1.1689836251640895,77.86014141422687,26.95728113155554,82.3654333435663,-21.192152235243054,-88.89433966742621,0.0004,-4.1661,-1.4135,0.5822,-3.18,-2.4773,-42.33020567460696,-4.331896821966552,-1.507142628347502,-3.4225119665656223,5.068465038306158,0.12226380643198809,-4.274657135132642,0.06161578802725458,-0.9644751299830824,-5.413751829053055,6.384646076495959,-0.03140790472145183,-1.6768,-1.8899,-2.0407,-0.02355,0.00261,0.02385,0.0008682070183567703,0.001180085469968617,0.0010169126326218247,0.0005454596830531955,0.0006339680403470993,0.0005986441974528134,0.009759419597685337,0.00819050706923008,0.008521596901118755,passive,1
3.1806,rehab,safe_near_limit_slow,-1.1689664426838267,77.79001519231512,26.933296128074723,82.31353382072827,-21.113255818684895,-88.89236450195312,0.0181,-4.2697,-1.4927,0.8903,-3.7436,-2.641,-42.39857956701464,-4.330893574977068,-1.5199562197816263,-3.5038199469603626,5.162692750761089,0.12178879030599887,-4.27260199306545,0.06310920497284796,-0.785978049533433,-5.0771611554978335,5.869632985211546,-0.029548840707605,-1.5521,-1.7736,-2.0675,0.00091,0.01168,0.0259,0.0008682070183567703,0.001180085469968617,0.0010169126326218247,0.0005454596830531955,0.0006339680403470993,0.0005986441974528134,0.009759419597685337,0.00819050706923008,0.008521596901118755,passive,1
3.2008,rehab,safe_near_limit_slow,-1.1688740867043381,77.68612776652421,26.896373635471456,82.23219692116916,-20.992372300889755,-88.8893551296658,0.0422,-4.4624,-1.5922,1.193,-3.4608,-2.3769,-42.50107624209076,-4.329393232680445,-1.544924844862905,-3.6415518701069516,5.325544473618216,0.12101277302534186,-4.2692791726643975,0.062076384033105114,-1.2204080908073502,-6.213511446695462,7.439952855570198,-0.03429402717359109,-1.6353,-1.9449,-1.6976,-0.0002,-0.00113,0.02663,0.0008682070183567703,0.001180085469968617,0.0010169126326218247,0.0005454596830531955,0.0006339680403470993,0.0005986441974528134,0.009759419597685337,0.00819050706923008,0.008521596901118755,passive,1
3.2204,rehab,safe_near_limit_slow,-1.1687650534754357,77.61688534576113,26.871946731416305,82.17553846906907,-20.910051133897568,-88.88736300998264,0.0696,-4.6176,-1.6618,1.3428,-2.1572,-1.6202,-42.569360747788615,-4.328274767704698,-1.5639125258894992,-3.7410387726133365,5.444103696663483,0.12046496930295802,-4.266826348027664,0.09203228401581569,-1.0596155926023698,-6.007034548893912,7.069900225031779,-0.03362512757121705,-1.4157,-1.7254,-1.3535,0.00468,0.00102,0.02159,0.0008682070183567703,0.001180085469968617,0.0010169126326218247,0.0005454596830531955,0.0006339680403470993,0.0005986441974528134,0.009759419597685337,0.00819050706923008,0.008521596901118755,passive,1
3.2403,rehab,safe_near_limit_slow,-1.1660934022227185,77.51379334100402,26.833848103438275,82.08827330334351,-20.782987806532116,-88.88448079427083,0.0992,-4.5443,-1.6428,1.2476,-0.0466,-0.4806,-42.671579152800795,-4.313626322776543,-1.582675890291263,-3.8697897199568843,5.59133601671391,0.1193370335990096,-4.250522776226617,0.9995899823422155,-0.5815119441532169,-4.908556628713185,5.4660181048049585,-0.057054474034141975,-1.4701,-1.8464,-2.1728,0.01169,0.01096,0.02164,0.0008682070183567703,0.001180085469968617,0.0010169126326218247,0.0005454596830531955,0.0006339680403470993,0.0005986441974528134,0.009759419597685337,0.00819050706923008,0.008521596901118755,passive,1
3.2607,rehab,safe_near_limit_slow,-1.163571040726317,77.42791506323483,26.80211284373066,82.01424475943688,-20.674175686306423,-88.88202243381076,0.1236,-4.4611,-1.6142,1.0092,3.5318,1.0482,-42.75624928868767,-4.284278625558358,-1.589469556001255,-3.9570771404378036,5.684629089948601,0.11795548237714115,-4.220125595074009,1.7783856458564877,-0.18535032109134875,-3.991229249322644,4.1273268363008135,-0.07706947346974856,-1.5026,-1.8175,-1.8364,0.01265,-0.00104,0.02135,0.0008682070183567703,0.001180085469968617,0.0010169126326218247,0.0005454596830531955,0.0006339680403470993,0.0005986441974528134,0.009759419597685337,0.00819050706923008,0.008521596901118755,passive,1
3.2805,rehab,safe_near_limit_slow,-1.1602715309279772,77.32349735675471,26.764598884204826,81.92272375125697,-20.540440877278645,-88.879148695204,0.1446,-4.3993,-1.5961,0.7763,6.3989,1.9734,-42.85678242315067,-4.228524934237754,-1.5874625314999946,-4.0371775970804435,5.761112117106393,0.11577175529708938,-4.163511761150929,2.711474165195682,0.26972777678047066,-2.861714372137669,2.5123567732876495,-0.10090121893568536,-1.5625,-1.843,-1.4476,-0.00044,0.00073,0.02148,0.0008682070183567703,0.001180085469968617,0.0010169126326218247,0.0005454596830531955,0.0006339680403470993,0.0005986441974528134,0.009759419597685337,0.00819050706923008,0.008521596901118755,passive,1
3.3005,rehab,safe_near_limit_slow,-1.157906818127768,77.25357508895421,26.739709684164218,81.85864816797842,-20.449905395507812,-88.87728373209636,0.1567,-4.2461,-1.5481,0.5878,7.0028,1.8325,-42.92291146197402,-4.1789242773049295,-1.580194637440968,-4.07532398122612,5.790510856071407,0.11399940583345369,-4.113579830079317,3.332641504982943,0.5606933606294541,-2.0912299421026868,1.4305777065180894,-0.11668201871373182,-1.4787,-1.8015,-1.4593,0.00679,0.00341,0.02,0.0008682070183567703,0.001180085469968617,0.0010169126326218247,0.0005454596830531955,0.0006339680403470993,0.0005986441974528134,0.009759419597685337,0.00819050706923008,0.008521596901118755,passive,1
3.3206,rehab,safe_near_limit_slow,-1.154112663955122,77.15090458936031,26.703113518138924,81.7614232431544,-20.312076144748264,-88.87452019585503,0.1605,-4.1029,-1.5081,0.4707,5.9686,1.0963,-43.02037590055898,-4.085908340574207,-1.5608208102069199,-4.109066136678052,5.802050032802875,0.11086937911386485,-4.020433532277323,4.263061310183431,0.978562344267093,-0.9094933322017347,-0.19963067909856133,-0.14020414251803415,-1.3715,-1.9321,-1.5904,0.01081,-0.00621,0.02019,0.0008682070183567703,0.001180085469968617,0.0010169126326218247,0.0005454596830531955,0.0006339680403470993,0.0005986441974528134,0.009759419597685337,0.00819050706923008,0.008521596901118755,passive,1
3.3406,rehab,safe_near_limit_slow,-1.1514183494850747,77.08464669709159,26.67812913951307,81.6959811673306,-20.219497680664062,-88.87267218695746,0.1625,-3.9137,-1.4614,0.462,4.0437,0.1789,-43.083972497299506,-4.011501600263756,-1.5424695685695156,-4.115614726277528,5.787952241142591,0.10847012455883487,-3.9461845243433658,4.882570148190268,1.2455771001285145,-0.10565382257979508,-1.290964200650693,-0.15579864331982662,-1.4787,-1.7925,-1.5767,0.0113,-0.00372,0.02368,0.0008682070183567703,0.001180085469968617,0.0010169126326218247,0.0005454596830531955,0.0006339680403470993,0.0005986441974528134,0.009759419597685337,0.00819050706923008,0.008521596901118755,passive,1
3.3607,rehab,safe_near_limit_slow,-1.1485908680011179,77.0193337922049,26.653185551709466,81.6309945890219,-20.12663099500868,-88.87086656358507,0.1717,-3.8057,-1.46,0.535,2.5145,-0.4135,-43.146284041087284,-3.9271916326839573,-1.519956071872386,-4.109146741928527,5.756347712285503,0.10582214133236789,-3.8622290919771984,5.501777848415727,1.505497626785903,0.7077242223375172,-2.385123839765413,-0.1713121005053608,-1.549,-1.9822,-1.8444,-0.0065,-0.00763,0.02093,0.0008682070183567703,0.001180085469968617,0.0010169126326218247,0.0005454596830531955,0.0006339680403470993,0.0005986441974528134,0.009759419597685337,0.00819050706923008,0.008521596901118755,passive,1
3.3809,rehab,safe_near_limit_slow,-1.144108195483702,76.92323741346303,26.615739576887375,81.53287906457882,-19.987267388237846,-88.86823866102431,0.1912,-3.8961,-1.5346,0.6453,1.7299,-0.6004,-43.2370024290778,-3.7821810638263287,-1.4787080854556933,-4.074586977168337,5.6759895248790215,0.10138590785402357,-3.718121350843262,6.428153664472767,1.8700437069974105,1.9639636521518604,-4.036431792364681,-0.19449015553618665,-1.5267,-1.8692,-1.2609,0.00415,0.01078,0.02005,0.0008682070183567703,0.001180085469968617,0.0010169126326218247,0.0005454596830531955,0.0006339680403470993,0.0005986441974528134,0.009759419597685337,0.00819050706923008,0.008521596901118755,passive,1
3.4004,rehab,safe_near_limit_slow,-1.1409527250145344,76.86068468754834,26.59141464988784,81.46689311112507,-19.895129733615452,-88.86659410264757,0.2052,-3.8691,-1.5465,0.7113,1.7861,-0.3281,-43.2954227432739,-3.673157781072689,-1.4464309734600889,-4.034690468614599,5.60036996641422,0.09812025605882013,-3.6099478855788902,7.045666867710985,2.106599981788193,2.809700547778889,-5.139601709558406,-0.20986582072168855,-1.4543,-1.8454,-1.063,0.00504,-0.00585,0.01992,0.0008682070183567703,0.001180085469968617,0.0010169126326218247,0.0005454596830531955,0.0006339680403470993,0.0005986441974528134,0.009759419597685337,0.00819050706923008,0.008521596901118755,passive,1
3.4208,rehab,safe_near_limit_slow,-1.1359769701556524,76.76971435546875,26.554410575640084,81.36850564786704,-19.75830078125,-88.86411878797743,0.2213,-3.8602,-1.5503,0.696,3.0868,0.5748,-43.37957836468863,-3.491122219799081,-1.3911892436686557,-3.949091464395593,5.453741151375979,0.09276132760405176,-3.4295611271399906,7.969966271836916,2.440032885964154,4.1085475803727425,-6.802638290892822,-0.23286459693849793,-1.5325,-1.9399,-1.0572,-0.00486,-0.00052,0.01547,0.0008682070183567703,0.001180085469968617,0.0010169126326218247,0.0005454596830531955,0.0006339680403470993,0.0005986441974528134,0.009759419597685337,0.00819050706923008,0.008521596901118755,passive,1
3.4403,rehab,safe_near_limit_slow,-1.1324933626675528,76.71084640049698,26.530330393574026,81.30435528141437,-19.66836717393663,-88.862550523546,0.2367,-3.8408,-1.5431,4.0852,5.448,1.8793,-43.433140122982884,-3.3574434095591243,-1.349991663213146,-3.8746090549466317,5.333788442692722,0.08888264019191183,-3.2972315113539707,8.586091387208228,2.6564467454637604,4.981873201970188,-7.913287953131907,-0.2481467484827249,-1.3028,-1.7501,-0.924,0.02099,0.00428,0.01292,0.0008682070183567703,0.001180085469968617,0.0010169126326218247,0.0005454596830531955,0.0006339680403470993,0.0005986441974528134,0.009759419597685337,0.00819050706923008,0.008521596901118755,passive,1
3.4606,rehab,safe_near_limit_slow,-1.126084288023029,76.61191505960899,26.48977751779084,81.19392092865293,-19.51525370279948,-88.85994805230034,0.2459,-3.5983,-1.4547,8.2772,8.7464,3.4154,-43.52145350928345,-3.0998119250149614,-1.2698742881207536,-3.7102078838806563,5.080995258351706,0.08150713120258501,-3.042444844972181,9.662391417641913,3.0133139854449276,6.5407570293274375,-9.865121620267269,-0.27485007070282563,-1.2878,-1.8095,-1.0637,0.00803,0.00793,0.01333,0.0008682070183567703,0.001180085469968617,0.0010169126326218247,0.0005454596830531955,0.0006339680403470993,0.0005986441974528134,0.009759419597685337,0.00819050706923008,0.008521596901118755,passive,1
3.4807,rehab,safe_near_limit_slow,-1.1222401099281487,76.55744571496945,26.468804236685877,81.13134780732712,-19.430313110351562,-88.85854085286458,0.2508,-3.3808,-1.3731,-10.5971,11.2961,4.4085,-43.5685562207078,-2.9390641751838587,-1.2196718066279644,-3.5965853084007904,4.911985034009803,0.07695709186350541,-2.883599545276283,10.277190517271606,3.210888315896554,7.439767444772372,-10.982467599785071,-0.2900956275198041,-1.2423,-1.8651,-1.5736,0.00712,-0.00198,0.0168,0.0008682070183567703,0.001180085469968617,0.0010169126326218247,0.0005454596830531955,0.0006339680403470993,0.0005986441974528134,0.009759419597685337,0.00819050706923008,0.008521596901118755,passive,1
3.5008,rehab,safe_near_limit_slow,-1.1162270196858433,76.4808473492613,26.43824511235303,81.04056103394763,-19.306810167100693,-88.85655721028645,0.2551,-3.1289,-1.2727,-46.1997,12.7534,4.8373,-43.63421619583641,-2.6795067718659027,-1.138567142856317,-3.3990107706998174,4.6249056996670035,0.06967468445751024,-2.6272750333511397,11.198840519810496,3.498028284365517,8.80061969876774,-12.661605278685494,-0.3129651640065845,-1.1713,-1.859,-1.2724,0.01037,-0.00761,0.00738,0.0008682070183567703,0.001180085469968617,0.0010169126326218247,0.0005454596830531955,0.0006339680403470993,0.0005986441974528134,0.009759419597685337,0.00819050706923008,0.008521596901118755,passive,1
3.5208,rehab,safe_near_limit_slow,-1.1120530621042755,76.43288414077003,26.41864512226369,80.98262446941716,-19.227752685546875,-88.85531107584636,0.2595,-2.8655,-1.168,-46.0894,13.3913,4.9325,-43.67443545820243,-2.4941811758765198,-1.080714948838768,-3.2490911661184896,4.411118277277026,0.06451460781420337,-2.444357629226346,11.813148704575838,3.685437507616758,9.71296650753569,-13.782129465900116,-0.3282330052201152,-1.2967,-1.8755,-0.9204,-0.00711,0.00833,0.00683,0.0008682070183567703,0.001180085469968617,0.0010169126326218247,0.0005454596830531955,0.0006339680403470993,0.0005986441974528134,0.009759419597685337,0.00819050706923008,0.008521596901118755,passive,1
3.5408,rehab,safe_near_limit_slow,-1.10554412566347,76.36660585309019,26.390676215143486,80.89985309260906,-19.115142822265625,-88.85363260904948,0.266,-2.5861,-1.0694,2.6777,12.9604,4.5596,-43.72904823956401,-2.1977659667840044,-0.9883786544726547,-2.996758901819163,4.056803840634338,0.056315848937060764,-2.151935089267809,12.734495191679684,3.962105918020597,11.087076258853266,-15.464036727807983,-0.35118583241455775,-1.2402,-1.8043,-1.2507,-0.00685,0.01562,0.01525,0.0008682070183567703,0.001180085469968617,0.0010169126326218247,0.0005454596830531955,0.0006339680403470993,0.0005986441974528134,0.009759419597685337,0.00819050706923008,0.008521596901118755,passive,1
3.5604,rehab,safe_near_limit_slow,-1.1010387529230778,76.3255770843808,26.37311576616646,80.8476204447227,-19.044206407335068,-88.85259840223524,-1.4516,-2.3275,-0.985,71.2023,12.3101,3.9879,-43.761421425818796,-1.9878693986150608,-0.9231418829935834,-2.8102084026571106,3.7981709179950585,0.050543386389989564,-1.94495380957882,13.348887192066137,4.145823241374913,12.003653438341606,-16.585067396768235,-0.3665426442367447,-1.1371,-1.889,-1.577,-0.02298,0.01106,0.0059,0.0008682070183567703,0.001180085469968617,0.0010169126326218247,0.0005454596830531955,0.0006339680403470993,0.0005986441974528134,0.009759419597685337,0.00819050706923008,0.008521596901118755,passive,1
3.5806,rehab,safe_near_limit_slow,-1.096400322906365,76.28796114779935,26.357322919486773,80.79751571806351,-18.976703219943577,-88.85164048936632,-3.9232,-2.0948,-0.916,146.8963,12.3323,3.5133,-43.79038662932286,-1.7681412006886887,-0.8549654694585129,-2.6089960776367604,3.5216051410200677,0.044524694366998574,-1.7283439135340473,13.963459719157354,4.329911784006776,12.919366805697052,-17.70557765912173,-0.3819533915816464,-1.0742,-1.9024,-2.0402,-0.0133,0.00698,0.0111,0.0008682070183567703,0.001180085469968617,0.0010169126326218247,0.0005454596830531955,0.0006339680403470993,0.0005986441974528134,0.009759419597685337,0.00819050706923008,0.008521596901118755,passive,1
3.6005,rehab,safe_near_limit_slow,-1.0891920560988189,76.2374485129177,26.335649395933245,80.72789258295947,-18.88281080457899,-88.85033501519096,0.6429,-1.8732,-0.8501,208.413,12.8897,3.294,-43.82710735014782,-1.4201040490711136,-0.7471339765006135,-2.2797769115321387,3.073168575973284,0.03503271337024216,-1.3853646372066208,14.885983379286928,4.610089568535249,14.286559952836411,-19.383950245810407,-0.40520105226704467,-1.059,-1.943,-2.4019,-0.01285,-0.00254,0.01357,0.0008682070183567703,0.001180085469968617,0.0010169126326218247,0.0005454596830531955,0.0006339680403470993,0.0005986441974528134,0.009759419597685337,0.00819050706923008,0.008521596901118755,passive,1
