t,trajectory_type,trajectory_variant,x,y,z,rx,ry,rz,vx,vy,vz,ax,ay,az,j1,j2,j3,j4,j5,j6,dj1,dj2,dj3,dj4,dj5,dj6,fx,fy,fz,tx,ty,tz,Mx,My,Mz,Bx,By,Bz,Kx,Ky,Kz,mode,comfort
0.0006,rehab,medium,80.22332934307238,-666.6333240068847,262.4827157972215,-177.38938999770494,0.13296469329061036,-149.98537639983726,1.0239,0.1473,-0.8497,-38.5318,-6.0489,34.3629,84.42630805591546,30.033840519366876,85.85563886283647,-27.966300116644966,-89.09212748209636,-35.68875630696615,-0.0,0.05441495687654703,0.019620385500464108,-0.030348036024305556,-0.0,-0.0,2.7607,0.858,2.6099,0.00127,-0.0061,-0.06197,0.0009338908712379634,0.0010000265901908278,0.0008836952620185912,0.0006038934807293117,0.0004982045502401888,0.0004169631574768573,0.008648098446428776,0.011091460473835468,0.011656949296593666,passive,0
0.0209,rehab,medium,80.22305364501729,-666.633265675406,262.4829575620662,-177.38937041212205,0.13297151306717012,-149.98540283013034,0.6206,0.0863,-0.5237,-34.8209,-5.1611,29.8616,84.42628086203396,30.03381332548538,85.85564566130685,-27.96629163953993,-89.09211052788628,-35.68875630696615,-0.05441495687654703,-0.0,0.0017540053565903465,0.040283203125,-0.0,-0.0,2.8445,0.7854,2.3983,0.00259,-0.01829,-0.06307,0.0009338908712379634,0.0010000265901908278,0.0008836952620185912,0.0006038934807293117,0.0004982045502401888,0.0004169631574768573,0.008648098446428776,0.011091460473835468,0.011656949296593666,passive,0
0.0406,rehab,medium,80.2223400521,-666.6333594385326,262.4835645505507,-177.389312436805,0.13293076680712992,-149.9854810907388,-0.1106,-0.0171,0.0695,-27.5434,-3.4235,21.6478,84.42621967580058,30.033772534663132,85.8556320643661,-27.96630859375,-89.09211052788628,-35.68873935275607,-0.05441495687654703,-0.0,0.01838306389232673,0.0196075439453125,-0.0,0.06785074869791667,2.8937,0.834,2.2681,0.01714,-0.01239,-0.05517,0.0009338908712379634,0.0010000265901908278,0.0008836952620185912,0.0006038934807293117,0.0004982045502401888,0.0004169631574768573,0.008648098446428776,0.011091460473835468,0.011656949296593666,passive,0
0.0608,rehab,medium,80.22163411221662,-666.6333865348084,262.48357218034647,-177.38931932946417,0.132935700391279,-149.98554217503587,-0.7454,-0.0915,0.5878,-21.3202,-1.8021,15.4371,84.42615848956721,30.03376573619276,85.85563886283647,-27.966300116644966,-89.09211052788628,-35.68873935275607,-0.0,0.05441495687654703,0.005336799243889232,-0.0217437744140625,-0.0,-0.0,2.8669,0.7443,2.2123,0.01538,-0.02162,-0.06114,0.0009338908712379634,0.0010000265901908278,0.0008836952620185912,0.0006038934807293117,0.0004982045502401888,0.0004169631574768573,0.008648098446428776,0.011091460473835468,0.011656949296593666,passive,0
0.0808,rehab,medium,80.21731303037724,-666.6335914943277,262.48606287943227,-177.38913687078158,0.13280557034516338,-149.98592431885297,-1.2328,-0.1307,0.9896,-17.0076,-0.4717,12.0194,84.42578457369663,30.033561782081527,85.85561846742536,-27.966300116644966,-89.09211052788628,-35.68873087565104,-0.05441495687654703,-0.05441495687654703,0.00651973308903156,-0.023184882269965276,0.06785074869791667,-0.0,2.6677,0.8076,1.8134,0.00351,-0.01292,-0.0562,0.0009338908712379634,0.0010000265901908278,0.0008836952620185912,0.0006038934807293117,0.0004982045502401888,0.0004169631574768573,0.008648098446428776,0.011091460473835468,0.011656949296593666,passive,0
0.1012,rehab,medium,80.20159292335829,-666.6344267135878,262.4969881859445,-177.38837878473095,0.13226360381108476,-149.98727348911856,-1.4508,-0.1199,1.1237,-14.0371,0.7233,11.344,84.42442487962175,30.03271197328473,85.85543490872524,-27.966198391384548,-89.09211052788628,-35.68873935275607,-0.16324487062964108,-0.10882991375309406,-0.025263115911200496,0.0032297770182291665,-0.0,-0.0,2.8176,0.9445,2.5933,0.03137,-0.02513,-0.06177,0.0009338908712379634,0.0010000265901908278,0.0008836952620185912,0.0006038934807293117,0.0004982045502401888,0.0004169631574768573,0.008648098446428776,0.011091460473835468,0.011656949296593666,passive,0
0.1209,rehab,medium,80.14088401649305,-666.640607501559,262.54911070649064,-177.38484169276597,0.12974725747158317,-149.9923941567942,-1.6342,-0.0765,1.2448,-11.2386,1.867,12.1272,84.41919685590385,30.029149574808553,85.85370129877978,-27.965240478515625,-89.09210205078125,-35.68883260091146,-0.2720815828531095,-0.16324487062964108,-0.1544612469059406,0.09284125434027778,-0.0,-0.0,2.8714,0.7567,2.6434,0.01343,-0.02619,-0.06022,0.0009338908712379634,0.0010000265901908278,0.0008836952620185912,0.0006038934807293117,0.0004982045502401888,0.0004169631574768573,0.008648098446428776,0.011091460473835468,0.011656949296593666,passive,0
0.1408,rehab,medium,80.09851399095233,-666.6446222970254,262.58455945071125,-177.3831731936845,0.12852185166447644,-149.99554015718192,-1.8475,-0.0315,1.4505,-10.7917,2.526,15.5658,84.4164230799911,30.027354778629718,85.85246397717164,-27.963909573025173,-89.09211052788628,-35.689078436957466,-0.2720815828531095,-0.16324487062964108,-0.10062416001121596,0.1255035400390625,-0.0,-0.06785074869791667,2.8124,0.8057,2.7603,0.0021,-0.01753,-0.06624,0.0009338908712379634,0.0010000265901908278,0.0008836952620185912,0.0006038934807293117,0.0004982045502401888,0.0004169631574768573,0.008648098446428776,0.011091460473835468,0.011656949296593666,passive,0
0.1609,rehab,medium,80.04508508057388,-666.6443588908338,262.62747906265025,-177.38303423029654,0.1283263632798535,-149.99676435757027,-2.1721,0.0206,1.8955,-17.2718,2.3568,25.3359,84.41088232663598,30.023438859694075,85.85007091559986,-27.958085801866318,-89.09209357367621,-35.69269816080729,-0.16324487062964108,-0.16324487062964108,-0.05786178135635829,0.281278822157118,-0.0,-0.20355224609375,2.8427,0.7667,2.8905,0.00142,-0.01726,-0.06442,0.0009338908712379634,0.0010000265901908278,0.0008836952620185912,0.0006038934807293117,0.0004982045502401888,0.0004169631574768573,0.008648098446428776,0.011091460473835468,0.011656949296593666,passive,0
0.1807,rehab,medium,80.01960409683116,-666.6406494370184,262.64761823245624,-177.38471172330742,0.12941684000230252,-149.99531898540903,-2.5024,0.0796,2.4834,-29.6297,1.6157,40.0249,84.40861843600132,30.021623668104116,85.84872481846573,-27.952821519639755,-89.09206814236111,-35.696351793077255,-0.10882991375309406,-0.10882991375309406,-0.11137254167311263,0.4274495442708333,-0.06785074869791667,-0.2714114718967014,2.7322,0.7719,3.1536,0.00945,-0.01614,-0.06488,0.0009338908712379634,0.0010000265901908278,0.0008836952620185912,0.0006038934807293117,0.0004982045502401888,0.0004169631574768573,0.008648098446428776,0.011091460473835468,0.011656949296593666,passive,0
0.2007,rehab,medium,79.99364497114681,-666.6359436182584,262.67224522520667,-177.3870737018818,0.13101552489456525,-149.992973728307,-3.0706,0.119,3.3234,-47.6331,0.6014,58.507,84.40696640770034,30.020114407681003,85.84737872133161,-27.94769287109375,-89.09203423394096,-35.69971720377604,-0.16324487062964108,-0.16324487062964108,-0.13004114132116337,0.4207526312934028,-0.0,-0.2714114718967014,2.8004,0.8327,2.8681,0.0148,-0.01384,-0.06289,0.0009338908712379634,0.0010000265901908278,0.0008836952620185912,0.0006038934807293117,0.0004982045502401888,0.0004169631574768573,0.008648098446428776,0.011091460473835468,0.011656949296593666,passive,0
0.2209,rehab,medium,79.90174169007841,-666.6335506566726,262.77204282392887,-177.38928930593497,0.13253495452303332,-149.98965748501547,-4.1304,0.1086,4.6419,-66.8811,-0.2494,76.2455,84.39819638091738,30.012302965220837,85.83986641156791,-27.928653293185764,-89.09171210394965,-35.712170071072045,-0.3809114966062036,-0.3809114966062036,-0.3266597030186417,0.7159254286024306,-0.0,-0.4749637179904514,2.7705,0.7416,3.1298,0.00043,-0.01032,-0.06428,0.0009338908712379634,0.0010000265901908278,0.0008836952620185912,0.0006038934807293117,0.0004982045502401888,0.0004169631574768573,0.008648098446428776,0.011091460473835468,0.011656949296593666,passive,0
0.2406,rehab,medium,79.82144857632413,-666.6329016942099,262.8652643226857,-177.38952959822925,0.13275824657247098,-149.9881555399574,-5.6389,0.0736,6.2959,-79.5891,-0.852,85.7011,84.39113277019841,30.005660859665067,85.83412170410156,-27.915700276692707,-89.09141540527344,-35.72058783637153,-0.435333251953125,-0.489748208829672,-0.40081061939201734,0.8853997124565972,-0.0,-0.5428229437934028,2.7397,0.7712,3.0264,0.01361,-0.01337,-0.06601,0.0009338908712379634,0.0010000265901908278,0.0008836952620185912,0.0006038934807293117,0.0004982045502401888,0.0004169631574768573,0.008648098446428776,0.011091460473835468,0.011656949296593666,passive,0
0.2611,rehab,medium,79.66456413104049,-666.6315052183323,263.04902241270224,-177.38931320562273,0.1326739658209607,-149.98569316316417,-7.6634,0.041,8.3692,-92.4704,-1.2939,93.3866,84.37733867380878,29.992505819490642,85.8232305545618,-27.891421847873264,-89.09087287055121,-35.73656717936198,-0.7074148348062346,-0.6529998779296875,-0.4955201101775217,1.1861419677734375,0.06785074869791667,-0.7463751898871528,2.7766,0.8013,3.0245,0.01333,-0.01342,-0.06619,0.0009338908712379634,0.0010000265901908278,0.0008836952620185912,0.0006038934807293117,0.0004982045502401888,0.0004169631574768573,0.008648098446428776,0.011091460473835468,0.011656949296593666,passive,0
0.2806,rehab,medium,79.52690988492334,-666.6320798744443,263.19945702102666,-177.38916987467644,0.13258300372414256,-149.98443547160227,-9.8814,0.0076,10.5537,-104.7321,-1.334,99.7387,84.36526459042389,29.981825422532488,85.81416139508238,-27.87146674262153,-89.09046596950955,-35.74967278374566,-0.8162515470297029,-0.7618297916827815,-0.5985781225827661,1.3157992892795138,-0.0,-0.8820851643880208,2.8187,0.8586,2.9732,0.02374,-0.02223,-0.06563,0.0009338908712379634,0.0010000265901908278,0.0008836952620185912,0.0006038934807293117,0.0004982045502401888,0.0004169631574768573,0.008648098446428776,0.011091460473835468,0.011656949296593666,passive,0
0.3007,rehab,medium,79.26312762977655,-666.6345753816618,263.4700251029393,-177.38917843531766,0.13268457549937593,-149.98387318280348,-12.3357,-0.0026,12.8151,-112.4411,-0.9355,101.2047,84.34214299268062,29.962612945254484,85.79772269371712,-27.8350830078125,-89.08968607584636,-35.77294243706597,-1.0883331298828125,-0.87066650390625,-0.7591375974145266,1.6363271077473958,-0.0,-1.0856458875868056,2.6544,0.6907,3.0604,0.01129,-0.01912,-0.06614,0.0009338908712379634,0.0010000265901908278,0.0008836952620185912,0.0006038934807293117,0.0004982045502401888,0.0004169631574768573,0.008648098446428776,0.011091460473835468,0.011656949296593666,passive,0
0.3208,rehab,medium,79.05453921886365,-666.6331722595967,263.6868135848563,-177.388999306588,0.13255078369412931,-149.9835153815875,-13.8614,-0.0043,14.1418,-117.3526,-0.4302,101.1893,84.32384151043279,29.94684049398592,85.78528829140238,-27.806574503580727,-89.08913506401909,-35.79127841525607,-1.1971630436359066,-1.0883331298828125,-0.7945440311243038,1.9086117214626737,-0.06785074869791667,-1.2892066107855902,2.689,0.8508,3.1535,0.01004,-0.02317,-0.06264,0.0009338908712379634,0.0010000265901908278,0.0008836952620185912,0.0006038934807293117,0.0004982045502401888,0.0004169631574768573,0.008648098446428776,0.011091460473835468,0.011656949296593666,passive,0
0.341,rehab,medium,78.67740029539104,-666.6298149810847,264.05641351788546,-177.3897069438039,0.13311971370879827,-149.98358677046468,-16.1251,-0.0128,16.059,-122.6563,0.1293,103.6516,84.29073975817992,29.91968060484027,85.76404986995281,-27.756339179144966,-89.08810085720486,-35.82373725043403,-1.5236663818359375,-1.1971630436359066,-0.9901768146174968,2.292658487955729,0.06785074869791667,-1.4927588568793402,2.8016,0.7213,2.2775,0.02389,-0.02147,-0.05397,0.0009338908712379634,0.0010000265901908278,0.0008836952620185912,0.0006038934807293117,0.0004982045502401888,0.0004169631574768573,0.008648098446428776,0.011091460473835468,0.011656949296593666,passive,0
0.3609,rehab,medium,78.39377370514202,-666.6314718380871,264.3459710596592,-177.38945261135265,0.13299819430822937,-149.98328430213974,-18.8866,-0.0121,18.3371,-125.8442,0.7956,106.6347,84.26587775202081,29.899054045724398,85.74670697202777,-27.717937893337673,-89.08730400933159,-35.84846496582031,-1.5780813387124846,-1.360414712735922,-1.158914849309638,2.512537638346354,0.06785074869791667,-1.6284688313802083,2.7173,0.8027,3.4582,0.02466,-0.02421,-0.06386,0.0009338908712379634,0.0010000265901908278,0.0008836952620185912,0.0006038934807293117,0.0004982045502401888,0.0004169631574768573,0.008648098446428776,0.011091460473835468,0.011656949296593666,passive,0
0.3811,rehab,medium,77.89433412209841,-666.6333067282138,264.8316353665895,-177.38951647723212,0.133111710304798,-149.98369749498178,-21.8732,0.0022,20.8177,-134.5994,1.2821,116.7648,84.22210240128017,29.864137101881575,85.71792904693301,-27.652901543511284,-89.08595614963107,-35.8910878499349,-1.9589996337890625,-1.5236663818359375,-1.2246560578299042,2.8008439805772567,0.13570149739583334,-1.8998803032769096,2.7531,0.8278,3.6279,0.02951,-0.03637,-0.06383,0.0009338908712379634,0.0010000265901908278,0.0008836952620185912,0.0006038934807293117,0.0004982045502401888,0.0004169631574768573,0.008648098446428776,0.011091460473835468,0.011656949296593666,passive,0
0.4008,rehab,medium,77.52422324855236,-666.6317009053181,265.18245478450643,-177.39034475911168,0.1337014671267641,-149.98343593201685,-24.3982,0.0246,22.9747,-144.6492,1.3281,128.8758,84.1896397052425,29.8385748532739,85.69735007710976,-27.60481940375434,-89.08498128255208,-35.9232669406467,-2.122251302889078,-1.5780813387124846,-1.3900900359200958,3.1250762939453125,0.06785074869791667,-2.171291775173611,2.8249,0.7498,3.9188,0.02865,-0.02612,-0.06933,0.0009338908712379634,0.0010000265901908278,0.0008836952620185912,0.0006038934807293117,0.0004982045502401888,0.0004169631574768573,0.008648098446428776,0.011091460473835468,0.011656949296593666,passive,0
0.4213,rehab,medium,77.11204383980223,-666.6341552315417,265.5708810934295,-177.39022134637554,0.1335964809754007,-149.98378437339875,-27.0904,0.0584,25.4667,-140.6563,0.9968,128.2204,84.16277215032294,29.817710347694927,85.68030631188118,-27.566418117947048,-89.08420986599393,-35.94926622178819,-2.3399179288656407,-1.795747964689047,-1.4873557515663676,3.2068888346354165,0.06785074869791667,-2.171291775173611,2.7148,0.7134,3.1334,0.03541,-0.03097,-0.06121,0.0009338908712379634,0.0010000265901908278,0.0008836952620185912,0.0006038934807293117,0.0004982045502401888,0.0004169631574768573,0.008648098446428776,0.011091460473835468,0.011656949296593666,passive,0
0.4411,rehab,medium,76.31416072735708,-666.6310270357625,266.2997494682272,-177.39157970423483,0.13457684899501632,-149.98440284149302,-29.9302,0.1113,28.1967,-126.3449,0.3591,117.465,84.08356317199103,29.757489497118655,85.63192839669709,-27.453825208875866,-89.0818362765842,-36.02666219075521,-2.61199951171875,-2.122251302889078,-1.5827314924485612,3.805711534288194,0.06785074869791667,-2.510553995768229,2.6618,0.6962,3.3728,0.03198,-0.02563,-0.06457,0.0009338908712379634,0.0010000265901908278,0.0008836952620185912,0.0006038934807293117,0.0004982045502401888,0.0004169631574768573,0.008648098446428776,0.011091460473835468,0.011656949296593666,passive,0
0.4611,rehab,medium,75.81901919964146,-666.6298791849122,266.7563907570059,-177.39200061006795,0.13488102217242687,-149.98464751449148,-32.3714,0.1265,30.524,-109.8486,-0.4173,102.9988,84.04014814018022,29.72439454333617,85.60516281883315,-27.39222208658854,-89.08053927951389,-36.069132486979164,-2.7208362239422184,-2.067836346012531,-1.7567315432104733,3.889778984917535,0.06785074869791667,-2.5784132215711804,2.6147,0.682,3.4244,0.03322,-0.02192,-0.05993,0.0009338908712379634,0.0010000265901908278,0.0008836952620185912,0.0006038934807293117,0.0004982045502401888,0.0004169631574768573,0.008648098446428776,0.011091460473835468,0.011656949296593666,passive,0
0.481,rehab,medium,75.03173053928849,-666.6239820665033,267.50803152218896,-177.39149871065555,0.13450616321075703,-149.98334697096496,-35.7282,0.0848,33.6266,-100.4995,-1.0674,92.5,83.97106888270613,29.66988440787438,85.56173419008161,-27.29291280110677,-89.07842848036024,-36.13838195800781,-2.938502849918781,-2.3943328857421875,-1.8958826348333075,4.2660268147786455,0.13570149739583334,-2.985526190863715,2.6522,0.7745,3.0248,0.05774,-0.03505,-0.05342,0.0009338908712379634,0.0010000265901908278,0.0008836952620185912,0.0006038934807293117,0.0004982045502401888,0.0004169631574768573,0.008648098446428776,0.011091460473835468,0.011656949296593666,passive,0
0.5009,rehab,medium,74.47339148295144,-666.6212824067488,268.0541769498426,-177.38994618665984,0.1333546002174886,-149.98220224272868,-36.7847,0.0312,34.5412,-96.5699,-1.49,85.3116,83.92209270212909,29.630684427695698,85.5300737135481,-27.22256130642361,-89.07693650987413,-36.18770175509982,-3.1017545190187965,-2.448754641089109,-1.981461779906018,4.557766384548611,0.06785074869791667,-3.1890869140625,2.5262,0.8291,2.8611,0.04483,-0.03146,-0.05151,0.0009338908712379634,0.0010000265901908278,0.0008836952620185912,0.0006038934807293117,0.0004982045502401888,0.0004169631574768573,0.008648098446428776,0.011091460473835468,0.011656949296593666,passive,0
0.5208,rehab,medium,73.57853606906066,-666.6203651640209,268.90435420294796,-177.38915336527316,0.13279128042657626,-149.98102552779702,-37.5163,-0.0201,35.1432,-94.2884,-1.6516,80.0196,83.84362475706799,29.570178041363707,85.47918716279587,-27.109875149197048,-89.07452901204427,-36.266064114040795,-3.319421144995359,-2.557584554842203,-2.2206727584989943,4.96382819281684,0.13570149739583334,-3.2569376627604165,2.3664,0.7935,3.7491,0.02742,-0.03279,-0.05379,0.0009338908712379634,0.0010000265901908278,0.0008836952620185912,0.0006038934807293117,0.0004982045502401888,0.0004169631574768573,0.008648098446428776,0.011091460473835468,0.011656949296593666,passive,0
0.5406,rehab,medium,72.94482349110848,-666.6233729010011,269.49124749738615,-177.3892564959329,0.13287384848582187,-149.9808338273223,-39.3329,-0.0436,36.6742,-90.8976,-1.3668,76.0037,83.78809485105005,29.528918124661587,85.4429309202893,-27.0306396484375,-89.07285054524739,-36.320885552300346,-3.482672814095374,-2.7208362239422184,-2.341760314337098,5.020497639973958,0.06785074869791667,-3.528349134657118,2.4901,0.7145,3.303,0.03329,-0.03898,-0.05536,0.0009338908712379634,0.0010000265901908278,0.0008836952620185912,0.0006038934807293117,0.0004982045502401888,0.0004169631574768573,0.008648098446428776,0.011091460473835468,0.011656949296593666,passive,0
0.5611,rehab,medium,71.93052716271393,-666.6288085853763,270.4119234573888,-177.38933546259622,0.13291000168405998,-149.98188032068398,-41.5591,-0.0449,38.4844,-90.7726,-0.6424,77.2909,83.69923884325688,29.464332656104965,85.38589175384824,-26.906424628363716,-89.07023111979167,-36.40728420681423,-3.754754396948484,-2.8296661376953125,-2.4892735245204207,5.202450222439236,0.13570149739583334,-3.596208360460069,2.4601,0.7261,3.3162,0.03478,-0.02452,-0.0577,0.0009338908712379634,0.0010000265901908278,0.0008836952620185912,0.0006038934807293117,0.0004982045502401888,0.0004169631574768573,0.008648098446428776,0.011091460473835468,0.011656949296593666,passive,0
0.5812,rehab,medium,71.23000793953489,-666.6301622606245,271.05160222991975,-177.3895579903422,0.13305381217989823,-149.9827525835405,-44.2013,-0.0446,40.7231,-101.1297,-0.0038,89.6103,83.63784865577622,29.419476348574797,85.34618188839147,-26.819864908854164,-89.06843397352431,-36.46681891547309,-3.918006066048499,-2.7752511808187657,-2.435028529403233,5.385047064887153,0.06785074869791667,-3.664059109157986,2.3382,0.6376,3.7887,0.02237,-0.02258,-0.05571,0.0009338908712379634,0.0010000265901908278,0.0008836952620185912,0.0006038934807293117,0.0004982045502401888,0.0004169631574768573,0.008648098446428776,0.011091460473835468,0.011656949296593666,passive,0
0.6011,rehab,medium,70.51000843490908,-666.629889578073,271.72239888297133,-177.38881183524643,0.13249931361022937,-149.98324387661685,-46.2236,-0.0411,42.5375,-96.6803,0.3539,89.5729,83.59067406984839,29.384260272035505,85.31545960076964,-26.753260294596352,-89.06702677408855,-36.51301913791232,-4.026835979801594,-2.938502849918781,-2.6548434720181002,5.521180894639757,0.13570149739583334,-3.8676198323567705,2.4935,0.7006,3.7962,0.05,-0.02821,-0.05433,0.0009338908712379634,0.0010000265901908278,0.0008836952620185912,0.0006038934807293117,0.0004982045502401888,0.0004169631574768573,0.008648098446428776,0.011091460473835468,0.011656949296593666,passive,0
0.6209,rehab,medium,69.2090224288579,-666.6258652452998,272.93177607225294,-177.3880950850266,0.13197139429829552,-149.98417430712846,-47.6622,-0.0442,43.9718,-66.4015,0.4669,66.5385,83.46064652546798,29.287980334593517,85.22996203734142,-26.568934122721352,-89.06316969129774,-36.639743381076386,-4.135672692025062,-3.2105844327718907,-2.7267576916383045,5.803315904405382,0.13570149739583334,-4.139031304253472,2.2722,0.6118,3.4008,0.03248,-0.03002,-0.05066,0.0009338908712379634,0.0010000265901908278,0.0008836952620185912,0.0006038934807293117,0.0004982045502401888,0.0004169631574768573,0.008648098446428776,0.011091460473835468,0.011656949296593666,passive,0
0.6408,rehab,medium,68.45243317226381,-666.6246620808015,273.6335925366764,-177.38859299096666,0.13233708425634635,-149.98426985249455,-48.7511,-0.0294,45.1896,-37.0619,0.3926,43.6745,83.39430705155476,29.23948004694268,85.185173714515,-26.473125881618923,-89.06119452582465,-36.70489841037326,-4.244502605778156,-3.1017545190187965,-2.8337112275680694,5.983030531141493,0.13570149739583334,-4.139031304253472,2.1655,0.6295,3.7151,0.02381,-0.02671,-0.05608,0.0009338908712379634,0.0010000265901908278,0.0008836952620185912,0.0006038934807293117,0.0004982045502401888,0.0004169631574768573,0.008648098446428776,0.011091460473835468,0.011656949296593666,passive,0
0.6607,rehab,medium,67.29940026187826,-666.6271368521691,274.701643807548,-177.38975844103177,0.13315228067505533,-149.98400509582382,-50.1484,-0.013,46.7133,-16.0704,0.305,26.509,83.29325458790996,29.166695623114556,85.11519026048113,-26.32602267795139,-89.05821906195746,-36.80454678005642,-4.353339318001624,-3.2105844327718907,-2.9177403213954207,6.281161838107638,0.13570149739583334,-4.071180555555555,2.2954,0.6135,3.194,0.03711,-0.03219,-0.05014,0.0009338908712379634,0.0010000265901908278,0.0008836952620185912,0.0006038934807293117,0.0004982045502401888,0.0004169631574768573,0.008648098446428776,0.011091460473835468,0.011656949296593666,passive,0
0.6811,rehab,medium,66.51800837071714,-666.6321356723582,275.42043871388984,-177.39094872168712,0.1340235368371339,-149.98399157380473,-49.9315,-0.0125,46.7619,-1.3589,0.2935,13.4928,83.2248075881807,29.11842648345645,85.06675795753404,-26.22587415907118,-89.0562015109592,-36.87187194824219,-4.026835979801594,-3.1017545190187965,-3.1128360257290377,6.131193372938368,0.13570149739583334,-4.206882052951388,2.3075,0.4969,3.7233,0.03313,-0.05277,-0.05749,0.0009338908712379634,0.0010000265901908278,0.0008836952620185912,0.0006038934807293117,0.0004982045502401888,0.0004169631574768573,0.008648098446428776,0.011091460473835468,0.011656949296593666,passive,0
0.7011,rehab,medium,65.3296896627045,-666.634168102789,276.5319274951513,-177.39157823213068,0.1345369606362638,-149.9842346653792,-48.0214,-0.0074,45.2886,4.9756,0.3444,7.3816,83.12065502204517,29.04366370474938,84.9926750258644,-26.073218451605904,-89.05309041341145,-36.97404649522569,-4.4077542748781715,-3.047339562142249,-3.1636477933071627,6.323072645399305,0.06785074869791667,-4.139031304253472,2.3546,0.5615,3.4685,0.03881,-0.04272,-0.05679,0.0009338908712379634,0.0010000265901908278,0.0008836952620185912,0.0006038934807293117,0.0004982045502401888,0.0004169631574768573,0.008648098446428776,0.011091460473835468,0.011656949296593666,passive,0
0.7211,rehab,medium,64.52476101233053,-666.6331976806541,277.29414518809693,-177.39135888171353,0.1344204465945494,-149.9854347167637,-48.2989,-0.0067,45.7229,4.0718,0.296,7.1457,83.05008689955909,28.992478021300666,84.94208080933825,-25.969679090711804,-89.05100504557292,-37.042236328125,-4.353339318001624,-3.1561694758953434,-3.1978169054088026,6.618236965603298,0.13570149739583334,-4.139031304253472,2.2577,0.6137,3.192,0.04396,-0.03799,-0.04922,0.0009338908712379634,0.0010000265901908278,0.0008836952620185912,0.0006038934807293117,0.0004982045502401888,0.0004169631574768573,0.008648098446428776,0.011091460473835468,0.011656949296593666,passive,0
0.7407,rehab,medium,63.305542065281244,-666.6268234740485,278.4588317942712,-177.38981444251576,0.13326650035838483,-149.98756351846032,-49.3837,-0.0101,46.8097,-4.5602,0.0302,12.2334,82.94316055751082,28.91415284411742,84.86558442068572,-25.813751220703125,-89.0479024251302,-37.14525858561198,-4.4077542748781715,-3.1561694758953434,-3.2616817361057393,6.467776828342013,0.06785074869791667,-4.206882052951388,2.2748,0.6803,3.6852,0.04312,-0.03905,-0.04738,0.0009338908712379634,0.0010000265901908278,0.0008836952620185912,0.0006038934807293117,0.0004982045502401888,0.0004169631574768573,0.008648098446428776,0.011091460473835468,0.011656949296593666,passive,0
0.7608,rehab,medium,62.50298919437947,-666.6269101534251,279.2334878982948,-177.38874048195683,0.13245690453422618,-149.98785387843574,-49.2964,-0.0018,46.8744,-19.8808,-0.333,21.0163,82.87281678454711,28.863048742313197,84.81314102021774,-25.70951673719618,-89.04583401150174,-37.21412658691406,-4.298924361125077,-3.1017545190187965,-3.2811729506690903,6.498921712239583,0.13570149739583334,-4.342592027452257,2.0902,0.5542,3.1209,0.03817,-0.03641,-0.04448,0.0009338908712379634,0.0010000265901908278,0.0008836952620185912,0.0006038934807293117,0.0004982045502401888,0.0004169631574768573,0.008648098446428776,0.011091460473835468,0.011656949296593666,passive,0
0.781,rehab,medium,61.70877168178356,-666.62809271929,279.99408486330253,-177.38898141634243,0.13265661948367602,-149.98717432523847,-49.7007,0.0053,47.3175,-36.283,-0.6843,27.5688,82.8206997106571,28.82609225735806,84.77341755782024,-25.630993313259548,-89.04426574707031,-37.26589626736111,-4.190087648901609,-3.1017545190187965,-3.371130310662902,6.532389322916666,0.20355224609375,-4.342592027452257,2.1643,0.55,3.5914,0.0615,-0.03467,-0.04774,0.0009338908712379634,0.0010000265901908278,0.0008836952620185912,0.0006038934807293117,0.0004982045502401888,0.0004169631574768573,0.008648098446428776,0.011091460473835468,0.011656949296593666,passive,0
0.8011,rehab,medium,60.50639784179621,-666.6306209178202,281.1156154585125,-177.3905514721038,0.1338984221082663,-149.9873059835352,-50.2515,-0.0011,47.767,-33.5762,-0.8136,14.715,82.69784455252166,28.740567500048343,84.68101274849164,-25.447489420572914,-89.04061211480034,-37.386669582790795,-4.353339318001624,-2.992917806795328,-3.3033903518525682,6.478381686740451,0.13570149739583334,-4.071180555555555,1.9985,0.4952,2.9843,0.04453,-0.04007,-0.04239,0.0009338908712379634,0.0010000265901908278,0.0008836952620185912,0.0006038934807293117,0.0004982045502401888,0.0004169631574768573,0.008648098446428776,0.011091460473835468,0.011656949296593666,passive,0
0.8211,rehab,medium,59.49134636336117,-666.6357627729943,282.0551262307685,-177.39067629784523,0.13397654947531612,-149.98820404569926,-51.2622,-0.0362,48.2847,-11.9828,-0.5911,-15.9028,82.60895455237663,28.680176687712716,84.61427216482635,-25.317645602756077,-89.0380350748698,-37.47318691677517,-4.353339318001624,-3.1017545190187965,-3.4531402587890625,6.48390875922309,0.13570149739583334,-4.274732801649305,2.114,0.4036,3.2162,0.04223,-0.03865,-0.04656,0.0009338908712379634,0.0010000265901908278,0.0008836952620185912,0.0006038934807293117,0.0004982045502401888,0.0004169631574768573,0.008648098446428776,0.011091460473835468,0.011656949296593666,passive,0
0.8407,rehab,medium,58.29919261381253,-666.6341622751693,283.1930695469043,-177.38924915818734,0.1328433861215338,-149.98772613703582,-51.7116,-0.0757,47.966,5.2764,-0.2302,-42.3706,82.50446886119276,28.606821192373143,84.53458049509784,-25.163353814019096,-89.03497483995226,-37.576395670572914,-4.353339318001624,-3.1017545190187965,-3.3237789645053373,6.402214898003472,0.06785074869791667,-4.342592027452257,2.0802,0.584,3.5211,0.04351,-0.03591,-0.04728,0.0009338908712379634,0.0010000265901908278,0.0008836952620185912,0.0006038934807293117,0.0004982045502401888,0.0004169631574768573,0.008648098446428776,0.011091460473835468,0.011656949296593666,passive,0
0.8608,rehab,medium,57.51419574185645,-666.6298658872663,283.9352800289548,-177.38848070638494,0.13226718545174915,-149.9857503974288,-51.6037,-0.0835,46.9002,18.3021,0.2364,-64.2226,82.4356207517114,28.558844386941136,84.4827421584932,-25.062425401475693,-89.03286404079861,-37.646068996853295,-4.298924361125077,-2.8296661376953125,-3.2978767923789447,6.327268812391493,0.13570149739583334,-4.342592027452257,2.0778,0.5211,3.8828,0.04317,-0.03622,-0.04744,0.0009338908712379634,0.0010000265901908278,0.0008836952620185912,0.0006038934807293117,0.0004982045502401888,0.0004169631574768573,0.008648098446428776,0.011091460473835468,0.011656949296593666,passive,0
0.881,rehab,medium,56.334075727053666,-666.6294974447123,285.00729129617565,-177.38854632283153,0.13236923432675143,-149.98398016059954,-51.2479,-0.0604,45.3528,31.5493,0.8939,-85.4846,82.33220242037632,28.490431379563738,84.40591264479231,-24.913982815212673,-89.02970208062065,-37.74956597222222,-4.462176030225093,-2.884087893042234,-3.153144156578744,6.113230387369791,0.13570149739583334,-4.342592027452257,2.0656,0.4283,3.4599,0.04849,-0.04105,-0.04573,0.0009338908712379634,0.0010000265901908278,0.0008836952620185912,0.0006038934807293117,0.0004982045502401888,0.0004169631574768573,0.008648098446428776,0.011091460473835468,0.011656949296593666,passive,0
0.9008,rehab,medium,55.53019391294896,-666.6330627947822,285.7000416805387,-177.38898886317185,0.13270755598088113,-149.98415801610653,-49.3359,-0.0097,42.5785,38.2958,1.5084,-97.4945,82.26182465506072,28.446635633411972,84.35542720379216,-24.817081027560764,-89.02761671278212,-37.818662855360245,-4.571005943978187,-2.6664212670656715,-3.224521297039372,6.152131822374132,0.13570149739583334,-4.410442776150173,1.982,0.4957,3.4473,0.04748,-0.03745,-0.04125,0.0009338908712379634,0.0010000265901908278,0.0008836952620185912,0.0006038934807293117,0.0004982045502401888,0.0004169631574768573,0.008648098446428776,0.011091460473835468,0.011656949296593666,passive,0
0.9209,rehab,medium,54.324015147903864,-666.6405164532268,286.69942203165107,-177.39019224693678,0.13362264286956765,-149.98469293048376,-47.997,0.0289,40.0982,32.6886,1.6316,-97.0052,82.15627160402808,28.383804170211942,84.28177937422649,-24.67599656846788,-89.02449713812933,-37.92207505967882,-4.353339318001624,-2.557584554842203,-3.133550964959777,5.8507029215494795,0.13570149739583334,-4.206882052951388,1.9452,0.6386,3.8111,0.04451,-0.03689,-0.04352,0.0009338908712379634,0.0010000265901908278,0.0008836952620185912,0.0006038934807293117,0.0004982045502401888,0.0004169631574768573,0.008648098446428776,0.011091460473835468,0.011656949296593666,passive,0
0.9407,rehab,medium,53.51624126815063,-666.6413167792082,287.3484218618335,-177.3905768900848,0.13390843999231894,-149.98528605095163,-48.25,0.0453,38.9369,13.1975,0.9232,-86.1271,82.08554711672339,28.342483067276454,84.23497870416925,-24.58532545301649,-89.02240329318576,-37.99117194281684,-4.353339318001624,-2.7208362239422184,-2.8293670049988395,5.63979254828559,0.13570149739583334,-4.546152750651042,2.0087,0.5452,3.304,0.05405,-0.04851,-0.04107,0.0009338908712379634,0.0010000265901908278,0.0008836952620185912,0.0006038934807293117,0.0004982045502401888,0.0004169631574768573,0.008648098446428776,0.011091460473835468,0.011656949296593666,passive,0
0.9606,rehab,medium,52.33100413681699,-666.6348641969302,288.3012102398149,-177.39018027787034,0.13364836785208442,-149.98418638746347,-48.3794,0.0649,37.513,-10.062,-0.3542,-71.844,81.98167328787322,28.281160864499537,84.16777582451849,-24.45416768391927,-89.01919894748264,-38.09464348687066,-4.298924361125077,-2.557584554842203,-2.720183570786278,5.294002956814236,0.06785074869791667,-4.071180555555555,1.7627,0.4849,3.5278,0.03004,-0.03403,-0.04109,0.0009338908712379634,0.0010000265901908278,0.0008836952620185912,0.0006038934807293117,0.0004982045502401888,0.0004169631574768573,0.008648098446428776,0.011091460473835468,0.011656949296593666,passive,0
0.9808,rehab,medium,51.54261968759767,-666.6289885579575,288.91048316276743,-177.3897149946723,0.13331885436225216,-149.98399515318684,-48.5823,0.0692,36.1427,-30.9174,-1.511,-58.1958,81.91257363498801,28.241668550094754,84.12534657091197,-24.37076144748264,-89.01707119411893,-38.16297743055556,-4.4077542748781715,-2.3943328857421875,-2.622829475025139,5.0420888264973955,0.13570149739583334,-4.274732801649305,2.0127,0.4508,3.7295,0.04643,-0.03997,-0.04379,0.0009338908712379634,0.0010000265901908278,0.0008836952620185912,0.0006038934807293117,0.0004982045502401888,0.0004169631574768573,0.008648098446428776,0.011091460473835468,0.011656949296593666,passive,0
1.001,rehab,medium,50.74949994147611,-666.6256621299904,289.500411446222,-177.38906597879017,0.1327271286273,-149.9834621630789,-49.4325,0.0314,35.2281,-46.2645,-1.9637,-47.4959,81.86046335956839,28.212958609703744,84.0943727398863,-24.31009080674913,-89.0155537923177,-38.214916653103295,-4.244502605778156,-2.3943328857421875,-2.5069563459641864,5.003975762261285,0.06785074869791667,-4.274732801649305,1.8061,0.4162,2.9768,0.03303,-0.03656,-0.04021,0.0009338908712379634,0.0010000265901908278,0.0008836952620185912,0.0006038934807293117,0.0004982045502401888,0.0004169631574768573,0.008648098446428776,0.011091460473835468,0.011656949296593666,passive,0
1.021,rehab,medium,49.54782685761396,-666.6274332222592,290.3375402992782,-177.3887644912496,0.1324897255218598,-149.98388174190137,-50.6705,-0.044,34.3862,-43.4674,-1.5951,-46.3705,81.73796852036278,28.15021552661858,84.02418533174118,-24.174211290147568,-89.01179843478732,-38.33544413248698,-4.298924361125077,-2.2310880151125465,-2.503332761254641,4.757910834418403,0.13570149739583334,-4.274732801649305,1.6283,0.2721,2.7384,0.02664,-0.03121,-0.04039,0.0009338908712379634,0.0010000265901908278,0.0008836952620185912,0.0006038934807293117,0.0004982045502401888,0.0004169631574768573,0.008648098446428776,0.011091460473835468,0.011656949296593666,passive,0
1.0408,rehab,medium,48.54490118316127,-666.6324223760025,290.9990381855119,-177.3888185628597,0.13251143188627051,-149.98364912985576,-51.8023,-0.1171,33.4682,-26.1595,-0.6556,-48.347,81.65027505100363,28.108357344523515,83.97616093701656,-24.081649780273438,-89.00911119249132,-38.42230902777778,-4.4077542748781715,-2.122251302889078,-2.3283945215810644,4.4828542073567705,0.13570149739583334,-4.274732801649305,1.855,0.2512,3.3978,0.03814,-0.04942,-0.04131,0.0009338908712379634,0.0010000265901908278,0.0008836952620185912,0.0006038934807293117,0.0004982045502401888,0.0004169631574768573,0.008648098446428776,0.011091460473835468,0.011656949296593666,passive,0
1.0606,rehab,medium,47.33136375544625,-666.6373043425983,291.7596528035722,-177.38915323235088,0.1327751559128397,-149.98471602929703,-51.7731,-0.1334,32.1169,-4.0858,0.5321,-48.091,81.54417812234104,28.060006623220914,83.92114771474706,-23.974719577365452,-89.00587293836806,-38.52611117892795,-4.244502605778156,-2.067836346012531,-2.2181233321086014,4.286558363172743,0.13570149739583334,-4.342592027452257,1.8046,0.3759,3.953,0.0426,-0.04357,-0.04327,0.0009338908712379634,0.0010000265901908278,0.0008836952620185912,0.0006038934807293117,0.0004982045502401888,0.0004169631574768573,0.008648098446428776,0.011091460473835468,0.011656949296593666,passive,0
1.0811,rehab,medium,46.5235956361493,-666.6408873582836,292.25480845658757,-177.38904546867644,0.13271235768582232,-149.98515253051895,-52.1078,-0.0812,31.5277,21.3587,1.6154,-50.0957,81.47356920903272,28.028618085502398,83.88533337281481,-23.905537923177082,-89.00368584526909,-38.59548780653212,-4.462176030225093,-1.8501697200359684,-2.17803955078125,4.239942762586805,0.20355224609375,-4.342592027452257,1.8043,0.3843,3.8731,0.04185,-0.04361,-0.04215,0.0009338908712379634,0.0010000265901908278,0.0008836952620185912,0.0006038934807293117,0.0004982045502401888,0.0004169631574768573,0.008648098446428776,0.011091460473835468,0.011656949296593666,passive,0
1.1011,rehab,medium,45.31125584000746,-666.6414489948255,292.9661491236801,-177.39008201884914,0.13350707794978794,-149.9863310088751,-51.9667,0.0026,30.8377,39.3476,2.0667,-49.7862,81.367560660485,27.983007147760674,83.83415448783647,-23.804295857747395,-89.0004645453559,-38.69915432400173,-4.625420900854734,-1.9589996337890625,-2.164340632976872,4.137022230360243,0.20355224609375,-4.410442776150173,1.7413,0.1657,3.144,0.04963,-0.03982,-0.03696,0.0009338908712379634,0.0010000265901908278,0.0008836952620185912,0.0006038934807293117,0.0004982045502401888,0.0004169631574768573,0.008648098446428776,0.011091460473835468,0.011656949296593666,passive,0
1.121,rehab,medium,44.49975634667687,-666.6373625119909,293.4327711174283,-177.3909550673145,0.13417227566308043,-149.98754862257516,-49.7361,0.0759,29.305,41.033,1.6432,-42.1332,81.29655743589495,27.952638380598312,83.8012158988726,-23.73779296875,-88.99832831488715,-38.76817491319444,-4.4077542748781715,-1.8501697200359684,-2.0743696760423114,4.1573333740234375,0.13570149739583334,-4.342592027452257,1.604,0.2572,3.1567,0.03928,-0.04846,-0.03957,0.0009338908712379634,0.0010000265901908278,0.0008836952620185912,0.0006038934807293117,0.0004982045502401888,0.0004169631574768573,0.008648098446428776,0.011091460473835468,0.011656949296593666,passive,0
1.141,rehab,medium,43.286964203866525,-666.6349297362988,294.14481059239193,-177.39001141833347,0.13338882322570533,-149.98843735952647,-48.4536,0.1144,28.4369,27.879,0.6145,-30.4899,81.19050129805461,27.90701384591584,83.75088002422068,-23.63989088270399,-88.99509006076389,-38.87221442328559,-4.4077542748781715,-1.795747964689047,-2.0674556316715655,4.070773654513888,0.13570149739583334,-4.342592027452257,1.4732,0.2485,3.2041,0.04204,-0.03254,-0.03855,0.0009338908712379634,0.0010000265901908278,0.0008836952620185912,0.0006038934807293117,0.0004982045502401888,0.0004169631574768573,0.008648098446428776,0.011091460473835468,0.011656949296593666,passive,0
1.1607,rehab,medium,42.497011279592265,-666.6323679746699,294.61827980740895,-177.38901650181435,0.13262167329126232,-149.98753307622337,-47.9437,0.0941,27.8341,13.085,-0.4631,-21.4121,81.1214016451694,27.876869428275835,83.71726838668974,-23.57527838812934,-88.99289449055989,-38.94147237141927,-4.462176030225093,-1.8501697200359684,-2.1565631828685796,4.102291531032986,0.20355224609375,-4.274732801649305,1.4845,0.2188,3.2572,0.04463,-0.03903,-0.03762,0.0009338908712379634,0.0010000265901908278,0.0008836952620185912,0.0006038934807293117,0.0004982045502401888,0.0004169631574768573,0.008648098446428776,0.011091460473835468,0.011656949296593666,passive,0
1.1811,rehab,medium,41.32014858937879,-666.6298382331851,295.31974123427443,-177.3877005645944,0.13160693915108734,-149.98574695038155,-48.2183,0.0328,27.5979,-1.9216,-1.0985,-12.4312,81.01848640064202,27.832679370842357,83.66665377475248,-23.47896999782986,-88.98961385091145,-39.04506259494357,-4.353339318001624,-1.7413330078125,-2.1755309152131033,4.044342041015625,0.13570149739583334,-4.342592027452257,1.4858,0.146,3.1193,0.0342,-0.04641,-0.03705,0.0009338908712379634,0.0010000265901908278,0.0008836952620185912,0.0006038934807293117,0.0004982045502401888,0.0004169631574768573,0.008648098446428776,0.011091460473835468,0.011656949296593666,passive,0
1.2011,rehab,medium,40.52311152382913,-666.6306352498569,295.78195702332,-177.38717088367662,0.1312056012023723,-149.985177582249,-49.256,-0.0252,27.849,-25.4561,-0.9245,3.2657,80.94883607165649,27.803983027392093,83.63247106571009,-23.414628770616318,-88.98741828070746,-39.11454094780816,-4.353339318001624,-1.686918050935953,-2.1495879522644645,3.9875284830729165,0.13570149739583334,-4.139031304253472,1.2427,0.1521,3.5764,0.01359,-0.03011,-0.04365,0.0009338908712379634,0.0010000265901908278,0.0008836952620185912,0.0006038934807293117,0.0004982045502401888,0.0004169631574768573,0.008648098446428776,0.011091460473835468,0.011656949296593666,passive,0
1.2211,rehab,medium,39.71555509939007,-666.6320254222256,296.2246149463742,-177.3881115565274,0.13194508797236493,-149.98551877681595,-50.3473,-0.0422,28.1762,-43.4349,-0.1496,18.3158,80.89614112778466,27.783397259098468,83.60724874062113,-23.36639404296875,-88.9858161078559,-39.16663275824653,-4.571005943978187,-1.6325030940594059,-2.1037322695892637,4.113455878363715,0.13570149739583334,-4.410442776150173,1.2364,0.0938,2.575,0.01729,-0.02604,-0.03426,0.0009338908712379634,0.0010000265901908278,0.0008836952620185912,0.0006038934807293117,0.0004982045502401888,0.0004169631574768573,0.008648098446428776,0.011091460473835468,0.011656949296593666,passive,0
1.2407,rehab,medium,38.493242040343546,-666.6334421898559,296.88318322357765,-177.38980515048746,0.1332512613936828,-149.9884499648019,-50.691,-0.0104,28.2391,-35.7534,0.7368,20.5792,80.77155235970375,27.7361003007039,83.54845556882348,-23.254114786783855,-88.98212009006076,-39.28671095106337,-4.462176030225093,-1.686918050935953,-2.1200689938989017,4.055430094401042,0.20355224609375,-4.342592027452257,1.2826,0.1517,3.4742,0.03358,-0.0383,-0.03442,0.0009338908712379634,0.0010000265901908278,0.0008836952620185912,0.0006038934807293117,0.0004982045502401888,0.0004169631574768573,0.008648098446428776,0.011091460473835468,0.011656949296593666,passive,0
1.2609,rehab,medium,37.48609342160621,-666.6372418315391,297.42869158595164,-177.39104518662066,0.13422022982134818,-149.9890556913688,-50.5654,0.0272,28.2413,-9.8697,1.2154,11.2123,80.68364133929262,27.70318890562152,83.50573398099087,-23.174251980251736,-88.97946675618489,-39.37310112847222,-4.462176030225093,-1.6325030940594059,-2.204431212774598,3.880513509114583,0.13570149739583334,-4.342592027452257,1.2514,0.1258,3.054,0.04938,-0.03941,-0.03241,0.0009338908712379634,0.0010000265901908278,0.0008836952620185912,0.0006038934807293117,0.0004982045502401888,0.0004169631574768573,0.008648098446428776,0.011091460473835468,0.011656949296593666,passive,0
1.281,rehab,medium,36.30321545308592,-666.6342926732425,298.1023122751736,-177.3911262700743,0.13439327518838293,-149.98755365770919,-51.1447,0.0776,28.8514,14.5934,0.8596,-2.144,80.58027059725015,27.662153338441755,83.4542967541383,-23.078409830729168,-88.97616068522136,-39.476869371202255,-4.026835979801594,-1.686918050935953,-2.125949670772741,4.030880398220486,0.20355224609375,-4.410442776150173,1.2128,0.0207,2.4568,0.05704,-0.02988,-0.03156,0.0009338908712379634,0.0010000265901908278,0.0008836952620185912,0.0006038934807293117,0.0004982045502401888,0.0004169631574768573,0.008648098446428776,0.011091460473835468,0.011656949296593666,passive,0
1.301,rehab,medium,35.51794788519567,-666.6316758829062,298.56205079689624,-177.39020471107546,0.1336982779299124,-149.98600686451698,-52.0038,0.1047,29.6599,25.8781,-0.1694,-12.6124,80.51164683729115,27.63429320684754,83.41944099652885,-23.01470438639323,-88.97395663791232,-39.546305338541664,-4.244502605778156,-1.8501697200359684,-2.265624244614403,4.05305650499132,0.13570149739583334,-4.206882052951388,0.9681,0.0349,2.4511,0.02826,-0.02964,-0.02606,0.0009338908712379634,0.0010000265901908278,0.0008836952620185912,0.0006038934807293117,0.0004982045502401888,0.0004169631574768573,0.008648098446428776,0.011091460473835468,0.011656949296593666,passive,0
1.3207,rehab,medium,34.33124801946235,-666.6258501211452,299.2482487203612,-177.3892300931664,0.1328623359476244,-149.98527856976946,-50.8682,0.086,29.114,23.3766,-1.2936,-17.6759,80.40795656714108,27.59275455286007,83.36720834864248,-22.919023301866318,-88.97077772352431,-39.64962429470486,-4.190087648901609,-1.686918050935953,-2.249321512656637,4.0322113037109375,0.06785074869791667,-4.410442776150173,1.0757,0.1353,3.4133,0.01374,-0.03087,-0.03052,0.0009338908712379634,0.0010000265901908278,0.0008836952620185912,0.0006038934807293117,0.0004982045502401888,0.0004169631574768573,0.008648098446428776,0.011091460473835468,0.011656949296593666,passive,0
1.341,rehab,medium,33.54513718317903,-666.6243077859865,299.7044904626216,-177.3883827540121,0.13210764684219076,-149.9837662137711,-48.4139,0.0333,27.5391,15.7575,-2.037,-20.2622,80.33931241177096,27.565649051477415,83.33176792258084,-22.85546196831597,-88.96866692437065,-39.71905178493923,-4.135672692025062,-1.7413330078125,-2.1606762574450804,3.965479532877604,0.13570149739583334,-4.206882052951388,1.1676,0.0799,3.2498,0.03391,-0.04146,-0.03643,0.0009338908712379634,0.0010000265901908278,0.0008836952620185912,0.0006038934807293117,0.0004982045502401888,0.0004169631574768573,0.008648098446428776,0.011091460473835468,0.011656949296593666,passive,0
1.3608,rehab,medium,32.35584536868605,-666.6256132795057,300.3725913537027,-177.38820762559405,0.13199551103971507,-149.98263546173817,-47.9558,-0.0453,26.7897,11.6322,-2.1359,-22.1288,80.23552696303565,27.52668021929146,83.2781959760307,-22.759908040364582,-88.96542867024739,-39.82287089029948,-4.353339318001624,-1.5236663818359375,-2.260226259137144,4.011145697699653,0.13570149739583334,-4.342592027452257,0.9408,-0.1599,1.7705,0.02057,-0.02261,-0.02009,0.0009338908712379634,0.0010000265901908278,0.0008836952620185912,0.0006038934807293117,0.0004982045502401888,0.0004169631574768573,0.008648098446428776,0.011091460473835468,0.011656949296593666,passive,0
1.3811,rehab,medium,31.55622671240116,-666.6261028248133,300.8168023743235,-177.38826860141737,0.1320858706752411,-149.9821698180673,-48.8963,-0.1055,26.7419,5.9956,-1.5528,-18.9872,80.16575426158339,27.500920815042928,83.24225926163173,-22.695948282877605,-88.96325005425346,-39.892374674479164,-4.353339318001624,-1.5236663818359375,-2.275685980768487,4.0347544352213545,0.13570149739583334,-4.342592027452257,0.9078,-0.1431,2.1494,0.02364,-0.04927,-0.0254,0.0009338908712379634,0.0010000265901908278,0.0008836952620185912,0.0006038934807293117,0.0004982045502401888,0.0004169631574768573,0.008648098446428776,0.011091460473835468,0.011656949296593666,passive,0
1.401,rehab,medium,30.34400176495532,-666.6329010721913,301.465203509011,-177.3892299501771,0.13287068668800392,-149.9831541232594,-49.9475,-0.1208,26.9729,-12.4791,-0.4446,-4.37,80.06011283043587,27.464311052076887,83.18783750628481,-22.600453694661457,-88.96007113986545,-39.99593946668837,-4.4077542748781715,-1.5236663818359375,-2.3291015625,3.9109632703993054,0.13570149739583334,-4.342592027452257,1.1564,-0.0528,2.5791,0.03409,-0.03423,-0.0365,0.0009338908712379634,0.0010000265901908278,0.0008836952620185912,0.0006038934807293117,0.0004982045502401888,0.0004169631574768573,0.008648098446428776,0.011091460473835468,0.011656949296593666,passive,0
1.4208,rehab,medium,29.538350521036193,-666.6347109306606,301.89772582577984,-177.38987187085417,0.1333736892329798,-149.98351402186054,-50.2969,-0.1027,27.0819,-32.4284,0.8286,13.8764,79.98987783299815,27.43978217096612,83.1517240316561,-22.536841498480904,-88.95796881781683,-40.065087212456596,-4.353339318001624,-1.4148296696124691,-2.214812477036278,4.063313802083333,0.13570149739583334,-4.274732801649305,0.9134,-0.1779,2.2463,0.02573,-0.02768,-0.0261,0.0009338908712379634,0.0010000265901908278,0.0008836952620185912,0.0006038934807293117,0.0004982045502401888,0.0004169631574768573,0.008648098446428776,0.011091460473835468,0.011656949296593666,passive,0
1.4407,rehab,medium,28.726180149341,-666.6385977775698,302.3232478465594,-177.39067867163158,0.13415892480354177,-149.98453894740268,-50.3585,-0.0592,27.2393,-32.4685,1.8557,20.8918,79.93675458549272,27.422010969407488,83.12458453792156,-22.489327324761284,-88.95633273654514,-40.11668735080295,-4.462176030225093,-1.5236663818359375,-2.2680920893603034,4.043485853407118,0.13570149739583334,-4.342592027452257,0.8216,-0.0947,2.2275,0.02835,-0.03262,-0.02511,0.0009338908712379634,0.0010000265901908278,0.0008836952620185912,0.0006038934807293117,0.0004982045502401888,0.0004169631574768573,0.008648098446428776,0.011091460473835468,0.011656949296593666,passive,0
1.4607,rehab,medium,27.32349025490049,-666.6354376800327,303.084205045189,-177.39117191383792,0.1345985200001922,-149.9844682453066,-50.174,-0.0096,27.3542,-15.0005,2.2948,15.2065,79.79676048354347,27.372790043896966,83.05240517795676,-22.362806532118054,-88.9520263671875,-40.25525410970052,-4.4077542748781715,-1.5236663818359375,-2.3529505965733293,3.950703938802083,0.13570149739583334,-4.410442776150173,0.8015,-0.0821,2.4292,0.03008,-0.03865,-0.024,0.0009338908712379634,0.0010000265901908278,0.0008836952620185912,0.0006038934807293117,0.0004982045502401888,0.0004169631574768573,0.008648098446428776,0.011091460473835468,0.011656949296593666,passive,0
1.481,rehab,medium,26.53183129538489,-666.6343221397761,303.5183922973932,-177.3914629412998,0.13477577525105697,-149.9837932659231,-50.7979,0.0431,27.8997,2.0504,2.1505,5.1782,79.72774241230276,27.348499109249303,83.01584300428334,-22.299457126193577,-88.94996643066406,-40.32422383626302,-4.298924361125077,-1.5236663818359375,-2.393401495300897,4.056226942274305,0.13570149739583334,-4.206882052951388,0.8002,-0.1141,2.4419,0.02395,-0.0354,-0.02382,0.0009338908712379634,0.0010000265901908278,0.0008836952620185912,0.0006038934807293117,0.0004982045502401888,0.0004169631574768573,0.008648098446428776,0.011091460473835468,0.011656949296593666,passive,0
1.5008,rehab,medium,25.338562972880727,-666.6321252126695,304.1917250648619,-177.39042986638705,0.13391376357933774,-149.98412269589238,-51.6816,0.0779,28.4816,9.44,1.5729,-3.1091,79.62371901710435,27.31103953748646,82.95954487111308,-22.203826904296875,-88.94682142469618,-40.42682223849826,-4.353339318001624,-1.5236663818359375,-2.4061214333713643,4.002007378472222,0.13570149739583334,-4.274732801649305,0.8481,-0.1521,1.6381,0.03037,-0.03483,-0.01795,0.0009338908712379634,0.0010000265901908278,0.0008836952620185912,0.0006038934807293117,0.0004982045502401888,0.0004169631574768573,0.008648098446428776,0.011091460473835468,0.011656949296593666,passive,0
1.5207,rehab,medium,24.531898171901958,-666.6338273594707,304.6391979095147,-177.3893375240419,0.13304934645704794,-149.98504805849785,-51.4175,0.1022,28.3317,12.8362,0.6534,-10.1868,79.55346362425549,27.286653424253558,82.9215142278388,-22.14064704047309,-88.94467671712239,-40.49542744954427,-4.516590987101639,-1.5780813387124846,-2.390994836788366,4.071256849500868,0.06785074869791667,-4.342592027452257,0.8146,-0.0924,2.0284,0.01264,-0.03779,-0.02257,0.0009338908712379634,0.0010000265901908278,0.0008836952620185912,0.0006038934807293117,0.0004982045502401888,0.0004169631574768573,0.008648098446428776,0.011091460473835468,0.011656949296593666,passive,0
1.541,rehab,medium,23.31786482701737,-666.6305388318958,305.30814516281333,-177.38810841940625,0.13198409797231386,-149.98642557145126,-50.4303,0.1025,27.6541,15.1738,-0.4614,-15.4268,79.44767262675974,27.249812513294785,82.86512091608331,-22.045788235134548,-88.94153171115451,-40.5987548828125,-4.462176030225093,-1.4692514249593904,-2.3628151770865564,3.932545979817708,0.13570149739583334,-4.274732801649305,0.6494,-0.1986,1.9096,0.01397,-0.03047,-0.01841,0.0009338908712379634,0.0010000265901908278,0.0008836952620185912,0.0006038934807293117,0.0004982045502401888,0.0004169631574768573,0.008648098446428776,0.011091460473835468,0.011656949296593666,passive,0
1.561,rehab,medium,22.50316925663559,-666.6296115721726,305.74397555838874,-177.38788155515115,0.13173525049238813,-149.9875743572222,-49.1612,0.0872,26.7175,17.4432,-1.5056,-17.9211,79.3767237899327,27.22618782874381,82.8275185764426,-21.982718573676216,-88.93946329752605,-40.66783481174045,-4.462176030225093,-1.5236663818359375,-2.3780301537844215,4.045054117838542,0.13570149739583334,-4.342592027452257,0.6459,-0.1739,2.594,-0.00461,-0.02623,-0.02207,0.0009338908712379634,0.0010000265901908278,0.0008836952620185912,0.0006038934807293117,0.0004982045502401888,0.0004169631574768573,0.008648098446428776,0.011091460473835468,0.011656949296593666,passive,0
1.5812,rehab,medium,21.296261073630454,-666.6270237715255,306.39435007933866,-177.38801421528044,0.13184426944807826,-149.98830201613302,-49.2318,0.0555,26.4693,17.9088,-2.2358,-17.4226,79.27160584100402,27.19124369101949,82.77069696105353,-21.887520684136284,-88.93631829155815,-40.77113681369357,-4.190087648901609,-1.360414712735922,-2.3980448505665994,3.9998287624782987,0.20355224609375,-4.274732801649305,0.6461,-0.1605,1.5951,0.0105,-0.0318,-0.01766,0.0009338908712379634,0.0010000265901908278,0.0008836952620185912,0.0006038934807293117,0.0004982045502401888,0.0004169631574768573,0.008648098446428776,0.011091460473835468,0.011656949296593666,passive,0
1.6009,rehab,medium,20.500578394071002,-666.6246624085597,306.8223424747874,-177.38864081334788,0.1323958017436663,-149.98805955918309,-49.4389,-0.0027,26.4169,10.7869,-2.4491,-12.022,79.20230223400758,27.16847561373569,82.73269351166074,-21.823738945855034,-88.93421596950955,-40.83995395236545,-4.353339318001624,-1.4148296696124691,-2.326069444713026,3.9262813991970487,0.13570149739583334,-4.274732801649305,0.6038,-0.2308,2.4512,-0.00465,-0.03474,-0.02619,0.0009338908712379634,0.0010000265901908278,0.0008836952620185912,0.0006038934807293117,0.0004982045502401888,0.0004169631574768573,0.008648098446428776,0.011091460473835468,0.011656949296593666,passive,0
1.621,rehab,medium,19.296437485269866,-666.623140896163,307.46902037285076,-177.38869376645434,0.13238970400755887,-149.98836120026286,-49.5055,-0.0663,26.4247,-7.009,-2.0762,-0.2403,79.09749701471613,27.134517254215655,82.6750356844156,-21.728812323676216,-88.93111334906683,-40.94337463378906,-4.298924361125077,-1.360414712735922,-2.4012741239944306,3.95951165093316,0.13570149739583334,-4.342592027452257,0.5949,-0.1855,1.5498,0.02129,-0.035,-0.01693,0.0009338908712379634,0.0010000265901908278,0.0008836952620185912,0.0006038934807293117,0.0004982045502401888,0.0004169631574768573,0.008648098446428776,0.011091460473835468,0.011656949296593666,passive,0
1.6407,rehab,medium,18.48849490351731,-666.6280481363198,307.89560190122364,-177.388811062599,0.1324860033441625,-149.9883599182565,-49.7884,-0.1231,26.6464,-24.2407,-1.2818,11.4112,79.02728921115988,27.113081677125233,82.63543459448483,-21.665420532226562,-88.92901102701823,-41.01286146375868,-4.353339318001624,-1.360414712735922,-2.511817252281869,3.9914703369140625,0.06785074869791667,-4.274732801649305,0.7008,-0.1643,1.3692,0.03188,-0.03325,-0.01515,0.0009338908712379634,0.0010000265901908278,0.0008836952620185912,0.0006038934807293117,0.0004982045502401888,0.0004169631574768573,0.008648098446428776,0.011091460473835468,0.011656949296593666,passive,0
1.6607,rehab,medium,17.69374869766157,-666.6300099250818,308.3184958196559,-177.38926385209376,0.1328850279626245,-149.9879708449915,-49.712,-0.137,26.6607,-23.2476,-0.2794,12.9178,78.97528771126625,27.097023690100944,82.60613998564163,-21.617923312717014,-88.92744276258681,-41.064605712890625,-4.4077542748781715,-1.305999755859375,-2.4649961868135057,3.962410820855035,0.13570149739583334,-4.274732801649305,0.5377,-0.3105,1.1693,0.00412,-0.02703,-0.01659,0.0009338908712379634,0.0010000265901908278,0.0008836952620185912,0.0006038934807293117,0.0004982045502401888,0.0004169631574768573,0.008648098446428776,0.011091460473835468,0.011656949296593666,passive,0
1.6807,rehab,medium,16.319759604650738,-666.6379837784211,309.05347051701165,-177.39038540039823,0.13380785333590414,-149.9853027203062,-49.8735,-0.12,26.656,-8.5872,0.6908,6.1735,78.83883561238204,27.055682191754332,82.52618317556853,-21.490690443250866,-88.92332288953993,-41.202384101019966,-4.298924361125077,-1.305999755859375,-2.574886661945003,4.002727932400173,0.13570149739583334,-4.410442776150173,0.46,-0.3628,0.9737,0.00671,-0.0474,-0.01338,0.0009338908712379634,0.0010000265901908278,0.0008836952620185912,0.0006038934807293117,0.0004982045502401888,0.0004169631574768573,0.008648098446428776,0.011091460473835468,0.011656949296593666,passive,0
1.7009,rehab,medium,15.529011510300041,-666.6378470431588,309.4831023293939,-177.39032233035434,0.13375119254220827,-149.98490693546026,-50.5084,-0.081,26.9546,10.2151,1.3882,-3.2264,78.7700894799563,27.034151436078666,82.48635773611541,-21.42723931206597,-88.9212629530165,-41.27080281575521,-4.244502605778156,-1.4148296696124691,-2.449808403997138,4.011586507161458,0.13570149739583334,-4.206882052951388,0.4044,-0.2917,1.7814,-0.00344,-0.03382,-0.01569,0.0009338908712379634,0.0010000265901908278,0.0008836952620185912,0.0006038934807293117,0.0004982045502401888,0.0004169631574768573,0.008648098446428776,0.011091460473835468,0.011656949296593666,passive,0
1.7207,rehab,medium,14.328365651943766,-666.6387347966142,310.129194013337,-177.39001364553798,0.13345494692382182,-149.98445098448224,-51.7852,-0.0298,27.6968,23.4991,1.7344,-9.694,78.66576015359104,27.002185028378324,82.42593972989829,-21.331973605685764,-88.91816033257378,-41.374503241644966,-4.462176030225093,-1.360414712735922,-2.456919604008741,4.007882012261285,0.20355224609375,-4.139031304253472,0.4802,-0.3663,1.4245,0.00381,-0.0293,-0.01729,0.0009338908712379634,0.0010000265901908278,0.0008836952620185912,0.0006038934807293117,0.0004982045502401888,0.0004169631574768573,0.008648098446428776,0.011091460473835468,0.011656949296593666,passive,0
1.7408,rehab,medium,13.527206806459347,-666.6376755728496,310.5617775557012,-177.38974452958885,0.13321500871545808,-149.98498124570224,-50.6496,-0.0011,27.1913,26.1143,1.7394,-10.1455,78.596137018487,26.98079024211015,82.38552962199296,-21.26834445529514,-88.91610887315538,-41.44287109375,-4.353339318001624,-1.360414712735922,-2.4619980613784036,3.9678955078125,0.06785074869791667,-4.274732801649305,0.4438,-0.3403,2.0831,-0.00577,-0.03154,-0.01868,0.0009338908712379634,0.0010000265901908278,0.0008836952620185912,0.0006038934807293117,0.0004982045502401888,0.0004169631574768573,0.008648098446428776,0.011091460473835468,0.011656949296593666,passive,0
1.761,rehab,medium,12.322777904994341,-666.6341635662249,311.1906089408006,-177.39099842881046,0.1343877724763804,-149.98593929789214,-48.5201,0.0223,26.1687,26.8125,1.4723,-9.4273,78.49145417166228,26.949965977432704,82.32554671787979,-21.172536214192707,-88.91298082139757,-41.54550340440538,-4.190087648901609,-1.305999755859375,-2.4865065470780476,4.059058295355903,0.13570149739583334,-4.274732801649305,0.4186,-0.4378,1.3877,0.00768,-0.03163,-0.01591,0.0009338908712379634,0.0010000265901908278,0.0008836952620185912,0.0006038934807293117,0.0004982045502401888,0.0004169631574768573,0.008648098446428776,0.011091460473835468,0.011656949296593666,passive,0
1.7808,rehab,medium,11.526332578058625,-666.6353590409341,311.61503771288324,-177.39127428359922,0.13468422056289245,-149.98565929633247,-47.4114,0.0339,25.6911,21.2152,1.0508,-7.3468,78.42230692948445,26.929794915831916,82.28435478588142,-21.108567979600693,-88.910886976454,-41.61420186360677,-4.244502605778156,-1.305999755859375,-2.582140629834468,4.064627753363715,0.20355224609375,-4.342592027452257,0.3092,-0.2877,1.8174,0.00771,-0.0301,-0.01513,0.0009338908712379634,0.0010000265901908278,0.0008836952620185912,0.0006038934807293117,0.0004982045502401888,0.0004169631574768573,0.008648098446428776,0.011091460473835468,0.011656949296593666,passive,0
1.801,rehab,medium,10.339185483493093,-666.6358356037334,312.2705616809894,-177.390340746397,0.13387392629194914,-149.98448192496144,-47.1566,0.0477,25.6407,5.5565,0.5344,-2.0992,78.31924891707921,26.898651123046875,82.22143494256652,-21.01242913140191,-88.90779283311632,-41.71734280056423,-4.298924361125077,-1.251584798982828,-2.6959062330793624,4.0556081136067705,0.13570149739583334,-4.274732801649305,0.3741,-0.3387,1.5138,0.0261,-0.02837,-0.01228,0.0009338908712379634,0.0010000265901908278,0.0008836952620185912,0.0006038934807293117,0.0004982045502401888,0.0004169631574768573,0.008648098446428776,0.011091460473835468,0.011656949296593666,passive,0
1.8211,rehab,medium,9.54638684637437,-666.6372482814479,312.70679882793513,-177.38982981503278,0.13338968396256964,-149.98358674455304,-48.765,0.075,26.5033,-24.9205,-0.0001,11.3151,78.25046879230159,26.878310099686725,82.17893090578589,-20.948070949978298,-88.90575832790799,-41.78628709581163,-4.462176030225093,-1.305999755859375,-2.62941039434754,3.992301093207465,0.06785074869791667,-4.410442776150173,0.3874,-0.2871,1.5431,0.02959,-0.02957,-0.0152,0.0009338908712379634,0.0010000265901908278,0.0008836952620185912,0.0006038934807293117,0.0004982045502401888,0.0004169631574768573,0.008648098446428776,0.011091460473835468,0.011656949296593666,passive,0
1.8407,rehab,medium,8.74831583429619,-666.6361083977187,313.1501791918964,-177.38888505491272,0.1325294031686638,-149.983697926865,-49.3384,0.0744,26.7933,-55.0348,-0.6805,26.3267,78.19855567252282,26.86261243159228,82.14683532714844,-20.89975145128038,-88.90424940321181,-41.83759053548177,-4.4077542748781715,-1.251584798982828,-2.540765139135984,3.899078369140625,0.13570149739583334,-4.206882052951388,0.3096,-0.2221,1.9671,0.01789,-0.03633,-0.01616,0.0009338908712379634,0.0010000265901908278,0.0008836952620185912,0.0006038934807293117,0.0004982045502401888,0.0004169631574768573,0.008648098446428776,0.011091460473835468,0.011656949296593666,passive,0
1.8611,rehab,medium,7.546694377691069,-666.6318103327876,313.7984830351821,-177.38901957274965,0.1327159225263458,-149.98378989094255,-50.046,0.0553,27.0372,-60.086,-1.3919,30.1275,78.07689024670289,26.827097222356514,82.07287476794555,-20.786327785915798,-88.9006127251519,-41.95782131618923,-4.298924361125077,-1.1971630436359066,-2.6343324868985922,4.1075388590494795,0.06785074869791667,-4.410442776150173,0.1918,-0.3457,2.083,-0.00277,-0.03763,-0.01274,0.0009338908712379634,0.0010000265901908278,0.0008836952620185912,0.0006038934807293117,0.0004982045502401888,0.0004169631574768573,0.008648098446428776,0.011091460473835468,0.011656949296593666,passive,0
1.881,rehab,medium,6.7424791022702175,-666.6292571397813,314.2317013465174,-177.3890091133682,0.13273352976021913,-149.98393519910726,-51.6077,0.0191,27.6691,-42.1531,-1.7573,23.3505,78.02451483093866,26.81214738600325,82.04076559236734,-20.737779405381943,-88.89904446072049,-42.009574042426216,-4.353339318001624,-1.251584798982828,-2.7357316725324874,4.0478769938151045,0.20355224609375,-4.342592027452257,0.1148,-0.1806,2.2108,0.00068,-0.02795,-0.01155,0.0009338908712379634,0.0010000265901908278,0.0008836952620185912,0.0006038934807293117,0.0004982045502401888,0.0004169631574768573,0.008648098446428776,0.011091460473835468,0.011656949296593666,passive,0
1.901,rehab,medium,5.327779532696859,-666.626579288135,314.97838933919644,-177.3899733197292,0.13347477830049334,-149.98436467343294,-52.2392,-0.0256,28.0159,-8.0261,-1.7603,8.4448,77.8844391473449,26.773416500280398,81.95484652377591,-20.60726589626736,-88.89505174424913,-42.14766608344184,-4.516590987101639,-1.1427480867593596,-2.708116285871751,4.120220608181423,0.13570149739583334,-4.47829352484809,0.2078,-0.354,1.3647,0.02065,-0.0282,-0.00649,0.0009338908712379634,0.0010000265901908278,0.0008836952620185912,0.0006038934807293117,0.0004982045502401888,0.0004169631574768573,0.008648098446428776,0.011091460473835468,0.011656949296593666,passive,0
1.9211,rehab,medium,4.518118875614199,-666.6304046725721,315.4092914722183,-177.39024804249016,0.13367619216881954,-149.98529701841653,-53.2573,-0.0802,28.7638,24.848,-1.2867,-6.7479,77.81436051472579,26.75490426545096,81.91010579024211,-20.541458129882812,-88.893068101671,-42.21606784396701,-4.353339318001624,-1.251584798982828,-2.728552487817141,4.268993801540798,0.13570149739583334,-4.342592027452257,0.3007,-0.3205,1.8144,0.0298,-0.03509,-0.00895,0.0009338908712379634,0.0010000265901908278,0.0008836952620185912,0.0006038934807293117,0.0004982045502401888,0.0004169631574768573,0.008648098446428776,0.011091460473835468,0.011656949296593666,passive,0
1.9408,rehab,medium,3.3068852676166918,-666.6345723967481,316.0691192849162,-177.39009999839527,0.13358660582462542,-149.98646382371953,-52.157,-0.118,28.4589,45.3113,-0.387,-16.4553,77.70951450461209,26.72661583022316,81.8418015583907,-20.441708034939236,-88.8900163438585,-42.318615383572045,-4.244502605778156,-1.1971630436359066,-2.807183596167234,4.206441243489583,0.06785074869791667,-4.342592027452257,0.1684,-0.388,1.6999,0.00576,-0.03802,-0.00866,0.0009338908712379634,0.0010000265901908278,0.0008836952620185912,0.0006038934807293117,0.0004982045502401888,0.0004169631574768573,0.008648098446428776,0.011091460473835468,0.011656949296593666,passive,0
1.9611,rehab,medium,2.4999413928467344,-666.6400015753755,316.5054492680296,-177.390260108341,0.13379821162553673,-149.98753298024724,-49.9804,-0.0965,27.5604,62.5018,0.5867,-25.6566,77.63973500468943,26.708545495968053,81.79552437055229,-20.374891493055554,-88.88797336154514,-42.38656785753038,-4.4077542748781715,-1.1427480867593596,-2.859545414990718,4.2469533284505205,0.13570149739583334,-4.071180555555555,0.0708,-0.5893,1.1417,-5e-05,-0.04677,-0.00933,0.0009338908712379634,0.0010000265901908278,0.0008836952620185912,0.0006038934807293117,0.0004982045502401888,0.0004169631574768573,0.008648098446428776,0.011091460473835468,0.011656949296593666,passive,0
1.9808,rehab,medium,1.32251309377887,-666.6393921458545,317.16608389259363,-177.39014355593045,0.13363491375894826,-149.98639185976188,-47.9402,-0.0592,26.5779,70.552,1.3034,-32.7992,77.53779194142558,26.680318246973624,81.72706377388226,-20.275082058376736,-88.88502332899306,-42.48852199978298,-4.190087648901609,-1.1971630436359066,-2.820902909382735,4.10506354437934,0.06785074869791667,-4.274732801649305,0.1885,-0.5118,1.3121,0.00554,-0.03212,-0.00885,0.0009338908712379634,0.0010000265901908278,0.0008836952620185912,0.0006038934807293117,0.0004982045502401888,0.0004169631574768573,0.008648098446428776,0.011091460473835468,0.011656949296593666,passive,0
2.001,rehab,medium,0.5582584472168853,-666.6397490150243,317.60244949642964,-177.38990675851278,0.13347435289520398,-149.98516348244283,-46.1432,-0.024,25.5592,68.9148,1.7834,-37.0628,77.47164282468286,26.66197597390354,81.68145283614055,-20.209240383572048,-88.88303120930989,-42.555152045355904,-4.081257735148514,-1.1427480867593596,-2.83864691705987,4.108055962456597,0.13570149739583334,-4.071180555555555,0.2765,-0.402,1.338,0.02166,-0.03559,-0.00419,0.0009338908712379634,0.0010000265901908278,0.0008836952620185912,0.0006038934807293117,0.0004982045502401888,0.0004169631574768573,0.008648098446428776,0.011091460473835468,0.011656949296593666,passive,0
2.0209,rehab,medium,-0.5912511195180271,-666.6390268950195,318.2386753661795,-177.389935197825,0.1335822660973116,-149.98611441338272,-45.8708,0.0264,25.2899,57.2065,1.8706,-35.6603,77.37217440463529,26.635461939443456,81.61444031366027,-20.112440321180554,-88.88012356228299,-42.65257093641493,-4.026835979801594,-1.0883331298828125,-2.7544954507657797,3.9627753363715277,0.13570149739583334,-4.071180555555555,0.2328,-0.44,1.0934,0.02195,-0.03876,-0.00262,0.0009338908712379634,0.0010000265901908278,0.0008836952620185912,0.0006038934807293117,0.0004982045502401888,0.0004169631574768573,0.008648098446428776,0.011091460473835468,0.011656949296593666,passive,0
2.0408,rehab,medium,-1.3538085043527421,-666.6356611854236,318.6553747821477,-177.38998239277052,0.13367621976630703,-149.98766052168588,-45.6386,0.0605,25.1011,35.6898,1.4729,-27.911,77.30616125730005,26.6179354828183,81.5708077307975,-20.04909939236111,-88.8782246907552,-42.71631876627604,-4.081257735148514,-1.0883331298828125,-2.746439263372138,3.827684190538194,0.13570149739583334,-4.071180555555555,0.1482,-0.3265,2.0242,0.01044,-0.04039,-0.01006,0.0009338908712379634,0.0010000265901908278,0.0008836952620185912,0.0006038934807293117,0.0004982045502401888,0.0004169631574768573,0.008648098446428776,0.011091460473835468,0.011656949296593666,passive,0
2.0606,rehab,medium,-2.107381736837161,-666.6338623481379,319.0545104160879,-177.39050860616052,0.1341104940882874,-149.98901002169092,-44.5786,0.0661,24.3177,26.3051,0.9125,-26.0862,77.25696072720065,26.60554866979618,81.53882092768603,-20.002543131510418,-88.87687683105469,-42.76381598578559,-4.026835979801594,-1.0339181730062654,-2.669303818504409,3.898222181532118,0.13570149739583334,-3.9354705810546875,0.2873,-0.4018,2.1415,0.02774,-0.04071,-0.00728,0.0009338908712379634,0.0010000265901908278,0.0008836952620185912,0.0006038934807293117,0.0004982045502401888,0.0004169631574768573,0.008648098446428776,0.011091460473835468,0.011656949296593666,passive,0
2.081,rehab,medium,-3.196505323002113,-666.6382720680373,319.6369147214859,-177.39027491269982,0.13382824923492004,-149.98967627451415,-43.5191,0.0773,23.4174,38.2574,0.325,-37.0629,77.14694787960241,26.578789890402614,81.4646564143719,-19.898393419053818,-88.87377421061198,-42.87181430392795,-3.7003394400719367,-0.9250814607827971,-2.57080078125,3.729434543185764,0.13570149739583334,-3.528349134657118,0.131,-0.3808,1.4696,0.02457,-0.03138,-0.006,0.0009338908712379634,0.0010000265901908278,0.0008836952620185912,0.0006038934807293117,0.0004982045502401888,0.0004169631574768573,0.008648098446428776,0.011091460473835468,0.011656949296593666,passive,0
2.1011,rehab,medium,-3.884273823856572,-666.6358011578392,320.01225104123654,-177.38982783325062,0.13343614114394756,-149.9892609879129,-42.73,0.0856,22.6418,61.7196,-0.4239,-56.6664,77.10215275830562,26.56733446782178,81.43446440743928,-19.855872260199654,-88.87247721354167,-42.91630215115017,-3.918006066048499,-0.979496417659344,-2.438754091168394,3.5334353976779513,0.13570149739583334,-3.596208360460069,0.1686,-0.4187,1.8866,0.01455,-0.03834,-0.01383,0.0009338908712379634,0.0010000265901908278,0.0008836952620185912,0.0006038934807293117,0.0004982045502401888,0.0004169631574768573,0.008648098446428776,0.011091460473835468,0.011656949296593666,passive,0
2.1212,rehab,medium,-5.023372353339291,-666.631190304242,320.63116108792457,-177.38880707881748,0.13252948945325804,-149.98739636526483,-41.9276,0.0749,21.7918,87.9844,-1.0657,-79.378,76.98897182351291,26.538495356493655,81.35900818475402,-19.74920484754774,-88.86909484863281,-43.03037855360243,-3.428251058748453,-0.8162515470297029,-2.2325836785949105,3.173404269748264,0.06785074869791667,-3.392647637261285,0.0627,-0.4543,2.0699,0.00402,-0.03433,-0.01591,0.0009338908712379634,0.0010000265901908278,0.0008836952620185912,0.0006038934807293117,0.0004982045502401888,0.0004169631574768573,0.008648098446428776,0.011091460473835468,0.011656949296593666,passive,0
2.1408,rehab,medium,-5.6495019579446675,-666.6307322522946,320.95410985202966,-177.3882520277352,0.13192323633885836,-149.98713164879754,-40.8059,0.0544,20.5882,109.2023,-1.3708,-96.1408,76.93491038709584,26.525884193949178,81.32400286079633,-19.700639512803818,-88.86758592393663,-43.08415730794271,-3.373836101871906,-0.7074148348062346,-2.0288471184154546,2.9843817816840277,0.06785074869791667,-3.2569376627604165,0.1279,-0.3675,2.0693,0.00524,-0.03223,-0.01233,0.0009338908712379634,0.0010000265901908278,0.0008836952620185912,0.0006038934807293117,0.0004982045502401888,0.0004169631574768573,0.008648098446428776,0.011091460473835468,0.011656949296593666,passive,0
2.1606,rehab,medium,-6.540612349956188,-666.6279513312585,321.3810874914031,-177.3887478748058,0.13235600454175722,-149.98658748278058,-37.1188,0.0221,17.7119,124.9077,-1.604,-105.5683,76.85793810551709,26.509438694113552,81.27670590240176,-19.633712768554688,-88.8653564453125,-43.16091749403212,-3.1561694758953434,-0.5985781225827661,-1.9129467954730044,2.602403428819444,0.06785074869791667,-3.121236165364583,0.0288,-0.4131,1.6275,0.01908,-0.02079,-0.00473,0.0009338908712379634,0.0010000265901908278,0.0008836952620185912,0.0006038934807293117,0.0004982045502401888,0.0004169631574768573,0.008648098446428776,0.011091460473835468,0.011656949296593666,passive,0
2.1811,rehab,medium,-7.09295163832767,-666.627561832167,321.6320451712801,-177.38916674654942,0.13276918207069635,-149.98533276914557,-34.0226,-0.0296,15.0641,139.8616,-1.6208,-114.8743,76.81026043278156,26.500117991230276,81.24826790082572,-19.593768649631077,-88.86391533745659,-43.20939805772569,-2.884087893042234,-0.489748208829672,-1.7314208380066523,2.390009562174479,0.06785074869791667,-2.9176754421657987,0.2376,-0.5446,1.9869,0.01016,-0.03772,-0.01156,0.0009338908712379634,0.0010000265901908278,0.0008836952620185912,0.0006038934807293117,0.0004982045502401888,0.0004169631574768573,0.008648098446428776,0.011091460473835468,0.011656949296593666,passive,0
2.2008,rehab,medium,-7.871366061551737,-666.630329225912,321.96975308841826,-177.38871781839825,0.13235594260128658,-149.9844700146138,-31.2476,-0.0724,12.628,148.8788,-1.1292,-119.6903,76.74316632865678,26.488003117023126,81.20980895391786,-19.541583591037327,-88.86192321777344,-43.27676561143663,-2.7752511808187657,-0.435333251953125,-1.4884435068262685,1.993501451280382,0.06785074869791667,-2.6462639702690973,-0.0622,-0.4305,1.4437,0.00866,-0.02945,-0.00075,0.0009338908712379634,0.0010000265901908278,0.0008836952620185912,0.0006038934807293117,0.0004982045502401888,0.0004169631574768573,0.008648098446428776,0.011091460473835468,0.011656949296593666,passive,0
2.2207,rehab,medium,-8.358583575327465,-666.6322987057254,322.1580555102931,-177.38852832130306,0.13214787626841057,-149.98473699010793,-28.1779,-0.071,10.4048,149.356,-0.3718,-114.4471,76.70119937103574,26.481483383934098,81.18793827472346,-19.512108696831596,-88.8607194688585,-43.31813388400607,-2.503169597965656,-0.32649653972965653,-1.2782280043800278,1.7302280002170138,0.06785074869791667,-2.510553995768229,0.1247,-0.6012,0.7317,0.01225,-0.03672,-0.00551,0.0009338908712379634,0.0010000265901908278,0.0008836952620185912,0.0006038934807293117,0.0004982045502401888,0.0004169631574768573,0.008648098446428776,0.011091460473835468,0.011656949296593666,passive,0
2.2407,rehab,medium,-9.038086512106656,-666.6369173150513,322.3935329092683,-177.38823028566426,0.13183523739123545,-149.9863957118395,-25.4413,-0.0801,8.6374,143.6503,0.2697,-100.4956,76.64273252581606,26.473828306292543,81.15979260737353,-19.474877251519096,-88.85906643337674,-43.374523586697045,-2.2855029719890934,-0.2720815828531095,-1.0604729982885983,1.3277689615885417,0.06785074869791667,-2.2391425238715277,0.0868,-0.5096,1.9556,0.00692,-0.02805,-0.00894,0.0009338908712379634,0.0010000265901908278,0.0008836952620185912,0.0006038934807293117,0.0004982045502401888,0.0004169631574768573,0.008648098446428776,0.011091460473835468,0.011656949296593666,passive,0
2.2611,rehab,medium,-9.450163868378407,-666.637119195044,322.5130829309162,-177.3886302148653,0.13223814514494603,-149.98798972555176,-22.8912,-0.0763,6.7553,144.786,0.7271,-87.0317,76.60723091352104,26.469953178179146,81.14515550065748,-19.45468478732639,-88.85804070366753,-43.408203125,-2.176666259765625,-0.2720815828531095,-0.7916138903929455,1.103117201063368,0.06785074869791667,-2.0355902777777777,0.0708,-0.5018,1.3136,-0.0016,-0.02999,-0.00819,0.0009338908712379634,0.0010000265901908278,0.0008836952620185912,0.0006038934807293117,0.0004982045502401888,0.0004169631574768573,0.008648098446428776,0.011091460473835468,0.011656949296593666,passive,0
2.2808,rehab,medium,-9.810243621628329,-666.6352240372071,322.6106180652726,-177.3890198413416,0.1326350156149121,-149.9887954579254,-20.2565,-0.0238,4.9794,157.559,1.027,-79.219,76.5837286014368,26.46740375178875,81.13616112435218,-19.44192674424913,-88.85734558105469,-43.43101501464844,-1.9045846769125154,-0.2176666259765625,-0.7050489671159499,0.9542592366536458,-0.0,-1.8998803032769096,0.0607,-0.5876,1.7365,0.00646,-0.03614,-0.00894,0.0009338908712379634,0.0010000265901908278,0.0008836952620185912,0.0006038934807293117,0.0004982045502401888,0.0004169631574768573,0.008648098446428776,0.011091460473835468,0.011656949296593666,passive,0
2.3007,rehab,medium,-10.261417007869452,-666.6351147368323,322.72618579202185,-177.38879143710454,0.13244039671957344,-149.9888976955535,-16.7593,0.0097,3.2675,168.9535,1.1725,-71.4888,76.53730184725015,26.462903164400913,81.11945728264233,-19.41941155327691,-88.85593838161893,-43.47682529025607,-1.4148296696124691,-0.05441495687654703,-0.4900133491742729,0.6437767876519097,-0.0,-1.4249081081814237,0.0297,-0.6046,1.7781,-0.00236,-0.03366,-0.01417,0.0009338908712379634,0.0010000265901908278,0.0008836952620185912,0.0006038934807293117,0.0004982045502401888,0.0004169631574768573,0.008648098446428776,0.011091460473835468,0.011656949296593666,passive,0
2.3209,rehab,medium,-10.505871574478528,-666.6360854332012,322.77853954349115,-177.38860764788623,0.13234731138707453,-149.98885048146425,-13.0511,0.0158,1.9659,180.347,1.2632,-65.1123,76.52127105410736,26.461652245852026,81.11420206504293,-19.412638346354168,-88.85541280110677,-43.49299960666232,-1.251584798982828,-0.10882991375309406,-0.39140153639387376,0.4752858479817708,0.06785074869791667,-1.2892066107855902,-0.0334,-0.714,1.582,-0.00332,-0.04288,-0.00724,0.0009338908712379634,0.0010000265901908278,0.0008836952620185912,0.0006038934807293117,0.0004982045502401888,0.0004169631574768573,0.008648098446428776,0.011091460473835468,0.011656949296593666,passive,0
2.3408,rehab,medium,-10.82427276594803,-666.6394197248115,322.8046514223376,-177.3897785244858,0.1334367250410867,-149.98849628114664,-9.3889,0.0147,0.9306,188.603,1.2267,-58.598,76.48891713359568,26.461835804552134,81.10689370939048,-19.40277099609375,-88.85441250271268,-43.525424533420136,-0.7618297916827815,-0.0,0.02082371475672958,0.10537041558159722,0.06785074869791667,-0.7463751898871528,-0.0948,-0.645,0.8206,-0.00315,-0.0262,0.00024,0.0009338908712379634,0.0010000265901908278,0.0008836952620185912,0.0006038934807293117,0.0004982045502401888,0.0004169631574768573,0.008648098446428776,0.011091460473835468,0.011656949296593666,passive,0
2.3607,rehab,medium,-10.94065311046484,-666.6333732834503,322.78569414197045,-177.39159571963293,0.13510571976391902,-149.98849326755845,-5.7801,0.0351,-0.0079,183.5972,0.9107,-51.4291,76.47878061426748,26.462440868415456,81.1081582248801,-19.40183851453993,-88.85413275824652,-43.53555467393663,-0.544163165706219,0.10882991375309406,0.07374300815091275,-0.02076043023003472,-0.0,-0.4749637179904514,0.0013,-0.5643,1.1101,0.01193,-0.02866,-0.00292,0.0009338908712379634,0.0010000265901908278,0.0008836952620185912,0.0006038934807293117,0.0004982045502401888,0.0004169631574768573,0.008648098446428776,0.011091460473835468,0.011656949296593666,passive,0
2.3809,rehab,medium,-11.0273335192435,-666.633358278138,322.7726561369744,-177.39124206980014,0.13483428970566216,-149.98817247621062,-1.4233,0.0796,-1.3276,169.1826,0.724,-47.8161,76.47131589379642,26.46311391698252,81.10936835260675,-19.403906928168404,-88.85383605957031,-43.54336208767361,0.05441495687654703,0.05441495687654703,0.09754445293162128,-0.2035098605685764,-0.0,-0.13570149739583334,-0.0005,-0.6155,1.1115,0.00477,-0.02978,-0.00377,0.0009338908712379634,0.0010000265901908278,0.0008836952620185912,0.0006038934807293117,0.0004982045502401888,0.0004169631574768573,0.008648098446428776,0.011091460473835468,0.011656949296593666,passive,0
2.4011,rehab,medium,-10.98685903393759,-666.6349056968292,322.75915101638816,-177.3895659465833,0.13325222919430726,-149.98396587320292,1.7284,0.1003,-2.2421,155.7402,0.7476,-49.5866,76.47481710603921,26.463447042030865,81.11191777899714,-19.409069485134548,-88.85379367404514,-43.54412502712673,0.10882991375309406,0.05441495687654703,0.2366751491433323,-0.4268731011284722,-0.0,-0.0,-0.0473,-0.6497,1.3751,-0.0079,-0.02703,-0.00682,0.0009338908712379634,0.0010000265901908278,0.0008836952620185912,0.0006038934807293117,0.0004982045502401888,0.0004169631574768573,0.008648098446428776,0.011091460473835468,0.011656949296593666,passive,0
2.4211,rehab,medium,-10.888034425417661,-666.6328337183696,322.7083947949022,-177.38684557057385,0.1307553205203314,-149.97844639946527,4.6833,0.103,-3.1461,147.1469,0.4456,-53.7566,76.4832608062442,26.46446681258702,81.12018471897238,-19.42214118109809,-88.85378519694011,-43.541344536675346,0.5985781225827661,0.05441495687654703,0.46538249100788986,-0.5813683403862847,-0.0,0.2714114718967014,0.043,-0.5393,1.6748,0.00165,-0.03046,-0.01494,0.0009338908712379634,0.0010000265901908278,0.0008836952620185912,0.0006038934807293117,0.0004982045502401888,0.0004169631574768573,0.008648098446428776,0.011091460473835468,0.011656949296593666,passive,0
2.441,rehab,medium,-10.77879057765337,-666.6275999272275,322.6456971479316,-177.38607593404657,0.13024431828507668,-149.97779864931908,7.1735,0.097,-4.1152,144.0049,-0.3302,-56.9498,76.49254071830522,26.46590808830639,81.12889355952197,-19.433483547634548,-88.85386149088542,-43.53283352322048,0.5985781225827661,0.10882991375309406,0.5552310754757116,-0.7767571343315972,-0.06785074869791667,0.678524441189236,0.0017,-0.6253,1.2361,-0.00096,-0.0275,-0.01472,0.0009338908712379634,0.0010000265901908278,0.0008836952620185912,0.0006038934807293117,0.0004982045502401888,0.0004169631574768573,0.008648098446428776,0.011091460473835468,0.011656949296593666,passive,0
2.4606,rehab,medium,-10.589602226815678,-666.623440070724,322.51693871753497,-177.385568679712,0.1303003662570426,-149.9827611945532,9.522,0.0852,-5.2324,143.4702,-1.1717,-57.3856,76.50872787626663,26.470034759823637,81.1444620566793,-19.45420159233941,-88.85407341851128,-43.511903550889755,0.7618297916827815,0.2720815828531095,0.6590777104443842,-0.9968651665581597,-0.0,0.9499359130859375,-0.1357,-0.5829,1.0899,0.01262,-0.02253,-0.00484,0.0009338908712379634,0.0010000265901908278,0.0008836952620185912,0.0006038934807293117,0.0004982045502401888,0.0004169631574768573,0.008648098446428776,0.011091460473835468,0.011656949296593666,passive,0
2.4809,rehab,medium,-10.420708875745312,-666.6250169955116,322.4120507425149,-177.3853634583363,0.13045728659890152,-149.98644036092946,12.5146,0.0806,-6.636,150.2654,-1.7017,-58.4609,76.52329699827892,26.474066252755648,81.1560330532565,-19.470443725585938,-88.85434468587239,-43.49383036295573,1.0339181730062654,0.2720815828531095,0.7349554382928527,-1.0824415418836806,-0.06785074869791667,1.2213473849826388,-0.0454,-0.5262,1.6036,-0.00341,-0.03624,-0.00525,0.0009338908712379634,0.0010000265901908278,0.0008836952620185912,0.0006038934807293117,0.0004982045502401888,0.0004169631574768573,0.008648098446428776,0.011091460473835468,0.011656949296593666,passive,0
2.5009,rehab,medium,-10.198237973575115,-666.6263387564281,322.2944894964323,-177.38520667046888,0.13064675954199362,-149.98836222899894,15.7694,0.0388,-7.9229,164.4936,-1.943,-60.6991,76.53722706407603,26.477356712416846,81.16568008271774,-19.483862982855904,-88.85460747612846,-43.47851223415798,1.251584798982828,0.2720815828531095,0.8589799333326887,-1.1831241183810763,-0.06785074869791667,1.357057359483507,0.0376,-0.5886,0.6715,-0.00704,-0.02409,-0.00756,0.0009338908712379634,0.0010000265901908278,0.0008836952620185912,0.0006038934807293117,0.0004982045502401888,0.0004169631574768573,0.008648098446428776,0.011091460473835468,0.011656949296593666,passive,0
2.521,rehab,medium,-9.779934106043415,-666.6231507532708,322.0903324175097,-177.3858982107878,0.13162071242230422,-149.99021780958833,19.3589,-0.0314,-9.0348,173.6673,-2.0558,-59.0029,76.57842579454478,26.485555667688352,81.19246605599281,-19.51911078559028,-88.85557386610243,-43.43545701768663,1.6325030940594059,0.32649653972965653,1.0358829309444617,-1.3241746690538194,-0.0,1.696319580078125,0.0098,-0.6478,1.6348,-0.03169,-0.02769,-0.01157,0.0009338908712379634,0.0010000265901908278,0.0008836952620185912,0.0006038934807293117,0.0004982045502401888,0.0004169631574768573,0.008648098446428776,0.011091460473835468,0.011656949296593666,passive,0
2.541,rehab,medium,-9.4424169948389,-666.6227892925625,321.94491351126715,-177.3861316721813,0.13189153536689466,-149.99029024394358,22.9562,-0.0809,-10.0279,165.6659,-1.8394,-50.5787,76.59980698387221,26.4893900049795,81.20484607054455,-19.535708957248264,-88.85617574055989,-43.414009941948784,1.9045846769125154,0.32649653972965653,1.0179689615079672,-1.4141082763671875,-0.0,1.7641703287760415,0.086,-0.4408,1.3228,-0.00091,-0.0293,-0.00767,0.0009338908712379634,0.0010000265901908278,0.0008836952620185912,0.0006038934807293117,0.0004982045502401888,0.0004169631574768573,0.008648098446428776,0.011091460473835468,0.011656949296593666,passive,0
2.5611,rehab,medium,-8.776950659887921,-666.6270215574013,321.6640692901976,-177.38649874548196,0.13185166982873883,-149.99092602144307,26.4426,-0.1036,-11.0684,145.0547,-1.2816,-38.718,76.66500431476253,26.501402902131034,81.24021851190246,-19.584977891710068,-88.85837131076389,-43.34892272949219,2.2310880151125465,0.3809114966062036,1.2096790275951423,-1.661376953125,-0.06785074869791667,2.2391425238715277,0.2429,-0.5181,0.8818,0.00818,-0.04203,-0.00991,0.0009338908712379634,0.0010000265901908278,0.0008836952620185912,0.0006038934807293117,0.0004982045502401888,0.0004169631574768573,0.008648098446428776,0.011091460473835468,0.011656949296593666,passive,0
2.581,rehab,medium,-8.342211089907687,-666.6265838857931,321.4816873548889,-177.38741414363642,0.13246154602500707,-149.99054556339343,29.305,-0.1131,-11.9245,125.5618,-0.4992,-29.9438,76.70250467734762,26.508099395449797,81.26049155055887,-19.612079196506077,-88.85964287651909,-43.31211513943142,2.503169597965656,0.435333251953125,1.2981815149288367,-1.763093736436632,-0.06785074869791667,2.307001749674479,0.1192,-0.5658,0.9577,-0.01724,-0.03696,-0.01272,0.0009338908712379634,0.0010000265901908278,0.0008836952620185912,0.0006038934807293117,0.0004982045502401888,0.0004169631574768573,0.008648098446428776,0.011091460473835468,0.011656949296593666,passive,0
2.6012,rehab,medium,-7.623781967663031,-666.6328015974304,321.1990537029751,-177.387561492281,0.13223263138704344,-149.98936109813965,32.1754,-0.1249,-12.6392,108.821,0.4345,-24.1615,76.76462230115834,26.519160506748918,81.29149257546604,-19.656185574001736,-88.86170281304253,-43.25169033474392,2.6664212670656715,0.489748208829672,1.3058365925703899,-1.8900214301215277,-0.0,2.6462639702690973,0.1014,-0.4661,1.4146,-0.01468,-0.01306,-0.00961,0.0009338908712379634,0.0010000265901908278,0.0008836952620185912,0.0006038934807293117,0.0004982045502401888,0.0004169631574768573,0.008648098446428776,0.011091460473835468,0.011656949296593666,passive,0
2.621,rehab,medium,-7.102745636772766,-666.6346874015497,320.9939524613958,-177.3882077171261,0.13266565082519394,-149.9881435045271,33.1261,-0.1094,-12.6775,96.6265,1.0981,-20.09,76.80961457809599,26.52703313544245,81.31394792311262,-19.68717787000868,-88.86311848958333,-43.20827060275607,2.7752511808187657,0.544163165706219,1.4723787213316057,-2.00547112358941,-0.06785074869791667,2.8498246934678817,-0.0212,-0.6394,0.0546,-0.00366,-0.01396,0.00277,0.0009338908712379634,0.0010000265901908278,0.0008836952620185912,0.0006038934807293117,0.0004982045502401888,0.0004169631574768573,0.008648098446428776,0.011091460473835468,0.011656949296593666,passive,0
2.6409,rehab,medium,-6.2848066494160495,-666.6374995749934,320.68147342739815,-177.38853396694236,0.1328194324746998,-149.98860018506184,33.8552,-0.0653,-12.615,88.8147,1.3243,-17.413,76.88025748375618,26.538984846360613,81.34857253272935,-19.735734727647568,-88.86533101399739,-43.13772413465712,2.938502849918781,0.489748208829672,1.4053322064994584,-2.106602986653646,-0.06785074869791667,2.985526190863715,0.0841,-0.4479,0.8226,-0.00742,-0.02172,-0.00603,0.0009338908712379634,0.0010000265901908278,0.0008836952620185912,0.0006038934807293117,0.0004982045502401888,0.0004169631574768573,0.008648098446428776,0.011091460473835468,0.011656949296593666,passive,0
2.6611,rehab,medium,-5.7098936945969605,-666.6370067772391,320.4646567417042,-177.38905910872813,0.1332799099591656,-149.98944242542154,36.4094,-0.0432,-13.2426,91.0511,1.2172,-19.2551,76.92986592207805,26.547102219987625,81.37272749796952,-19.768956502278645,-88.86684841579861,-43.08764987521701,3.047339562142249,0.489748208829672,1.545577851852568,-2.115800645616319,-0.13570149739583334,3.1890869140625,0.194,-0.5099,1.7934,-0.01083,-0.0228,-0.01573,0.0009338908712379634,0.0010000265901908278,0.0008836952620185912,0.0006038934807293117,0.0004982045502401888,0.0004169631574768573,0.008648098446428776,0.011091460473835468,0.011656949296593666,passive,0
2.6808,rehab,medium,-4.7998816849281845,-666.6361248409947,320.14551036072857,-177.38867836110708,0.13274118650454014,-149.99023334644338,38.8222,-0.0159,-13.9054,98.6069,0.9372,-25.1903,77.00842224725402,26.55887037220568,81.40921488846882,-19.820446438259548,-88.86934068467882,-43.00888909233941,3.428251058748453,0.489748208829672,1.4908569638091738,-2.143113878038194,-0.13570149739583334,3.528349134657118,0.3843,-0.4732,1.1792,0.0138,-0.01944,-0.01063,0.0009338908712379634,0.0010000265901908278,0.0008836952620185912,0.0006038934807293117,0.0004982045502401888,0.0004169631574768573,0.008648098446428776,0.011091460473835468,0.011656949296593666,passive,0
2.7009,rehab,medium,-4.159634698927052,-666.6361598660549,319.92219680927394,-177.38858375766242,0.13258623493786637,-149.99128589164175,40.6764,0.0139,-14.3698,105.8952,0.6,-32.3729,77.06371420680887,26.567341266292157,81.43429444567992,-19.856007893880207,-88.8710700141059,-42.95294867621528,3.482672814095374,0.544163165706219,1.6800312004467048,-2.189305623372396,-0.13570149739583334,3.596208360460069,0.2397,-0.5802,0.5778,-0.01754,-0.01726,-0.00494,0.0009338908712379634,0.0010000265901908278,0.0008836952620185912,0.0006038934807293117,0.0004982045502401888,0.0004169631574768573,0.008648098446428776,0.011091460473835468,0.011656949296593666,passive,0
2.7209,rehab,medium,-3.4904811891306435,-666.636649917904,319.6892759023141,-177.38873647855584,0.1326358389446292,-149.99140287782043,42.8329,0.0134,-15.026,110.2405,0.2855,-39.0617,77.10700686615293,26.574058155022044,81.4535681091913,-19.88345675998264,-88.87240939670139,-42.91007995605469,3.5370877709719215,0.544163165706219,1.5909236492496905,-2.335027058919271,-0.13570149739583334,3.664059109157986,0.2944,-0.4633,0.7943,-0.015,-0.01889,-0.00962,0.0009338908712379634,0.0010000265901908278,0.0008836952620185912,0.0006038934807293117,0.0004982045502401888,0.0004169631574768573,0.008648098446428776,0.011091460473835468,0.011656949296593666,passive,0
2.7409,rehab,medium,-2.2601659151126436,-666.6370737610753,319.247800044271,-177.39022331124647,0.13393974658146685,-149.99083612309272,44.7744,-0.0026,-15.7485,95.1774,0.1252,-38.9162,77.22781568470567,26.594032060981977,81.50732361444152,-19.95892842610677,-88.87607998318143,-42.790468004014755,3.809169353825031,0.5985781225827661,1.6728520157313582,-2.387822469075521,-0.13570149739583334,3.799769083658854,0.3698,-0.4288,1.1054,-0.00056,-0.02837,-0.01261,0.0009338908712379634,0.0010000265901908278,0.0008836952620185912,0.0006038934807293117,0.0004982045502401888,0.0004169631574768573,0.008648098446428776,0.011091460473835468,0.011656949296593666,passive,0
2.761,rehab,medium,-1.5397378338262577,-666.6380129921138,318.99332170493113,-177.39042230427108,0.13408940840670472,-149.9911839854111,46.978,-0.0153,-16.7421,68.4297,0.1045,-33.7294,77.29009647180538,26.60432494512879,81.53474864393178,-19.998431735568577,-88.8779788547092,-42.72828843858507,3.8635911091719524,0.6529998779296875,1.6787462895459468,-2.530941433376736,-0.13570149739583334,3.9354705810546875,0.3766,-0.3995,1.1578,0.00264,-0.03377,-0.01387,0.0009338908712379634,0.0010000265901908278,0.0008836952620185912,0.0006038934807293117,0.0004982045502401888,0.0004169631574768573,0.008648098446428776,0.011091460473835468,0.011656949296593666,passive,0
2.7807,rehab,medium,-0.42775582649643956,-666.6356207151006,318.5994754618675,-177.38991313901502,0.133531407611425,-149.9907779004752,48.1459,0.0016,-17.3973,47.8753,0.1633,-29.4637,77.38618605207688,26.619839054523126,81.57823845891669,-20.061289469401043,-88.88090345594618,-42.63331943088107,4.135672692025062,0.5985781225827661,1.8145049444519648,-2.733493381076389,-0.20355224609375,4.071180555555555,0.3883,-0.4331,1.021,0.00146,-0.03396,-0.01031,0.0009338908712379634,0.0010000265901908278,0.0008836952620185912,0.0006038934807293117,0.0004982045502401888,0.0004169631574768573,0.008648098446428776,0.011091460473835468,0.011656949296593666,passive,0
2.8011,rehab,medium,0.336854791146353,-666.6361582747174,318.32517347647945,-177.38921745449417,0.13282314899381775,-149.98984199322206,49.0153,0.023,-17.9996,28.3777,0.4202,-23.8632,77.45232157187887,26.63104973217048,81.60804975150835,-20.10541280110677,-88.88290405273438,-42.56862216525607,4.135672692025062,0.7074148348062346,1.9249868865060333,-2.776497734917535,-0.13570149739583334,4.071180555555555,0.3119,-0.3261,0.8855,-0.01603,-0.02594,-0.00953,0.0009338908712379634,0.0010000265901908278,0.0008836952620185912,0.0006038934807293117,0.0004982045502401888,0.0004169631574768573,0.008648098446428776,0.011091460473835468,0.011656949296593666,passive,0
2.821,rehab,medium,1.5147173678461252,-666.6373371857383,317.8892459406745,-177.38911489268554,0.13269053540702483,-149.98803023474662,49.6947,0.0282,-18.5782,11.8173,0.7426,-16.7624,77.55423064279084,26.649392005240564,81.65408219441329,-20.173187255859375,-88.88593037923177,-42.46929592556423,4.4077542748781715,0.8162515470297029,1.950589925935953,-2.8889889187282987,-0.06785074869791667,4.139031304253472,0.4498,-0.4401,1.0236,-0.01172,-0.03193,-0.01666,0.0009338908712379634,0.0010000265901908278,0.0008836952620185912,0.0006038934807293117,0.0004982045502401888,0.0004169631574768573,0.008648098446428776,0.011091460473835468,0.011656949296593666,passive,0
2.8408,rehab,medium,2.3095780257806098,-666.6371482186338,317.58551770801193,-177.38940948139447,0.1329893071795534,-149.98757476585652,48.3584,0.0358,-18.3031,2.4218,0.7723,-10.0744,77.62300396909808,26.662302300481514,81.68575626788753,-20.219557020399304,-88.88795640733507,-42.40150451660156,4.298924361125077,0.8162515470297029,2.0108311719233445,-2.913326687282986,-0.13570149739583334,4.139031304253472,0.675,-0.206,0.9989,0.00666,-0.0209,-0.0111,0.0009338908712379634,0.0010000265901908278,0.0008836952620185912,0.0006038934807293117,0.0004982045502401888,0.0004169631574768573,0.008648098446428776,0.011091460473835468,0.011656949296593666,passive,0
2.861,rehab,medium,3.4946395060110436,-666.63429141439,317.1328423819032,-177.38912802837478,0.1327186821868809,-149.9878312654163,48.4196,0.05,-18.5078,3.0107,0.4203,-6.769,77.7255384992845,26.68135161447053,81.73364469320467,-20.290196736653645,-88.89105055067274,-42.29951646592882,4.135672692025062,0.7618297916827815,2.019506020121055,-2.9201253255208335,-0.20355224609375,4.342592027452257,0.5628,-0.3645,1.4532,-0.01075,-0.01833,-0.02335,0.0009338908712379634,0.0010000265901908278,0.0008836952620185912,0.0006038934807293117,0.0004982045502401888,0.0004169631574768573,0.008648098446428776,0.011091460473835468,0.011656949296593666,passive,0
2.8808,rehab,medium,4.276654688742369,-666.6324193365256,316.82942067160747,-177.38892628881922,0.13246373022029181,-149.98915017662597,49.2545,0.0603,-18.9193,11.512,-0.0006,-7.6207,77.79323766727259,26.694302700533726,81.76548872843827,-20.337532891167534,-88.89317830403645,-42.231038411458336,4.190087648901609,0.8162515470297029,2.0044949975344215,-2.8836483425564237,-0.13570149739583334,4.410442776150173,0.5789,-0.3311,0.7463,-0.00417,-0.01148,-0.01521,0.0009338908712379634,0.0010000265901908278,0.0008836952620185912,0.0006038934807293117,0.0004982045502401888,0.0004169631574768573,0.008648098446428776,0.011091460473835468,0.011656949296593666,passive,0
2.9008,rehab,medium,5.471284008103374,-666.6330458614073,316.3629982120425,-177.3892470389766,0.13281956927357239,-149.98969553124002,49.3053,0.07,-18.9515,21.2061,-0.3748,-11.7404,77.89672398331142,26.715092422938582,81.81271090365873,-20.408409966362846,-88.89626397026909,-42.12781270345052,4.298924361125077,0.8162515470297029,1.8658469927192916,-2.8893873426649304,-0.13570149739583334,4.206882052951388,0.8033,-0.1695,1.5133,0.00975,-0.02211,-0.02295,0.0009338908712379634,0.0010000265901908278,0.0008836952620185912,0.0006038934807293117,0.0004982045502401888,0.0004169631574768573,0.008648098446428776,0.011091460473835468,0.011656949296593666,passive,0
2.921,rehab,medium,6.290893676322059,-666.6322511721789,316.0534573403695,-177.3894380959184,0.13309318302440967,-149.98858893455346,49.9692,0.062,-19.1911,30.0468,-0.8246,-19.6402,77.96770681249033,26.728954504031947,81.84396347196976,-20.455440945095486,-88.89829847547743,-42.058469984266495,4.571005943978187,0.9250814607827971,1.9649686907777693,-2.9682328965928817,-0.13570149739583334,4.274732801649305,0.6779,-0.248,1.5031,-0.00781,-0.02801,-0.02683,0.0009338908712379634,0.0010000265901908278,0.0008836952620185912,0.0006038934807293117,0.0004982045502401888,0.0004169631574768573,0.008648098446428776,0.011091460473835468,0.011656949296593666,passive,0
2.941,rehab,medium,7.103474737623904,-666.6292143645691,315.7448300632825,-177.38959831622762,0.13326127848713762,-149.9881206147916,50.6561,0.0231,-19.6214,27.1364,-1.238,-27.6947,78.02034736859916,26.739206597356514,81.86763574581335,-20.49081590440538,-88.89986673990886,-42.00650533040365,4.462176030225093,0.8162515470297029,1.9408681133005878,-2.94448004828559,-0.13570149739583334,4.206882052951388,0.7423,-0.3191,1.0931,0.00794,-0.02893,-0.0208,0.0009338908712379634,0.0010000265901908278,0.0008836952620185912,0.0006038934807293117,0.0004982045502401888,0.0004169631574768573,0.008648098446428776,0.011091460473835468,0.011656949296593666,passive,0
2.9611,rehab,medium,8.518169892884245,-666.6289031893638,315.1931051888895,-177.3895554503408,0.1331172492620327,-149.98710707320834,51.3139,-0.008,-20.2364,13.4738,-1.3202,-35.1442,78.16072898335976,26.768018514803142,81.9302768518429,-20.586844550238716,-88.90414767795139,-41.86843024359809,4.4077542748781715,0.979496417659344,1.9567289446840193,-3.0057610405815973,-0.13570149739583334,4.410442776150173,0.8507,-0.2961,1.7437,-0.00691,-0.02863,-0.02777,0.0009338908712379634,0.0010000265901908278,0.0008836952620185912,0.0006038934807293117,0.0004982045502401888,0.0004169631574768573,0.008648098446428776,0.011091460473835468,0.011656949296593666,passive,0
2.9809,rehab,medium,9.331251700935852,-666.6304412140391,314.8698855956801,-177.38926360719384,0.13287285160640375,-149.98594811010287,51.6903,-0.0305,-21.0785,0.8173,-1.0361,-41.9998,78.23126991196435,26.783281080793625,81.96191693296527,-20.636342366536457,-88.90623304578993,-41.799613104926216,4.516590987101639,0.9250814607827971,1.9900346510481126,-3.090574476453993,-0.13570149739583334,4.274732801649305,0.8663,-0.296,1.6267,0.00544,-0.03079,-0.02647,0.0009338908712379634,0.0010000265901908278,0.0008836952620185912,0.0006038934807293117,0.0004982045502401888,0.0004169631574768573,0.008648098446428776,0.011091460473835468,0.011656949296593666,passive,0
3.0008,rehab,medium,10.556793502548583,-666.6295295834767,314.36976442037525,-177.38880239446618,0.13252307048675258,-149.98360748029245,51.3723,-0.0591,-21.9851,-13.8725,-0.557,-44.4584,78.33756399626779,26.806729005114867,82.01111066459428,-20.71287367078993,-88.90932718912761,-41.696531507703995,4.4077542748781715,1.0339181730062654,2.0347821830522896,-3.218231201171875,-0.13570149739583334,4.139031304253472,0.9554,-0.2498,1.5567,-1e-05,-0.02235,-0.02475,0.0009338908712379634,0.0010000265901908278,0.0008836952620185912,0.0006038934807293117,0.0004982045502401888,0.0004169631574768573,0.008648098446428776,0.011091460473835468,0.011656949296593666,passive,0
3.0208,rehab,medium,11.35363982009612,-666.6327250460205,314.0192592674726,-177.3884764065537,0.1322924423968835,-149.98433267090024,50.7965,-0.0707,-22.9217,-26.749,-0.0074,-41.9471,78.40677922314937,26.823759173402692,82.04462712354,-20.766042073567707,-88.91139560275607,-41.627197265625,4.135672692025062,1.1427480867593596,2.0824190649655785,-3.453996446397569,-0.06785074869791667,4.206882052951388,0.9417,-0.2865,1.4965,0.00252,-0.02501,-0.02777,0.0009338908712379634,0.0010000265901908278,0.0008836952620185912,0.0006038934807293117,0.0004982045502401888,0.0004169631574768573,0.008648098446428776,0.011091460473835468,0.011656949296593666,passive,0
3.0412,rehab,medium,12.535931884364803,-666.6353988197391,313.4710176610355,-177.38768444937548,0.131532681032237,-149.98520205314833,50.104,-0.055,-24.0022,-32.0331,0.373,-37.8816,78.50949051356551,26.850218820099784,82.09745123834894,-20.849711100260418,-88.91455756293402,-41.524573432074654,4.298924361125077,1.1427480867593596,2.272701452274134,-3.5938602023654513,-0.13570149739583334,4.410442776150173,1.0382,-0.2014,1.603,0.0131,-0.02373,-0.02778,0.0009338908712379634,0.0010000265901908278,0.0008836952620185912,0.0006038934807293117,0.0004982045502401888,0.0004169631574768573,0.008648098446428776,0.011091460473835468,0.011656949296593666,passive,0
3.0609,rehab,medium,13.32212716391811,-666.634838279315,313.0819553544183,-177.3880024802954,0.13177064840525646,-149.98636088067929,49.3894,-0.0203,-24.6234,-26.5147,0.5588,-34.0685,78.5777743500058,26.86892821057008,82.13459808047455,-20.907372368706596,-88.9166768391927,-41.455790201822914,4.353339318001624,1.1971630436359066,2.3999280268603034,-3.712031046549479,-0.06785074869791667,4.274732801649305,1.1213,-0.2418,1.761,0.01259,-0.02905,-0.03064,0.0009338908712379634,0.0010000265901908278,0.0008836952620185912,0.0006038934807293117,0.0004982045502401888,0.0004169631574768573,0.008648098446428776,0.011091460473835468,0.011656949296593666,passive,0
3.0806,rehab,medium,14.507140178022546,-666.6372798489813,312.4659175778004,-177.38912116397287,0.13270779397095148,-149.98704756621066,48.6542,-0.0085,-24.9777,-13.6335,0.7168,-28.2559,78.68077797464805,26.899290179262067,82.19191598420096,-20.996873643663193,-88.91982184516058,-41.3531239827474,4.353339318001624,1.251584798982828,2.467892335192992,-3.763766818576389,-0.06785074869791667,4.546152750651042,1.111,-0.3231,1.5762,0.00535,-0.03453,-0.03143,0.0009338908712379634,0.0010000265901908278,0.0008836952620185912,0.0006038934807293117,0.0004982045502401888,0.0004169631574768573,0.008648098446428776,0.011091460473835468,0.011656949296593666,passive,0
3.1007,rehab,medium,15.308035656121932,-666.6345287693526,312.0452193044756,-177.38994465774311,0.13355042842630768,-149.9878480032248,48.4978,-0.006,-25.4072,-3.391,0.7262,-19.7023,78.7503195281076,26.919665194974087,82.23157146189472,-21.057951185438366,-88.92183939615886,-41.28347608778212,4.462176030225093,1.305999755859375,2.3752699748124226,-3.884175618489583,-0.13570149739583334,4.342592027452257,0.972,-0.0517,2.1397,0.00608,-0.02776,-0.02579,0.0009338908712379634,0.0010000265901908278,0.0008836952620185912,0.0006038934807293117,0.0004982045502401888,0.0004169631574768573,0.008648098446428776,0.011091460473835468,0.011656949296593666,passive,0
3.1209,rehab,medium,16.520464781922573,-666.6336818339512,311.4079305237821,-177.39073951769714,0.1342698966176979,-149.98674040906513,48.7948,0.0016,-25.7991,11.674,0.6363,-15.3023,78.85568902044012,26.951223694451965,82.29079973579633,-21.150953504774304,-88.92494201660156,-41.18027581108941,4.462176030225093,1.305999755859375,2.4211732467802443,-3.928951687282986,-0.06785074869791667,4.274732801649305,0.9397,-0.0304,2.0738,0.01446,-0.03425,-0.0255,0.0009338908712379634,0.0010000265901908278,0.0008836952620185912,0.0006038934807293117,0.0004982045502401888,0.0004169631574768573,0.008648098446428776,0.011091460473835468,0.011656949296593666,passive,0
3.1411,rehab,medium,17.325203235555023,-666.6332587012753,310.98925413081474,-177.39034976625214,0.1338895156383466,-149.986237603185,49.4404,0.0036,-26.2491,30.2041,0.6566,-15.8937,78.92565887753327,26.972061006149442,82.33001331291577,-21.213734944661457,-88.9270528157552,-41.11152648925781,4.4077542748781715,1.305999755859375,2.51383639798306,-3.8972049289279513,-0.13570149739583334,4.342592027452257,1.0116,-0.1605,2.365,0.00772,-0.0339,-0.03117,0.0009338908712379634,0.0010000265901908278,0.0008836952620185912,0.0006038934807293117,0.0004982045502401888,0.0004169631574768573,0.008648098446428776,0.011091460473835468,0.011656949296593666,passive,0
3.161,rehab,medium,18.12615404029226,-666.6339430086883,310.56968498947253,-177.38981196482678,0.13338370480724288,-149.98625066500966,50.2367,0.0267,-26.5628,31.8013,0.8007,-10.2914,78.97789152541964,26.987826658947633,82.35921954164411,-21.260960896809895,-88.92862108018663,-41.05980767144097,4.516590987101639,1.305999755859375,2.4532280345954516,-3.9256032307942705,-0.13570149739583334,4.410442776150173,0.9479,-0.0304,2.1999,0.01014,-0.03136,-0.03318,0.0009338908712379634,0.0010000265901908278,0.0008836952620185912,0.0006038934807293117,0.0004982045502401888,0.0004169631574768573,0.008648098446428776,0.011091460473835468,0.011656949296593666,passive,0
3.1808,rehab,medium,19.508987260803888,-666.6371536458901,309.8382694435773,-177.38884305401047,0.13252835856161643,-149.98751123771734,50.1805,0.0441,-26.3577,16.8799,0.7636,2.4143,79.1157033183787,27.03075899936185,82.43584510123375,-21.386303371853298,-88.93284267849393,-40.922181871202255,4.353339318001624,1.251584798982828,2.4286107733698175,-3.8547770182291665,-0.13570149739583334,4.342592027452257,1.0834,0.0156,2.4487,0.01214,-0.02821,-0.0343,0.0009338908712379634,0.0010000265901908278,0.0008836952620185912,0.0006038934807293117,0.0004982045502401888,0.0004169631574768573,0.008648098446428776,0.011091460473835468,0.011656949296593666,passive,0
3.201,rehab,medium,20.293515012795435,-666.635086101742,309.4214089769956,-177.38861485661786,0.13229936810370352,-149.98928002826145,50.6061,0.0555,-26.3414,-4.2385,0.2786,15.9805,79.18395316246712,27.051922637637297,82.47420886955639,-21.44834730360243,-88.93497890896268,-40.85287306043837,4.190087648901609,1.360414712735922,2.397718523988629,-3.8422648111979165,-0.13570149739583334,4.342592027452257,1.0337,-0.0427,2.5682,-0.00349,-0.02928,-0.03181,0.0009338908712379634,0.0010000265901908278,0.0008836952620185912,0.0006038934807293117,0.0004982045502401888,0.0004169631574768573,0.008648098446428776,0.011091460473835468,0.011656949296593666,passive,0
3.2207,rehab,medium,21.48085328156079,-666.6326217197793,308.7951398124411,-177.3891263673102,0.13273013212475335,-149.99002043795838,52.1055,0.073,-26.8831,-20.817,-0.5369,23.5836,79.28726271827622,27.084317348971226,82.53050020425627,-21.539620293511284,-88.93813239203558,-40.74986775716146,4.298924361125077,1.305999755859375,2.286991837001083,-3.796708848741319,-0.13570149739583334,4.410442776150173,1.0828,0.0955,3.0277,-0.00047,-0.0364,-0.03591,0.0009338908712379634,0.0010000265901908278,0.0008836952620185912,0.0006038934807293117,0.0004982045502401888,0.0004169631574768573,0.008648098446428776,0.011091460473835468,0.011656949296593666,passive,0
3.2407,rehab,medium,22.28945814695792,-666.6290154704449,308.3854487619093,-177.38905021700793,0.1326852913455256,-149.9893089724337,50.7957,0.0677,-25.9263,-26.7944,-1.4582,21.1187,79.35759289429919,27.105528576539296,82.5675110769744,-21.60010443793403,-88.94022623697917,-40.68094041612413,4.4077542748781715,1.360414712735922,2.2964349123510983,-3.739327324761285,-0.13570149739583334,4.274732801649305,1.2582,0.0952,2.8717,0.00097,-0.02473,-0.03853,0.0009338908712379634,0.0010000265901908278,0.0008836952620185912,0.0006038934807293117,0.0004982045502401888,0.0004169631574768573,0.008648098446428776,0.011091460473835468,0.011656949296593666,passive,0
3.2611,rehab,medium,23.504234352974454,-666.6273178033524,307.7714149122466,-177.38927760947533,0.1328954902812462,-149.98798675592806,48.5463,0.0303,-24.5844,-24.6516,-2.0797,10.9748,79.46333630250231,27.138208823628943,82.62144334245436,-21.689665052625866,-88.94338819715712,-40.577545166015625,4.4077542748781715,1.360414712735922,2.151817850547262,-3.7772030300564237,-0.13570149739583334,4.342592027452257,1.2,-0.0033,2.345,0.00771,-0.02655,-0.03611,0.0009338908712379634,0.0010000265901908278,0.0008836952620185912,0.0006038934807293117,0.0004982045502401888,0.0004169631574768573,0.008648098446428776,0.011091460473835468,0.011656949296593666,passive,0
3.281,rehab,medium,24.303209801614297,-666.6282630821007,307.37860483510417,-177.38809590417716,0.13187163992433307,-149.98807284095022,48.0311,-0.0373,-24.3406,-20.19,-2.1514,-1.7416,79.5329458406656,27.15946084201926,82.65606795207108,-21.749276055230034,-88.94552442762587,-40.50853305392795,4.298924361125077,1.305999755859375,2.1619611683458384,-3.7085723876953125,-0.06785074869791667,4.274732801649305,1.2379,0.1365,2.565,0.00969,-0.02353,-0.03091,0.0009338908712379634,0.0010000265901908278,0.0008836952620185912,0.0006038934807293117,0.0004982045502401888,0.0004169631574768573,0.008648098446428776,0.011091460473835468,0.011656949296593666,passive,0
3.301,rehab,medium,25.505545718007895,-666.6297153082652,306.7603273217811,-177.38841334335518,0.13204457536776715,-149.98729642549648,47.8888,-0.1062,-24.6464,-10.3567,-1.7792,-17.5469,79.63772386607558,27.193358015305925,82.70881728370591,-21.838802761501736,-88.94877115885417,-40.40556165907118,4.462176030225093,1.5236663818359375,2.195912729395498,-3.6923980712890625,-0.13570149739583334,4.274732801649305,1.3889,0.1097,2.0552,0.01326,-0.03373,-0.03357,0.0009338908712379634,0.0010000265901908278,0.0008836952620185912,0.0006038934807293117,0.0004982045502401888,0.0004169631574768573,0.008648098446428776,0.011091460473835468,0.011656949296593666,passive,0
3.3211,rehab,medium,26.318710106679944,-666.6323577064675,306.34229150903764,-177.38831214080648,0.1319424664498569,-149.9857311436831,48.8867,-0.1505,-25.8781,20.2086,-0.9738,-43.6968,79.70861831513962,27.216669970219677,82.74399936789334,-21.89959208170573,-88.95089891221788,-40.33693101671007,4.462176030225093,1.5780813387124846,2.1901068356957767,-3.8573455810546875,-0.20355224609375,4.410442776150173,1.1753,0.1029,2.7453,-0.00783,-0.02009,-0.03649,0.0009338908712379634,0.0010000265901908278,0.0008836952620185912,0.0006038934807293117,0.0004982045502401888,0.0004169631574768573,0.008648098446428776,0.011091460473835468,0.011656949296593666,passive,0
3.3408,rehab,medium,27.123382182029488,-666.6371452898572,305.91067662048124,-177.3887553925493,0.13234192121824503,-149.9850193295905,49.5742,-0.1458,-27.1269,46.5578,0.2873,-64.7685,79.76131325901144,27.234883072352645,82.77044541764967,-21.94552951388889,-88.95245869954427,-40.28536478678385,4.298924361125077,1.5236663818359375,2.2378456946646814,-3.9019097222222223,-0.13570149739583334,4.274732801649305,1.2709,0.0566,1.9139,0.00123,-0.02668,-0.03076,0.0009338908712379634,0.0010000265901908278,0.0008836952620185912,0.0006038934807293117,0.0004982045502401888,0.0004169631574768573,0.008648098446428776,0.011091460473835468,0.011656949296593666,passive,0
3.3609,rehab,medium,28.314178779008127,-666.6407118368608,305.24580294472116,-177.38943191343557,0.13298880674050023,-149.98652468897336,50.0741,-0.1005,-28.2759,44.2068,1.7449,-67.9399,79.88268635060527,27.278352491926437,82.83472495503945,-22.055884467230904,-88.9561547173394,-40.16386244032118,4.190087648901609,1.5780813387124846,2.3527194485806002,-3.9049445258246527,-0.06785074869791667,4.47829352484809,1.2855,0.0866,2.201,0.00454,-0.03001,-0.03155,0.0009338908712379634,0.0010000265901908278,0.0008836952620185912,0.0006038934807293117,0.0004982045502401888,0.0004169631574768573,0.008648098446428776,0.011091460473835468,0.011656949296593666,passive,0
3.3809,rehab,medium,29.109763327809674,-666.6416056773814,304.7859125876603,-177.39021047765056,0.13351827747848227,-149.98679717560344,50.8347,-0.0542,-29.5935,35.0414,2.7434,-68.7811,79.93469464896928,27.297483387559947,82.86352327554533,-22.104534573025173,-88.95782470703125,-40.11199951171875,4.298924361125077,1.6325030940594059,2.398282797029703,-4.1191864013671875,-0.13570149739583334,4.274732801649305,1.326,0.1032,2.6561,-0.00904,-0.01848,-0.03657,0.0009338908712379634,0.0010000265901908278,0.0008836952620185912,0.0006038934807293117,0.0004982045502401888,0.0004169631574768573,0.008648098446428776,0.011091460473835468,0.011656949296593666,passive,0
3.4011,rehab,medium,30.506311705592314,-666.6422964624551,303.96115400607863,-177.39074980671867,0.13393380970120983,-149.98712998549985,52.1079,-0.0048,-31.214,18.3441,2.9373,-66.6484,80.07392052376625,27.35013754060953,82.9417872664952,-22.239032321506077,-88.96209716796875,-39.97412787543403,4.462176030225093,1.686918050935953,2.599537915522509,-4.324713812934028,-0.06785074869791667,4.342592027452257,1.5251,0.2447,2.3646,0.01247,-0.03753,-0.03577,0.0009338908712379634,0.0010000265901908278,0.0008836952620185912,0.0006038934807293117,0.0004982045502401888,0.0004169631574768573,0.008648098446428776,0.011091460473835468,0.011656949296593666,passive,0
3.4208,rehab,medium,31.312933547350124,-666.6408023392146,303.4663978978093,-177.39103607028855,0.13421304509387297,-149.98639560457525,53.077,0.0569,-32.7868,-5.2885,2.2108,-59.512,80.14426429672997,27.3776373532739,82.98331232354192,-22.309799194335938,-88.96416558159721,-39.90532769097222,4.298924361125077,1.7413330078125,2.6033722528136605,-4.564014010959201,-0.13570149739583334,4.206882052951388,1.3987,0.122,2.313,0.00143,-0.03597,-0.03565,0.0009338908712379634,0.0010000265901908278,0.0008836952620185912,0.0006038934807293117,0.0004982045502401888,0.0004169631574768573,0.008648098446428776,0.011091460473835468,0.011656949296593666,passive,0
3.4409,rehab,medium,32.530447935311216,-666.6372050983916,302.705956841156,-177.39021695157317,0.133601001542312,-149.98544926918237,51.4146,0.1242,-33.1012,-23.8744,0.8449,-55.873,80.25044960550743,27.41978107112469,83.04792498598005,-22.420806884765625,-88.96727667914496,-39.80135599772135,4.516590987101639,1.795747964689047,2.8023430852606745,-4.803382025824653,-0.13570149739583334,4.410442776150173,1.4764,0.2675,1.9948,0.01844,-0.02614,-0.02891,0.0009338908712379634,0.0010000265901908278,0.0008836952620185912,0.0006038934807293117,0.0004982045502401888,0.0004169631574768573,0.008648098446428776,0.011091460473835468,0.011656949296593666,passive,0
3.4609,rehab,medium,33.33410913847585,-666.636911028672,302.18030849342557,-177.38914706829087,0.13275429400621513,-149.98536751932997,50.9343,0.1427,-34.4266,-36.5318,-0.4767,-56.1657,80.32059622283029,27.44914366467164,83.09244816846187,-22.49820285373264,-88.96934509277344,-39.73217434353298,4.298924361125077,1.9045846769125154,2.859069522064511,-4.850658840603298,-0.20355224609375,4.274732801649305,1.4579,0.2375,2.2669,0.00331,-0.0295,-0.03236,0.0009338908712379634,0.0010000265901908278,0.0008836952620185912,0.0006038934807293117,0.0004982045502401888,0.0004169631574768573,0.008648098446428776,0.011091460473835468,0.011656949296593666,passive,0
3.4808,rehab,medium,34.53814803095186,-666.6352239094654,301.35386653518066,-177.38752887798606,0.13141034187410566,-149.9851998867929,50.6976,0.1072,-36.2523,-38.8153,-1.3536,-59.388,80.4257073732886,27.495189704517326,83.1626015842551,-22.619713677300346,-88.97248162163628,-39.62861802842882,4.462176030225093,1.9589996337890625,3.0974102964495667,-5.262035793728298,-0.06785074869791667,4.342592027452257,1.298,0.267,2.1267,-0.00479,-0.01327,-0.03196,0.0009338908712379634,0.0010000265901908278,0.0008836952620185912,0.0006038934807293117,0.0004982045502401888,0.0004169631574768573,0.008648098446428776,0.011091460473835468,0.011656949296593666,passive,0
3.5008,rehab,medium,35.33236116020348,-666.6322137447008,300.7772100118038,-177.38668626640722,0.13075126212653165,-149.98580540209434,48.4417,0.0401,-36.2951,-30.2106,-1.7182,-62.3658,80.49503137569616,27.527108522925047,83.21173412965075,-22.703967624240452,-88.97453308105469,-39.55964830186632,4.135672692025062,2.122251302889078,3.164953099619044,-5.18051995171441,-0.06785074869791667,4.206882052951388,1.5303,0.3396,2.4101,0.00333,-0.03198,-0.03554,0.0009338908712379634,0.0010000265901908278,0.0008836952620185912,0.0006038934807293117,0.0004982045502401888,0.0004169631574768573,0.008648098446428776,0.011091460473835468,0.011656949296593666,passive,0
3.5211,rehab,medium,36.522109927448994,-666.6279470233193,299.8553191776489,-177.3873794981401,0.13133908366664257,-149.98662390387736,48.3079,-0.0337,-37.8662,-11.7018,-1.8035,-66.7415,80.59891200301671,27.578436974251623,83.28883558216661,-22.834676106770832,-88.97761874728732,-39.45643954806857,4.190087648901609,2.176666259765625,3.103209391678914,-5.58333502875434,-0.13570149739583334,4.342592027452257,1.5207,0.2645,2.127,0.00881,-0.02735,-0.03863,0.0009338908712379634,0.0010000265901908278,0.0008836952620185912,0.0006038934807293117,0.0004982045502401888,0.0004169631574768573,0.008648098446428776,0.011091460473835468,0.011656949296593666,passive,0
3.5408,rehab,medium,37.31749295129053,-666.6278129289994,299.20832816784684,-177.3887098580329,0.13241294465269168,-149.98759544462018,48.5959,-0.0698,-39.5311,0.9156,-1.4327,-64.5311,80.66841956412438,27.61499234945467,83.34171408473856,-22.924541897243923,-88.9797125922309,-39.386986626519096,4.4077542748781715,2.3399179288656407,3.3826945087697244,-5.714111328125,-0.13570149739583334,4.274732801649305,1.5847,0.2149,1.9744,0.00397,-0.03611,-0.04211,0.0009338908712379634,0.0010000265901908278,0.0008836952620185912,0.0006038934807293117,0.0004982045502401888,0.0004169631574768573,0.008648098446428776,0.011091460473835468,0.011656949296593666,passive,0
3.5611,rehab,medium,38.50817918941678,-666.6352473555471,298.2137113777416,-177.38954737755176,0.13313073790290988,-149.9879508365135,49.3599,-0.0593,-41.268,12.2993,-0.4657,-63.9133,80.77259252567103,27.672228671536587,83.42190204280438,-23.06403266059028,-88.98275587293837,-39.284049140082466,4.4077542748781715,2.3943328857421875,3.3652496337890625,-5.928717719184028,-0.06785074869791667,4.274732801649305,1.5003,0.246,2.1058,0.00585,-0.02349,-0.03308,0.0009338908712379634,0.0010000265901908278,0.0008836952620185912,0.0006038934807293117,0.0004982045502401888,0.0004169631574768573,0.008648098446428776,0.011091460473835468,0.011656949296593666,passive,0
3.5806,rehab,medium,39.30358196864059,-666.6384609288862,297.54081988943545,-177.38959376899015,0.13320602699470147,-149.98804017586687,49.8983,-0.0212,-42.4914,33.717,0.566,-75.4837,80.84216807148245,27.710877975614945,83.47652775226253,-23.159332275390625,-88.98476494683159,-39.21546936035156,4.244502605778156,2.3943328857421875,3.4678861410310953,-5.899242824978298,-0.13570149739583334,4.206882052951388,1.4074,0.2496,2.1717,-0.01142,-0.02484,-0.03543,0.0009338908712379634,0.0010000265901908278,0.0008836952620185912,0.0006038934807293117,0.0004982045502401888,0.0004169631574768573,0.008648098446428776,0.011091460473835468,0.011656949296593666,passive,0
3.6009,rehab,medium,40.0951787330076,-666.6406530185443,296.85625242360925,-177.3896239120345,0.13318800008693066,-149.9880275378843,49.8792,-0.0126,-43.1729,35.6945,1.2558,-72.7386,80.91141729071589,27.750179932849242,83.53216643380647,-23.25635274251302,-88.98681640625,-39.1473388671875,4.353339318001624,2.448754641089109,3.5431180141939973,-6.185633341471354,-0.20355224609375,4.342592027452257,1.5624,0.2075,1.892,0.00456,-0.03995,-0.037,0.0009338908712379634,0.0010000265901908278,0.0008836952620185912,0.0006038934807293117,0.0004982045502401888,0.0004169631574768573,0.008648098446428776,0.011091460473835468,0.011656949296593666,passive,0
