t,trajectory_type,trajectory_variant,x,y,z,rx,ry,rz,vx,vy,vz,ax,ay,az,j1,j2,j3,j4,j5,j6,dj1,dj2,dj3,dj4,dj5,dj6,fx,fy,fz,tx,ty,tz,Mx,My,Mz,Bx,By,Bz,Kx,Ky,Kz,mode,comfort
0.0004,rehab,small_fast,80.2226396664136,-666.6338518475687,262.4801668117376,-177.38957604837302,0.13314078554820735,-149.9854615396841,0.4882,0.1085,-0.5809,-16.2783,-4.0166,24.4371,84.42624686968209,30.03407166735961,85.85562526589572,-27.966249254014755,-89.09210205078125,-35.68873087565104,-0.0,-0.0,-0.016431902894879332,0.030229356553819444,-0.06785074869791667,-0.0,1.0922,0.6548,1.6209,-0.00431,-0.02503,-0.02125,0.00082346674753353,0.0010058481711894274,0.0008041733526624739,0.0005070499028079212,0.000505211588460952,0.0004210987826809287,0.010040631517767906,0.008609886281192303,0.01185583509504795,passive,0
0.0208,rehab,small_fast,80.22246814744858,-666.6338449621737,262.48052996299526,-177.3895533797188,0.1331149131051594,-149.98549236100342,0.3118,0.0681,-0.358,-16.0372,-3.4279,21.6924,84.42623327274134,30.034037675007735,85.85561846742536,-27.96625773111979,-89.09210205078125,-35.68871392144097,-0.0,-0.0,-0.005336799243889232,0.025134616427951388,-0.0,0.06785074869791667,1.0976,0.5439,1.208,-0.01114,-0.01771,-0.02344,0.00082346674753353,0.0010058481711894274,0.0008041733526624739,0.0005070499028079212,0.000505211588460952,0.0004210987826809287,0.010040631517767906,0.008609886281192303,0.01185583509504795,passive,0
0.0406,rehab,small_fast,80.22227112203774,-666.6337782907372,262.48086723735497,-177.38952138362262,0.13311282772711786,-149.985512075722,-0.0382,-0.0009,0.0652,-15.4949,-2.2823,16.8191,84.42620607885983,30.034010481126238,85.85562526589572,-27.966266208224827,-89.09209357367621,-35.688722398546005,-0.0,-0.0,-0.0243589193514078,0.030331081814236112,-0.0,0.06785074869791667,1.2249,0.4954,1.5378,-0.0073,-0.02205,-0.02524,0.00082346674753353,0.0010058481711894274,0.0008041733526624739,0.0005070499028079212,0.000505211588460952,0.0004210987826809287,0.010040631517767906,0.008609886281192303,0.01185583509504795,passive,0
0.0607,rehab,small_fast,80.22218338387802,-666.6337169445043,262.48116023754386,-177.3895110969378,0.13309507310431262,-149.9855190682941,-0.4035,-0.0508,0.4689,-15.3519,-1.2179,13.4931,84.42619928038947,30.03398328724474,85.8556320643661,-27.96625773111979,-89.09209357367621,-35.68871392144097,-0.0,-0.0,0.010401659672803218,0.0003306070963541667,0.06785074869791667,-0.0,1.2147,0.6533,0.8473,0.01242,-0.02915,-0.01819,0.00082346674753353,0.0010058481711894274,0.0008041733526624739,0.0005070499028079212,0.000505211588460952,0.0004210987826809287,0.010040631517767906,0.008609886281192303,0.01185583509504795,passive,0
0.0806,rehab,small_fast,80.22060381866693,-666.6337048525648,262.48261308470035,-177.38939592085262,0.13300290589172262,-149.98567241729017,-0.7679,-0.0785,0.8342,-15.9001,-0.3282,12.2239,84.42612449721534,30.033901705600247,85.85562526589572,-27.96627468532986,-89.09208509657118,-35.68871392144097,-0.10882991375309406,-0.05441495687654703,-0.00010197705561571782,-0.03037346733940972,0.06785074869791667,-0.0,1.1347,0.7457,1.25,0.02197,-0.02091,-0.01829,0.00082346674753353,0.0010058481711894274,0.0008041733526624739,0.0005070499028079212,0.000505211588460952,0.0004210987826809287,0.010040631517767906,0.008609886281192303,0.01185583509504795,passive,0
0.1005,rehab,small_fast,80.20622136134547,-666.6336351277278,262.49858594703795,-177.38831131617022,0.13222725734445284,-149.98690311971166,-1.0954,-0.0708,1.0842,-16.0571,0.4143,12.433,84.42481919090346,30.032582802347616,85.855394117903,-27.966105143229164,-89.09210205078125,-35.68871392144097,-0.16324487062964108,-0.10882991375309406,-0.029960858939897896,0.021328396267361112,0.06785074869791667,-0.0,1.245,0.7215,2.0192,0.03093,-0.02555,-0.02031,0.00082346674753353,0.0010058481711894274,0.0008041733526624739,0.0005070499028079212,0.000505211588460952,0.0004210987826809287,0.010040631517767906,0.008609886281192303,0.01185583509504795,passive,0
0.1208,rehab,small_fast,80.17319364083582,-666.6362469425908,262.5316233669714,-177.38612841707962,0.13065543363974041,-149.98964103280662,-1.3467,-0.0402,1.1891,-15.6336,1.1576,13.3848,84.42197063181659,30.030250927009206,85.85439474275796,-27.96546088324653,-89.09211052788628,-35.688815646701386,-0.2176666259765625,-0.2176666259765625,-0.08219350682626857,0.06785074869791667,-0.06785074869791667,-0.0,1.2518,0.7202,2.0524,0.02564,-0.02424,-0.01996,0.00082346674753353,0.0010058481711894274,0.0008041733526624739,0.0005070499028079212,0.000505211588460952,0.0004210987826809287,0.010040631517767906,0.008609886281192303,0.01185583509504795,passive,0
0.1409,rehab,small_fast,80.1212103580138,-666.6404217013134,262.5841844670916,-177.38368300710033,0.12890515440024908,-149.99302390329538,-1.7414,-0.0133,1.4894,-18.6256,1.6363,18.5525,84.41747684289913,30.026668133121905,85.85211045671217,-27.962570190429688,-89.09208509657118,-35.689892239040795,-0.16324487062964108,-0.10882991375309406,-0.07969846819887066,0.16759236653645834,-0.06785074869791667,-0.06785074869791667,1.2751,0.7215,1.9812,0.01814,-0.01917,-0.02271,0.00082346674753353,0.0010058481711894274,0.0008041733526624739,0.0005070499028079212,0.000505211588460952,0.0004210987826809287,0.010040631517767906,0.008609886281192303,0.01185583509504795,passive,0
0.161,rehab,small_fast,80.08689528540339,-666.6402452248868,262.6132984162022,-177.38348260331634,0.12866534571842048,-149.9937076248118,-2.1785,0.0197,1.9317,-27.0697,1.6114,30.1803,84.4144855159344,30.02442463789836,85.8507507626373,-27.959204779730904,-89.09209357367621,-35.6921641031901,-0.2176666259765625,-0.10882991375309406,-0.07546981962600557,0.23116217719184026,-0.0,-0.13570149739583334,1.0856,0.645,1.8574,0.00763,-0.02054,-0.02622,0.00082346674753353,0.0010058481711894274,0.0008041733526624739,0.0005070499028079212,0.000505211588460952,0.0004210987826809287,0.010040631517767906,0.008609886281192303,0.01185583509504795,passive,0
0.1805,rehab,small_fast,80.05513588854056,-666.6382759797903,262.63682892776654,-177.38468320693158,0.12942580742792073,-149.99305809357242,-2.6846,0.0579,2.5762,-37.4496,1.1642,43.6071,84.41169134461053,30.022480275371286,85.84923470374382,-27.95422871907552,-89.09206814236111,-35.695554945203995,-0.16324487062964108,-0.10882991375309406,-0.08475653015741028,0.3392791748046875,-0.0,-0.20355224609375,1.0951,0.6979,1.4472,0.00222,-0.02066,-0.02099,0.00082346674753353,0.0010058481711894274,0.0008041733526624739,0.0005070499028079212,0.000505211588460952,0.0004210987826809287,0.010040631517767906,0.008609886281192303,0.01185583509504795,passive,0
0.2007,rehab,small_fast,79.98952166998257,-666.6333639650268,262.6899847570329,-177.3881753352801,0.13172261716522657,-149.9903652793075,-3.3034,0.0828,3.4087,-48.4446,0.471,56.7798,84.40589904785156,30.018210835976177,85.84523720316368,-27.941546969943577,-89.09197489420573,-35.70390489366319,-0.2176666259765625,-0.2176666259765625,-0.19451783435179457,0.5504777696397569,-0.0,-0.339262220594618,1.139,0.6404,1.9147,0.00569,-0.02306,-0.02753,0.00082346674753353,0.0010058481711894274,0.0008041733526624739,0.0005070499028079212,0.000505211588460952,0.0004210987826809287,0.010040631517767906,0.008609886281192303,0.01185583509504795,passive,0
0.2209,rehab,small_fast,79.92980886948222,-666.632164672509,262.75116047956095,-177.3892999012435,0.13246076095004042,-149.9889842856732,-4.4476,0.0827,4.7643,-59.1735,-0.0857,67.8298,84.40065062872254,30.013757837880956,85.84119211329092,-27.9315185546875,-89.09183078342014,-35.7104237874349,-0.3809114966062036,-0.32649653972965653,-0.2748689557066058,0.6534576416015625,-0.0,-0.4071129692925347,1.2757,0.5301,1.5911,0.0052,-0.03472,-0.02489,0.00082346674753353,0.0010058481711894274,0.0008041733526624739,0.0005070499028079212,0.000505211588460952,0.0004210987826809287,0.010040631517767906,0.008609886281192303,0.01185583509504795,passive,0
0.2406,rehab,small_fast,79.80592481794879,-666.6317038140517,262.8924116368536,-177.3895265520921,0.13270386163905373,-149.98699749181336,-6.1581,0.065,6.6451,-69.4674,-0.5786,75.7378,84.38975947918279,30.00370969866762,85.83252406356358,-27.91211446126302,-89.0913814968533,-35.72308010525173,-0.544163165706219,-0.544163165706219,-0.37048944152227725,0.9085676405164931,-0.0,-0.6106736924913194,1.2765,0.5712,1.6524,0.01307,-0.02991,-0.02625,0.00082346674753353,0.0010058481711894274,0.0008041733526624739,0.0005070499028079212,0.000505211588460952,0.0004210987826809287,0.010040631517767906,0.008609886281192303,0.01185583509504795,passive,0
0.261,rehab,small_fast,79.70192699592009,-666.6303040883869,263.0145160482798,-177.3894918947425,0.13274094991416038,-149.9853229953556,-7.7359,0.0428,8.3058,-84.213,-1.1031,85.5855,84.38060873805887,29.99492607494392,85.82530408802599,-27.89581298828125,-89.09100850423177,-35.73371887207031,-0.5985781225827661,-0.5985781225827661,-0.5329524880588645,1.0758124457465277,0.06785074869791667,-0.7463751898871528,1.1317,0.5264,0.9357,0.01663,-0.02954,-0.02228,0.00082346674753353,0.0010058481711894274,0.0008041733526624739,0.0005070499028079212,0.000505211588460952,0.0004210987826809287,0.010040631517767906,0.008609886281192303,0.01185583509504795,passive,0
0.2805,rehab,small_fast,79.49521113921384,-666.6306478306801,263.24185813204963,-177.38907314524562,0.13253635789470167,-149.98359617438052,-9.4344,0.0118,9.9974,-98.1205,-1.3079,93.987,84.36246362062964,29.978718521571395,85.81178872892173,-27.865990532769096,-89.09033881293402,-35.75325012207031,-0.8162515470297029,-0.8162515470297029,-0.6580239475363552,1.4562649197048612,0.06785074869791667,-0.8820851643880208,1.2032,0.753,2.4138,0.01999,-0.02241,-0.02372,0.00082346674753353,0.0010058481711894274,0.0008041733526624739,0.0005070499028079212,0.000505211588460952,0.0004210987826809287,0.010040631517767906,0.008609886281192303,0.01185583509504795,passive,0
0.3008,rehab,small_fast,79.31757444640982,-666.6326664841006,263.4199578287984,-177.38920946206457,0.13266059225581364,-149.98332862869322,-11.1708,-0.0035,11.6175,-111.8105,-1.1583,102.2139,84.34690192194269,29.966073366675047,85.80091117632271,-27.841839260525173,-89.08984714084201,-35.76880560980903,-1.0339181730062654,-0.9250814607827971,-0.7292243277672493,1.5746222601996527,0.06785074869791667,-1.0177951388888888,1.1936,0.6535,1.9764,0.03127,-0.03527,-0.02394,0.00082346674753353,0.0010058481711894274,0.0008041733526624739,0.0005070499028079212,0.000505211588460952,0.0004210987826809287,0.010040631517767906,0.008609886281192303,0.01185583509504795,passive,0
0.3204,rehab,small_fast,79.0015742502705,-666.6311384725537,263.7410669219565,-177.3893923753973,0.132820002980353,-149.98302205791865,-13.3285,-0.0151,13.5193,-123.0669,-0.7965,109.7044,84.31917775975596,29.942727419409422,85.78224937514503,-27.79880099826389,-89.0889909532335,-35.79634772406684,-1.305999755859375,-1.0883331298828125,-0.783809246403156,1.916139390733507,-0.0,-1.2892066107855902,1.1712,0.5615,1.4245,0.02073,-0.03513,-0.0215,0.00082346674753353,0.0010058481711894274,0.0008041733526624739,0.0005070499028079212,0.000505211588460952,0.0004210987826809287,0.010040631517767906,0.008609886281192303,0.01185583509504795,passive,0
0.3407,rehab,small_fast,78.75092771744518,-666.6287610559397,263.98466761234755,-177.39013905769067,0.13338161013140565,-149.9829647472145,-16.2624,-0.0443,16.0854,-136.7628,-0.1426,121.4371,84.29717790962445,29.924806651502553,85.76815614605894,-27.76523166232639,-89.08831278483073,-35.818023681640625,-1.4148296696124691,-1.251584798982828,-0.9502561965791305,2.2055562337239585,0.06785074869791667,-1.4249081081814237,1.1601,0.4905,2.0056,0.01574,-0.03416,-0.03122,0.00082346674753353,0.0010058481711894274,0.0008041733526624739,0.0005070499028079212,0.000505211588460952,0.0004210987826809287,0.010040631517767906,0.008609886281192303,0.01185583509504795,passive,0
0.3605,rehab,small_fast,78.47047573541724,-666.6305376339307,264.26218850292105,-177.39033046752436,0.1335559944849836,-149.9831086760908,-19.2533,-0.0475,18.6981,-152.448,0.6678,136.8291,84.27260143922106,29.90497551342048,85.75143870740834,-27.727737426757812,-89.08755832248264,-35.84203084309896,-1.6325030940594059,-1.360414712735922,-1.140062690961479,2.471372816297743,-0.0,-1.696319580078125,1.0689,0.5638,1.8503,0.02317,-0.03859,-0.0186,0.00082346674753353,0.0010058481711894274,0.0008041733526624739,0.0005070499028079212,0.000505211588460952,0.0004210987826809287,0.010040631517767906,0.008609886281192303,0.01185583509504795,passive,0
0.3808,rehab,small_fast,77.98254623015649,-666.6336575360489,264.747050714658,-177.38992274802482,0.13333792387517182,-149.9836723832875,-22.3367,-0.0263,21.4713,-158.1599,1.3033,143.5738,84.22984585903659,29.870357702274134,85.72253161137647,-27.663480970594616,-89.08624437120226,-35.883492363823784,-2.067836346012531,-1.5236663818359375,-1.2329161993347773,2.9465738932291665,-0.0,-1.8998803032769096,1.2995,0.5431,2.1444,0.04553,-0.0353,-0.02452,0.00082346674753353,0.0010058481711894274,0.0008041733526624739,0.0005070499028079212,0.000505211588460952,0.0004210987826809287,0.010040631517767906,0.008609886281192303,0.01185583509504795,passive,0
0.4007,rehab,small_fast,77.61527459258846,-666.6329978521958,265.09804258171556,-177.3906506848955,0.13385905315085855,-149.98370462508402,-25.4687,0.0024,24.3585,-153.4593,1.5553,140.6496,84.19764150487315,29.844917826133198,85.7017690828531,-27.615475124782986,-89.08528645833333,-35.915120442708336,-2.0134145906656093,-1.6325030940594059,-1.3774040902015006,3.0982801649305554,0.06785074869791667,-2.103441026475694,1.0448,0.7141,2.5942,0.01778,-0.03307,-0.02362,0.00082346674753353,0.0010058481711894274,0.0008041733526624739,0.0005070499028079212,0.000505211588460952,0.0004210987826809287,0.010040631517767906,0.008609886281192303,0.01185583509504795,passive,0
0.4208,rehab,small_fast,76.87787375904949,-666.6363429951666,265.798395885677,-177.39076657733014,0.13394034624372944,-149.98397923389197,-28.4187,0.049,27.1261,-137.5619,1.4512,127.2003,84.13302884243502,29.794683928536898,85.66008766098778,-27.52159966362847,-89.08336215549045,-35.9783935546875,-2.503169597965656,-1.9045846769125154,-1.5884829983852877,3.6069827609592013,0.06785074869791667,-2.4427032470703125,1.016,0.4511,2.089,0.00911,-0.03861,-0.03051,0.00082346674753353,0.0010058481711894274,0.0008041733526624739,0.0005070499028079212,0.000505211588460952,0.0004210987826809287,0.010040631517767906,0.008609886281192303,0.01185583509504795,passive,0
0.4408,rehab,small_fast,76.40219538151385,-666.6330744460308,266.2376454329525,-177.39108747983468,0.13421449324901755,-149.98483029668685,-31.7151,0.1061,30.2624,-115.3829,0.7968,107.0897,84.09129983127707,29.762472775903078,85.63499450683594,-27.46271769205729,-89.08209906684027,-36.01860046386719,-2.7208362239422184,-2.122251302889078,-1.6330809640412283,3.774100409613715,0.06785074869791667,-2.6462639702690973,1.0708,0.6096,2.3105,0.02676,-0.03474,-0.02475,0.00082346674753353,0.0010058481711894274,0.0008041733526624739,0.0005070499028079212,0.000505211588460952,0.0004210987826809287,0.010040631517767906,0.008609886281192303,0.01185583509504795,passive,0
0.4604,rehab,small_fast,75.64641927406898,-666.6295491472935,266.9591244250128,-177.39056834103206,0.13384969753026857,-149.98433991085685,-33.9915,0.1206,32.339,-96.7078,-0.1191,88.9079,84.02500794665649,29.71022653107596,85.59319071250387,-27.36740960015191,-89.08008151584201,-36.084298027886284,-2.7752511808187657,-2.2855029719890934,-1.799099610583617,4.137937757703993,0.06785074869791667,-2.9176754421657987,0.9838,0.5494,2.3656,0.01848,-0.03128,-0.0218,0.00082346674753353,0.0010058481711894274,0.0008041733526624739,0.0005070499028079212,0.000505211588460952,0.0004210987826809287,0.010040631517767906,0.008609886281192303,0.01185583509504795,passive,0
0.4809,rehab,small_fast,75.10546644170547,-666.6251867895361,267.4787590393872,-177.39018112262406,0.13349378831988584,-149.9833636180782,-34.9313,0.0867,33.1159,-87.7796,-0.8693,78.7543,83.97754782497293,29.672563005201887,85.5631686673306,-27.29887220594618,-89.07868279351128,-36.131956312391495,-2.884087893042234,-2.3943328857421875,-1.980877111453821,4.475911458333333,0.06785074869791667,-3.0533854166666665,0.9728,0.516,2.1874,0.00787,-0.02761,-0.02855,0.00082346674753353,0.0010058481711894274,0.0008041733526624739,0.0005070499028079212,0.000505211588460952,0.0004210987826809287,0.010040631517767906,0.008609886281192303,0.01185583509504795,passive,0
0.5008,rehab,small_fast,74.24498566283204,-666.6223037978156,268.30551040747685,-177.38957859519985,0.13306372986303594,-149.98156143933315,-36.6622,0.0483,34.6795,-88.2121,-1.408,77.4281,83.90207120687654,29.61340271600402,85.51412450204981,-27.189212375217014,-89.07635158962674,-36.207987467447914,-3.2650061881188117,-2.557584554842203,-2.139539813051129,4.759716457790798,0.20355224609375,-3.2569376627604165,1.1213,0.5488,2.6771,0.02025,-0.03174,-0.02951,0.00082346674753353,0.0010058481711894274,0.0008041733526624739,0.0005070499028079212,0.000505211588460952,0.0004210987826809287,0.010040631517767906,0.008609886281192303,0.01185583509504795,passive,0
0.5205,rehab,small_fast,73.63159295192384,-666.6216572644454,268.88702864032666,-177.389521417382,0.13305567572396948,-149.98113456618432,-37.4614,-0.0033,35.3661,-86.2257,-1.6707,75.031,83.84828170927445,29.572081613068534,85.478990007155,-27.11126539442274,-89.07469855414496,-36.26131693522135,-3.5370877709719215,-2.61199951171875,-2.2446169711575648,4.994676378038195,0.06785074869791667,-3.324796888563368,1.0721,0.5481,2.656,0.03229,-0.03199,-0.01953,0.00082346674753353,0.0010058481711894274,0.0008041733526624739,0.0005070499028079212,0.000505211588460952,0.0004210987826809287,0.010040631517767906,0.008609886281192303,0.01185583509504795,passive,0
0.5408,rehab,small_fast,72.66121523150758,-666.6258352252268,269.8005002920946,-177.3895771108215,0.13308490860004807,-149.98061905258237,-39.3254,-0.0441,36.9778,-86.8923,-1.404,77.0495,83.76324644183168,29.508060417552986,85.42230436117342,-26.98805914984809,-89.07214694552951,-36.34546915690104,-3.64592448319539,-2.7208362239422184,-2.4617873087967976,5.230017768012153,0.13570149739583334,-3.596208360460069,0.9571,0.4215,2.6752,0.02453,-0.0347,-0.02723,0.00082346674753353,0.0010058481711894274,0.0008041733526624739,0.0005070499028079212,0.000505211588460952,0.0004210987826809287,0.010040631517767906,0.008609886281192303,0.01185583509504795,passive,0
0.5607,rehab,small_fast,71.97025690124788,-666.6291282788115,270.4314700857063,-177.39002565052115,0.1333915325037174,-149.98161050772563,-42.487,-0.0397,39.7878,-102.8383,-0.7395,94.7164,83.7027128616182,29.46389075553063,85.38289362841313,-26.902236938476562,-89.0703837076823,-36.40403747558594,-3.918006066048499,-2.884087893042234,-2.5544572584699874,5.577273898654513,0.06785074869791667,-3.7319098578559027,1.1177,0.401,2.2602,0.03484,-0.04061,-0.02507,0.00082346674753353,0.0010058481711894274,0.0008041733526624739,0.0005070499028079212,0.000505211588460952,0.0004210987826809287,0.010040631517767906,0.008609886281192303,0.01185583509504795,passive,0
0.5805,rehab,small_fast,71.26266582877433,-666.6295622499841,271.09128261193536,-177.38990787561391,0.1333019748918537,-149.98253091831327,-44.7126,-0.0367,41.8283,-112.6458,-0.0885,107.2536,83.64069041639272,29.41766115698484,85.34204161993348,-26.813557942708332,-89.06856113009982,-36.464131673177086,-4.026835979801594,-2.884087893042234,-2.647745868947246,5.586191813151042,0.13570149739583334,-3.799769083658854,1.2361,0.5189,1.869,0.05309,-0.0355,-0.017,0.00082346674753353,0.0010058481711894274,0.0008041733526624739,0.0005070499028079212,0.000505211588460952,0.0004210987826809287,0.010040631517767906,0.008609886281192303,0.01185583509504795,passive,0
0.6005,rehab,small_fast,70.1678607078397,-666.6287586220321,272.12854472561787,-177.3890541746326,0.13265863439447398,-149.98326574429652,-46.4389,-0.0463,43.5235,-103.4788,0.4169,102.8189,83.54470961164719,29.34536622302367,85.27754453149173,-26.67510986328125,-89.06572977701823,-36.55780368381076,-4.081257735148514,-3.047339562142249,-2.7835113223236387,5.812547471788195,0.13570149739583334,-4.071180555555555,1.0233,0.4679,2.4917,0.03433,-0.02921,-0.0233,0.00082346674753353,0.0010058481711894274,0.0008041733526624739,0.0005070499028079212,0.000505211588460952,0.0004210987826809287,0.010040631517767906,0.008609886281192303,0.01185583509504795,passive,0
0.6206,rehab,small_fast,69.41627893842077,-666.6277161688647,272.8348774573841,-177.3891039591191,0.13270062037679362,-149.98388051355107,-47.4525,-0.0415,44.6784,-84.8118,0.6375,89.4729,83.47881203830832,29.29636284856513,85.23298055818765,-26.579606797960068,-89.06378004286024,-36.622000800238716,-4.135672692025062,-2.992917806795328,-2.7910508259688274,5.96433851453993,0.13570149739583334,-3.799769083658854,1.0039,0.3724,2.1298,0.03848,-0.03969,-0.02247,0.00082346674753353,0.0010058481711894274,0.0008041733526624739,0.0005070499028079212,0.000505211588460952,0.0004210987826809287,0.010040631517767906,0.008609886281192303,0.01185583509504795,passive,0
0.6412,rehab,small_fast,68.07978488534296,-666.6255318219318,274.09169495392996,-177.39017029551692,0.1334545848319015,-149.98429090705653,-49.6372,-0.0162,46.9989,-54.0155,0.4266,63.1219,83.36162680446512,29.209845514580756,85.15218073778813,-26.40763176812066,-89.06033833821614,-36.73682318793403,-4.026835979801594,-3.1017545190187965,-3.100639569877398,6.237852308485243,0.13570149739583334,-4.071180555555555,0.8434,0.4231,2.0044,0.016,-0.02943,-0.01809,0.00082346674753353,0.0010058481711894274,0.0008041733526624739,0.0005070499028079212,0.000505211588460952,0.0004210987826809287,0.010040631517767906,0.008609886281192303,0.01185583509504795,passive,0
0.6609,rehab,small_fast,67.30580473957016,-666.6274655389897,274.8252342655313,-177.39078656292222,0.13391659841739498,-149.98434277005492,-52.1416,-0.0029,49.6137,-23.4349,0.1792,34.0594,83.29379166706954,29.160175890025524,85.10370084554842,-26.3067626953125,-89.05832926432292,-36.80346171061198,-4.190087648901609,-3.1561694758953434,-2.9828152798189973,6.427069769965278,0.20355224609375,-3.9354705810546875,0.9805,0.3138,2.3483,0.016,-0.03963,-0.02525,0.00082346674753353,0.0010058481711894274,0.0008041733526624739,0.0005070499028079212,0.000505211588460952,0.0004210987826809287,0.010040631517767906,0.008609886281192303,0.01185583509504795,passive,0
0.6806,rehab,small_fast,66.1285589508789,-666.6334812928973,275.9464230065629,-177.3911513001751,0.13415495777130332,-149.98415861065217,-51.2607,0.004,49.0763,-4.0226,0.2011,14.0021,83.1906520730198,29.085134374033107,85.02848936779664,-26.15309821234809,-89.05530293782552,-36.90504286024306,-4.298924361125077,-3.1017545190187965,-3.199774864876624,6.373969184027778,0.06785074869791667,-4.274732801649305,1.0549,0.375,2.4638,0.02929,-0.03692,-0.02111,0.00082346674753353,0.0010058481711894274,0.0008041733526624739,0.0005070499028079212,0.000505211588460952,0.0004210987826809287,0.010040631517767906,0.008609886281192303,0.01185583509504795,passive,0
0.7005,rehab,small_fast,65.33369175861604,-666.6340248561031,276.709650625429,-177.39114906153392,0.13417387776971096,-149.98429371404998,-50.5748,0.0045,48.6679,10.7509,0.2446,-1.6523,83.12097455015277,29.033996279877012,84.97752803387029,-26.04898240831163,-89.05323452419705,-36.97340223524306,-4.462176030225093,-3.319421144995359,-3.265733624448871,6.489435831705729,0.13570149739583334,-4.071180555555555,0.893,0.3588,3.1256,0.01661,-0.03293,-0.02141,0.00082346674753353,0.0010058481711894274,0.0008041733526624739,0.0005070499028079212,0.000505211588460952,0.0004210987826809287,0.010040631517767906,0.008609886281192303,0.01185583509504795,passive,0
0.7205,rehab,small_fast,64.12271194197392,-666.6299386237525,277.8778733366307,-177.39062746938092,0.13387125064091643,-149.9863122167667,-50.4701,-0.0158,48.613,24.2492,0.0336,-16.5731,83.01477564443456,28.955637110341893,84.89996428536897,-25.89064704047309,-89.0500979953342,-37.0757802327474,-4.516590987101639,-3.319421144995359,-3.362135934357596,6.689665052625868,0.06785074869791667,-4.274732801649305,0.8914,0.3088,1.9494,0.02655,-0.04154,-0.02077,0.00082346674753353,0.0010058481711894274,0.0008041733526624739,0.0005070499028079212,0.000505211588460952,0.0004210987826809287,0.010040631517767906,0.008609886281192303,0.01185583509504795,passive,0
0.7407,rehab,small_fast,63.31128994867245,-666.6256768034217,278.6624417717676,-177.3897495191556,0.13321155875754248,-149.98736835103165,-48.5722,-0.0289,46.745,28.0871,-0.2815,-23.9583,82.94360925655553,28.903132523640547,84.84796278547532,-25.785208808051216,-89.04802958170573,-37.144690619574654,-4.571005943978187,-3.2105844327718907,-3.3827285011215964,6.654052734375,0.20355224609375,-4.139031304253472,0.9583,0.208,1.9719,0.02599,-0.04555,-0.02399,0.00082346674753353,0.0010058481711894274,0.0008041733526624739,0.0005070499028079212,0.000505211588460952,0.0004210987826809287,0.010040631517767906,0.008609886281192303,0.01185583509504795,passive,0
0.7612,rehab,small_fast,62.11344992010604,-666.6278703665926,279.82886077028627,-177.38914893161055,0.13274704673543547,-149.98711627354518,-48.9083,-0.0094,47.0578,13.6896,-0.5772,-16.9922,82.83863407550471,28.826874081451113,84.76744170236115,-25.626135932074654,-89.04494391547308,-37.24811130099826,-4.353339318001624,-3.1017545190187965,-3.3704572620958384,6.69523451063368,0.06785074869791667,-4.206882052951388,0.7469,0.278,2.7679,0.00984,-0.03533,-0.02558,0.00082346674753353,0.0010058481711894274,0.0008041733526624739,0.0005070499028079212,0.000505211588460952,0.0004210987826809287,0.010040631517767906,0.008609886281192303,0.01185583509504795,passive,0
0.7809,rehab,small_fast,61.31314638662718,-666.6289095538425,280.5981092934674,-177.38961471296653,0.13315361174852197,-149.98686056857042,-49.5945,0.0099,47.7991,-0.9901,-0.7275,-10.4044,82.76848745818185,28.776878130317915,84.71347544452932,-25.519510904947914,-89.04283311631944,-37.317301432291664,-4.462176030225093,-3.047339562142249,-3.4476266993154394,6.806064181857638,0.13570149739583334,-4.274732801649305,0.7419,0.3222,2.0577,0.02004,-0.03664,-0.0191,0.00082346674753353,0.0010058481711894274,0.0008041733526624739,0.0005070499028079212,0.000505211588460952,0.0004210987826809287,0.010040631517767906,0.008609886281192303,0.01185583509504795,passive,0
0.8009,rehab,small_fast,60.09867698467369,-666.6340498965156,281.73409513127865,-177.39067509866922,0.13401181212247734,-149.98834406443675,-49.2514,-0.0158,47.2744,-8.3202,-0.5062,-11.9579,82.66210499376353,28.703699395208076,84.63260084095567,-25.361039903428818,-89.03971354166667,-37.42039998372396,-4.462176030225093,-3.1561694758953434,-3.4021857233330755,6.527514987521701,0.13570149739583334,-4.206882052951388,0.7395,0.2619,2.7672,0.02061,-0.0253,-0.02164,0.00082346674753353,0.0010058481711894274,0.0008041733526624739,0.0005070499028079212,0.000505211588460952,0.0004210987826809287,0.010040631517767906,0.008609886281192303,0.01185583509504795,passive,0
0.8209,rehab,small_fast,59.29130922370133,-666.6355946079512,282.50001336170527,-177.39022238092724,0.13362466914273874,-149.9884999746871,-49.6861,-0.0596,47.1595,-25.4237,-0.085,-7.5907,82.59137370798847,28.654444477345685,84.57852580759784,-25.256245930989582,-89.0376705593533,-37.48978508843316,-4.4077542748781715,-3.047339562142249,-3.316728950727104,6.404156155056423,0.06785074869791667,-4.206882052951388,0.6527,0.2112,2.1283,0.01132,-0.03103,-0.01408,0.00082346674753353,0.0010058481711894274,0.0008041733526624739,0.0005070499028079212,0.000505211588460952,0.0004210987826809287,0.010040631517767906,0.008609886281192303,0.01185583509504795,passive,0
0.8407,rehab,small_fast,58.50057541381701,-666.6335473210694,283.26526579833603,-177.38930778766397,0.13292698206932846,-149.98762959720221,-49.8124,-0.0774,46.3918,-28.6511,0.228,-16.9524,82.52204970558091,28.605175962542543,84.5248246901106,-25.15237596299913,-89.03560214572482,-37.558797200520836,-4.298924361125077,-3.1561694758953434,-3.353454287689511,6.40915764702691,0.13570149739583334,-4.274732801649305,0.7196,0.1422,2.3018,0.01234,-0.04088,-0.01609,0.00082346674753353,0.0010058481711894274,0.0008041733526624739,0.0005070499028079212,0.000505211588460952,0.0004210987826809287,0.010040631517767906,0.008609886281192303,0.01185583509504795,passive,0
0.8609,rehab,small_fast,57.13060935670636,-666.627895848682,284.56764102351127,-177.38804296194385,0.13196744401007746,-149.9846073547803,-50.3426,-0.0687,45.8654,-7.8079,0.5712,-47.1561,82.4019207340656,28.52147319529316,84.4330861308787,-24.974916246202255,-89.03194851345486,-37.67992655436198,-4.4077542748781715,-2.992917806795328,-3.2899361789816677,6.095182630750868,0.13570149739583334,-4.410442776150173,0.6882,0.1387,2.0947,0.01317,-0.0267,-0.01923,0.00082346674753353,0.0010058481711894274,0.0008041733526624739,0.0005070499028079212,0.000505211588460952,0.0004210987826809287,0.010040631517767906,0.008609886281192303,0.01185583509504795,passive,0
0.8806,rehab,small_fast,56.34186346111587,-666.6298728729773,285.27933742362495,-177.3884388835563,0.1323055795482594,-149.9836580138682,-50.4923,-0.0251,44.9638,9.365,1.0672,-68.8161,82.33282787965075,28.476446926003636,84.38130218203705,-24.875530666775173,-89.02984619140625,-37.74883694118923,-4.353339318001624,-2.8296661376953125,-3.1774622851079055,6.124827067057291,0.13570149739583334,-4.274732801649305,0.817,0.3063,2.5317,0.02954,-0.02813,-0.02015,0.00082346674753353,0.0010058481711894274,0.0008041733526624739,0.0005070499028079212,0.000505211588460952,0.0004210987826809287,0.010040631517767906,0.008609886281192303,0.01185583509504795,passive,0
0.9009,rehab,small_fast,55.13386236585753,-666.638073063478,286.3109099050633,-177.38949691583989,0.13308797555582713,-149.98409818424958,-51.2773,0.0311,44.1644,18.9341,1.391,-82.2482,82.22711166532913,28.41171189109878,84.30519330619585,-24.730275472005207,-89.02674357096355,-37.85246107313368,-4.516590987101639,-2.61199951171875,-3.134835875860535,5.874582926432292,0.13570149739583334,-4.274732801649305,0.6628,0.2491,2.1061,0.02172,-0.02873,-0.02,0.00082346674753353,0.0010058481711894274,0.0008041733526624739,0.0005070499028079212,0.000505211588460952,0.0004210987826809287,0.010040631517767906,0.008609886281192303,0.01185583509504795,passive,0
0.9209,rehab,small_fast,54.32563787668557,-666.6405476201248,286.97714215048416,-177.3903582278155,0.13372907389631974,-149.9848523829661,-51.5256,0.0509,42.9796,23.4423,1.1022,-92.9724,82.15635998414294,28.36958856865911,84.25647546749303,-24.63629828559028,-89.02467515733507,-37.921388414171005,-4.353339318001624,-2.61199951171875,-3.1081042903484684,5.817803276909722,0.13570149739583334,-4.342592027452257,0.7729,0.0001,2.2543,0.01643,-0.04789,-0.01922,0.00082346674753353,0.0010058481711894274,0.0008041733526624739,0.0005070499028079212,0.000505211588460952,0.0004210987826809287,0.010040631517767906,0.008609886281192303,0.01185583509504795,passive,0
0.9405,rehab,small_fast,53.12138179719349,-666.6379665641723,287.95993212308963,-177.3900871277326,0.1335955570325775,-149.9851147534574,-48.6343,0.0482,39.0205,24.2003,0.2172,-99.6034,82.0508613208733,28.306777500870204,84.18639683487392,-24.500596788194443,-89.02145385742188,-38.02507188585069,-4.353339318001624,-2.448754641089109,-2.8049401009436883,5.5294545491536455,0.13570149739583334,-4.47829352484809,0.8991,0.2169,2.7589,0.03737,-0.04643,-0.01682,0.00082346674753353,0.0010058481711894274,0.0008041733526624739,0.0005070499028079212,0.000505211588460952,0.0004210987826809287,0.010040631517767906,0.008609886281192303,0.01185583509504795,passive,0
0.9605,rehab,small_fast,52.33691818853056,-666.6306661858443,288.59144375048083,-177.38974928130983,0.13335721573840514,-149.9841341005863,-47.2815,0.0479,36.4948,15.0851,-0.8616,-97.9326,81.98207439762531,28.265857507686803,84.1423495453183,-24.413977728949654,-89.01932610405815,-38.0938466389974,-4.190087648901609,-2.503169597965656,-2.7826683119972153,5.358208550347222,0.13570149739583334,-4.206882052951388,0.6384,0.1281,2.3796,0.02756,-0.0462,-0.01363,0.00082346674753353,0.0010058481711894274,0.0008041733526624739,0.0005070499028079212,0.000505211588460952,0.0004210987826809287,0.010040631517767906,0.008609886281192303,0.01185583509504795,passive,0
0.9807,rehab,small_fast,51.15007146162421,-666.6252731386825,289.5007619533739,-177.3887628872085,0.13251317875860855,-149.9837800982818,-48.1205,0.0428,35.5565,-2.6013,-1.4284,-87.041,81.87811218866027,28.207356670115253,84.07849151309173,-24.28982204861111,-89.01621500651042,-38.19674173990885,-4.244502605778156,-2.3943328857421875,-2.606689906356358,5.127521091037326,0.13570149739583334,-4.410442776150173,0.6381,0.0409,2.1896,0.02443,-0.03474,-0.01931,0.00082346674753353,0.0010058481711894274,0.0008041733526624739,0.0005070499028079212,0.000505211588460952,0.0004210987826809287,0.010040631517767906,0.008609886281192303,0.01185583509504795,passive,0
1.0008,rehab,small_fast,50.35186178637125,-666.6254001231692,290.0711735716996,-177.38860661736905,0.13236294902555343,-149.98383414151155,-49.383,0.0052,34.639,-26.1339,-1.0809,-67.4405,81.80825110709313,28.17091686890857,84.03777547401957,-24.210806952582466,-89.01410420735677,-38.26564364963107,-4.4077542748781715,-2.2855029719890934,-2.525611348671488,4.743915134006076,0.13570149739583334,-4.206882052951388,0.7216,0.1509,2.328,0.02765,-0.0406,-0.01604,0.00082346674753353,0.0010058481711894274,0.0008041733526624739,0.0005070499028079212,0.000505211588460952,0.0004210987826809287,0.010040631517767906,0.008609886281192303,0.01185583509504795,passive,0
1.0205,rehab,small_fast,49.55255524760515,-666.6309280264995,290.6228936581481,-177.38820249635302,0.13203824978679363,-149.9838104742028,-49.6747,-0.0443,33.1048,-46.562,-0.078,-42.2953,81.73836963011486,28.136271863880722,83.99752852940323,-24.134351942274304,-89.01196797688802,-38.33467271592882,-4.298924361125077,-2.122251302889078,-2.408269750009669,4.793404473198785,0.13570149739583334,-4.342592027452257,0.6519,-0.0487,2.0293,0.02045,-0.03412,-0.01973,0.00082346674753353,0.0010058481711894274,0.0008041733526624739,0.0005070499028079212,0.000505211588460952,0.0004210987826809287,0.010040631517767906,0.008609886281192303,0.01185583509504795,passive,0
1.041,rehab,small_fast,48.346114463628545,-666.6352638754487,291.40935741951904,-177.38852015298608,0.1322703367161232,-149.98394213430058,-50.6065,-0.0754,32.0284,-42.1793,1.1418,-31.5398,81.63286416837485,28.086309905099398,83.94063892931041,-24.023963080512154,-89.0087381998698,-38.438780042860245,-4.516590987101639,-1.9589996337890625,-2.2614227899230355,4.376051161024305,0.13570149739583334,-4.206882052951388,0.6311,0.1432,3.0034,0.03929,-0.03118,-0.02078,0.00082346674753353,0.0010058481711894274,0.0008041733526624739,0.0005070499028079212,0.000505211588460952,0.0004210987826809287,0.010040631517767906,0.008609886281192303,0.01185583509504795,passive,0
1.0607,rehab,small_fast,47.33162241769339,-666.638306010902,292.0282748741909,-177.3893342636423,0.13293028928580702,-149.9849935482619,-52.1027,-0.0403,31.864,-23.1698,1.9778,-32.22,81.54415772692992,28.046763202931622,83.89593898659885,-23.936047024197048,-89.00601704915364,-38.525424533420136,-4.4077542748781715,-2.0134145906656093,-2.3050145819635675,4.249225192599826,0.06785074869791667,-4.342592027452257,0.525,0.0913,2.3734,0.03583,-0.04007,-0.01145,0.00082346674753353,0.0010058481711894274,0.0008041733526624739,0.0005070499028079212,0.000505211588460952,0.0004210987826809287,0.010040631517767906,0.008609886281192303,0.01185583509504795,passive,0
1.0806,rehab,small_fast,46.12210630885529,-666.6352851156861,292.75106867682916,-177.3904611191503,0.13385082852362962,-149.98577286375885,-52.3536,0.0534,31.4158,-3.5909,2.1125,-30.5272,81.43832593861192,27.999935338992884,83.84467851997601,-23.833355373806423,-89.00274488661024,-38.62929450141059,-4.4077542748781715,-1.8501697200359684,-2.180378224590037,4.208255343967013,0.13570149739583334,-4.47829352484809,0.5556,0.1343,2.3063,0.04752,-0.03924,-0.01169,0.00082346674753353,0.0010058481711894274,0.0008041733526624739,0.0005070499028079212,0.000505211588460952,0.0004210987826809287,0.010040631517767906,0.008609886281192303,0.01185583509504795,passive,0
1.1005,rehab,small_fast,45.311815473970114,-666.6307667443705,293.2312143134755,-177.39071624732466,0.13403491041454788,-149.98670660061094,-52.2056,0.1409,31.1045,12.9432,1.4894,-29.0622,81.36741109413676,27.968607987507735,83.8112232472637,-23.76615736219618,-89.00059170193143,-38.69850158691406,-4.516590987101639,-1.9589996337890625,-2.1097421174002164,4.146864149305555,0.13570149739583334,-4.342592027452257,0.4035,-0.0581,2.2437,0.03611,-0.03262,-0.00783,0.00082346674753353,0.0010058481711894274,0.0008041733526624739,0.0005070499028079212,0.000505211588460952,0.0004210987826809287,0.010040631517767906,0.008609886281192303,0.01185583509504795,passive,0
1.1208,rehab,small_fast,44.098322586584096,-666.6279154811467,293.94535929847524,-177.3902105955609,0.13355388027620618,-149.98755956057062,-50.6469,0.1915,29.8585,26.1776,0.4035,-30.0572,81.26128017312229,27.92265712624729,83.7608533802599,-23.66736518012153,-88.9973873562283,-38.802642822265625,-4.462176030225093,-1.9045846769125154,-2.1238285480159345,4.073087904188368,0.13570149739583334,-4.47829352484809,0.4956,0.094,2.379,0.04777,-0.04029,-0.00743,0.00082346674753353,0.0010058481711894274,0.0008041733526624739,0.0005070499028079212,0.000505211588460952,0.0004210987826809287,0.010040631517767906,0.008609886281192303,0.01185583509504795,passive,0
1.1405,rehab,small_fast,43.2932809205179,-666.6249311462866,294.4197758385102,-177.38945680204546,0.13294895696112816,-149.98825910814395,-50.1294,0.1701,29.2963,35.5023,-0.8068,-33.1977,81.19086161698445,27.89217278508857,83.7275204800143,-23.602413601345486,-88.99522569444444,-38.871612548828125,-4.353339318001624,-1.9045846769125154,-2.1584327622215347,4.078792995876736,0.13570149739583334,-4.342592027452257,0.4118,0.0049,2.1038,0.02986,-0.04595,-0.01231,0.00082346674753353,0.0010058481711894274,0.0008041733526624739,0.0005070499028079212,0.000505211588460952,0.0004210987826809287,0.010040631517767906,0.008609886281192303,0.01185583509504795,passive,0
1.1604,rehab,small_fast,42.111429789959665,-666.6194762638506,295.12940005841676,-177.38790664358459,0.13176429947313,-149.98667655385603,-50.4316,0.0841,29.1804,29.5574,-1.7739,-28.6829,81.08745688259012,27.84691536780631,83.67730697782913,-23.505723741319443,-88.9919196234809,-38.97548251681857,-4.353339318001624,-1.8501697200359684,-2.084580978544632,4.092670016818576,0.20355224609375,-4.206882052951388,0.3126,0.0292,2.6823,0.0175,-0.0427,-0.01134,0.00082346674753353,0.0010058481711894274,0.0008041733526624739,0.0005070499028079212,0.000505211588460952,0.0004210987826809287,0.010040631517767906,0.008609886281192303,0.01185583509504795,passive,0
1.1805,rehab,small_fast,41.322923758668765,-666.6196128223474,295.5919690172751,-177.38754067503484,0.13147076594772042,-149.98584417378927,-48.8837,-0.0064,27.9482,15.6508,-1.8979,-17.5484,81.01853398993464,27.81806265953744,83.64324664125348,-23.441170586480034,-88.98975796169705,-39.04449462890625,-4.353339318001624,-1.795747964689047,-2.120320537302754,4.0905507405598955,0.13570149739583334,-4.342592027452257,0.3777,-0.0947,2.6182,0.02519,-0.03718,-0.01088,0.00082346674753353,0.0010058481711894274,0.0008041733526624739,0.0005070499028079212,0.000505211588460952,0.0004210987826809287,0.010040631517767906,0.008609886281192303,0.01185583509504795,passive,0
1.2009,rehab,small_fast,40.12448584313191,-666.6190789960609,296.2689794890811,-177.38892932745068,0.13257348422107576,-149.98526116495083,-48.9592,-0.0362,27.7607,3.5383,-1.1946,-4.1585,80.91378995687654,27.776020918742265,83.59219692721226,-23.343115912543404,-88.98651970757378,-39.14869520399306,-4.244502605778156,-1.7413330078125,-2.155835746538521,4.065356784396701,0.13570149739583334,-4.546152750651042,0.3035,-0.0415,1.8758,0.04094,-0.03865,-0.00742,0.00082346674753353,0.0010058481711894274,0.0008041733526624739,0.0005070499028079212,0.000505211588460952,0.0004210987826809287,0.010040631517767906,0.008609886281192303,0.01185583509504795,passive,0
1.2204,rehab,small_fast,39.30833604290512,-666.6211553641873,296.71657799593106,-177.39005476870273,0.13353732801001048,-149.9867864606587,-49.0812,-0.0157,27.8243,-0.1439,-0.0911,5.2781,80.84250799500116,27.748616284663132,83.55772188394377,-23.277638753255207,-88.98433261447482,-39.21769883897569,-4.6798426562016555,-1.6325030940594059,-2.177468479269802,4.148042466905382,0.13570149739583334,-4.342592027452257,0.3454,0.0009,2.2957,0.03445,-0.04829,-0.0124,0.00082346674753353,0.0010058481711894274,0.0008041733526624739,0.0005070499028079212,0.000505211588460952,0.0004210987826809287,0.010040631517767906,0.008609886281192303,0.01185583509504795,passive,0
1.241,rehab,small_fast,38.086911666534576,-666.6261685387449,297.3917565247032,-177.39134017388662,0.13451852485984686,-149.989303750009,-49.2955,0.0057,28.1173,-3.3027,0.9451,12.9997,80.73589438259012,27.707873051709466,83.50502014160156,-23.17941453721788,-88.98118760850694,-39.320670233832466,-4.4077542748781715,-1.686918050935953,-2.2224063684444615,4.0361785888671875,0.20355224609375,-4.546152750651042,0.1422,-0.0816,2.2088,0.00769,-0.04125,-0.01079,0.00082346674753353,0.0010058481711894274,0.0008041733526624739,0.0005070499028079212,0.000505211588460952,0.0004210987826809287,0.010040631517767906,0.008609886281192303,0.01185583509504795,passive,0
1.2606,rehab,small_fast,37.28543752345,-666.6265653065659,297.8548650230124,-177.39115109457623,0.13433017795239624,-149.9893857125017,-49.9289,0.0418,28.8453,-20.2009,1.1009,24.328,80.66589733161548,27.679870152237392,83.46948453695467,-23.114013671875,-88.97906833224826,-39.38983493381076,-4.4077542748781715,-1.7413330078125,-2.172356029548267,4.210425482855903,0.20355224609375,-4.342592027452257,0.0402,-0.0858,2.3105,0.00808,-0.04411,-0.00804,0.00082346674753353,0.0010058481711894274,0.0008041733526624739,0.0005070499028079212,0.000505211588460952,0.0004210987826809287,0.010040631517767906,0.008609886281192303,0.01185583509504795,passive,0
1.2808,rehab,small_fast,36.50012503367472,-666.6231310555642,298.31306418389073,-177.391318417809,0.13456739735972528,-149.98815894843466,-49.5423,0.0741,29.0423,-20.2164,0.2496,20.7007,80.59723957930461,27.65196922982093,83.43444522064512,-23.048663669162327,-88.97684733072917,-39.45896572536892,-4.244502605778156,-1.795747964689047,-2.2558684396271658,4.076241387261285,0.13570149739583334,-4.47829352484809,0.1112,-0.0894,1.8552,0.01788,-0.03239,-0.01061,0.00082346674753353,0.0010058481711894274,0.0008041733526624739,0.0005070499028079212,0.000505211588460952,0.0004210987826809287,0.010040631517767906,0.008609886281192303,0.01185583509504795,passive,0
1.3007,rehab,small_fast,35.12305237688528,-666.6152506214821,299.14031421224496,-177.3899382948689,0.133466904079359,-149.9862322530593,-49.6186,0.0761,29.3535,4.6765,-0.9251,-1.0953,80.47685906438544,27.60183051080987,83.3716885406192,-22.93379889594184,-88.97307501898871,-39.57995096842448,-4.353339318001624,-1.686918050935953,-2.2350651202815595,4.0522511800130205,0.06785074869791667,-4.274732801649305,0.1628,-0.2615,1.7181,0.02036,-0.04571,-0.00667,0.00082346674753353,0.0010058481711894274,0.0008041733526624739,0.0005070499028079212,0.000505211588460952,0.0004210987826809287,0.010040631517767906,0.008609886281192303,0.01185583509504795,passive,0
1.3208,rehab,small_fast,34.33795910977058,-666.614408287516,299.61279278205853,-177.38893302440255,0.13259475072365332,-149.98547360899178,-49.5824,0.0486,29.3037,25.1239,-1.6812,-22.1603,80.40830328913019,27.573888797571165,83.33487482354192,-22.868253919813366,-88.97098965115018,-39.64851379394531,-4.190087648901609,-1.686918050935953,-2.283565407932395,4.116168551974826,0.13570149739583334,-4.47829352484809,0.1306,-0.1951,1.9973,0.02819,-0.03762,-0.00567,0.00082346674753353,0.0010058481711894274,0.0008041733526624739,0.0005070499028079212,0.000505211588460952,0.0004210987826809287,0.010040631517767906,0.008609886281192303,0.01185583509504795,passive,0
1.3407,rehab,small_fast,33.16937737208364,-666.6165074684457,300.30209420463865,-177.38810097468988,0.1318408701302691,-149.98396757057583,-50.668,-0.017,29.4825,38.3034,-1.9469,-38.1014,80.30632623351447,27.533839008595685,83.27973243033532,-22.771013047960068,-88.96787855360243,-39.75088331434462,-4.298924361125077,-1.5780813387124846,-2.3220311533106437,4.048877292209201,0.13570149739583334,-4.071180555555555,0.0191,-0.2634,1.462,0.01863,-0.04231,-0.00209,0.00082346674753353,0.0010058481711894274,0.0008041733526624739,0.0005070499028079212,0.000505211588460952,0.0004210987826809287,0.010040631517767906,0.008609886281192303,0.01185583509504795,passive,0
1.3606,rehab,small_fast,32.39174790471867,-666.6173505141735,300.7481804125605,-177.38812578901113,0.1319474729508665,-149.98347712476578,-49.79,-0.0863,28.4161,48.7977,-1.7128,-49.3312,80.23845710376702,27.508032015054532,83.24357816488435,-22.706866794162327,-88.96572536892361,-39.818505181206596,-4.190087648901609,-1.686918050935953,-2.2429445474454672,3.9615885416666665,0.13570149739583334,-4.139031304253472,0.1858,-0.3436,1.1656,0.0431,-0.04054,0.00139,0.00082346674753353,0.0010058481711894274,0.0008041733526624739,0.0005070499028079212,0.000505211588460952,0.0004210987826809287,0.010040631517767906,0.008609886281192303,0.01185583509504795,passive,0
1.3805,rehab,small_fast,31.238788253418992,-666.6217053747524,301.3905262039099,-177.38905543757312,0.1327701591728195,-149.98292355758923,-45.9602,-0.1339,25.6745,56.5314,-0.9046,-54.5586,80.13790772692992,27.47153102761448,83.19006060609723,-22.612499660915798,-88.96260579427083,-39.918526543511284,-4.298924361125077,-1.4148296696124691,-2.2133304104946627,3.8686286078559027,0.06785074869791667,-4.274732801649305,-0.1324,-0.243,1.1594,0.00898,-0.04111,-0.00238,0.00082346674753353,0.0010058481711894274,0.0008041733526624739,0.0005070499028079212,0.000505211588460952,0.0004210987826809287,0.010040631517767906,0.008609886281192303,0.01185583509504795,passive,0
1.4008,rehab,small_fast,30.480025077893394,-666.6244567611847,301.81497614995624,-177.38919385014083,0.13283099628823153,-149.98358176889147,-44.594,-0.1183,24.4713,64.3393,0.1573,-56.5359,80.07176540865757,27.447539225663288,83.15476294791344,-22.551049126519096,-88.96065606011284,-39.98330858018663,-4.081257735148514,-1.4692514249593904,-2.1716217947478342,3.7905459933810763,0.13570149739583334,-4.0033213297526045,0.1889,-0.2253,1.8113,0.03464,-0.03272,0.00045,0.00082346674753353,0.0010058481711894274,0.0008041733526624739,0.0005070499028079212,0.000505211588460952,0.0004210987826809287,0.010040631517767906,0.008609886281192303,0.01185583509504795,passive,0
1.4207,rehab,small_fast,29.363346205065525,-666.6277290761037,302.4085536669296,-177.39073329300186,0.13411502405972228,-149.98493098651466,-44.8176,-0.079,24.2803,71.9633,1.1297,-57.7689,79.97442490983717,27.41410434836208,83.10454264725789,-22.46242947048611,-88.9577399359809,-40.07828606499566,-3.809169353825031,-1.360414712735922,-2.010851567334468,3.568903605143229,0.13570149739583334,-3.664059109157986,-0.1324,-0.2531,1.8053,0.01003,-0.03118,-0.00315,0.00082346674753353,0.0010058481711894274,0.0008041733526624739,0.0005070499028079212,0.000505211588460952,0.0004210987826809287,0.010040631517767906,0.008609886281192303,0.01185583509504795,passive,0
1.4405,rehab,small_fast,28.639376762163394,-666.6263849086545,302.79703515077,-177.39091190273078,0.13440162366984917,-149.98580802947865,-43.6319,-0.0501,23.3854,62.7946,1.5757,-52.2528,79.9112603215888,27.39186655176748,83.07261023190942,-22.406014336480034,-88.9557393391927,-40.139923095703125,-3.8635911091719524,-1.305999755859375,-2.018397869450031,3.470484415690104,0.13570149739583334,-3.8676198323567705,-0.1681,-0.2123,2.1229,0.00055,-0.0243,-0.00847,0.00082346674753353,0.0010058481711894274,0.0008041733526624739,0.0005070499028079212,0.000505211588460952,0.0004210987826809287,0.010040631517767906,0.008609886281192303,0.01185583509504795,passive,0
1.4606,rehab,small_fast,27.942196739191292,-666.626763573791,303.1716778550041,-177.3908782724226,0.13437167528533372,-149.9860923235661,-42.2768,-0.0037,22.3687,45.8674,1.3614,-47.3043,79.85048199644183,27.37074370431428,83.0414324467725,-22.351888020833332,-88.95389980740018,-40.19979688856337,-3.754754396948484,-1.251584798982828,-1.8987515893312963,3.350575764973958,0.06785074869791667,-3.7319098578559027,-0.1593,-0.3295,0.4188,0.0026,-0.02648,0.00175,0.00082346674753353,0.0010058481711894274,0.0008041733526624739,0.0005070499028079212,0.000505211588460952,0.0004210987826809287,0.010040631517767906,0.008609886281192303,0.01185583509504795,passive,0
1.4805,rehab,small_fast,26.938696677848178,-666.6273718064855,303.70669435482256,-177.39028923249467,0.13381683801445543,-149.98536562514983,-41.2323,0.0217,21.384,59.0978,0.9719,-62.31,79.76301967507541,27.340694465259514,82.9969840474648,-22.275466918945312,-88.95125495062933,-40.287111070421005,-3.428251058748453,-1.251584798982828,-1.7909006553121132,3.0466969807942705,0.13570149739583334,-3.596208360460069,-0.1023,-0.2978,1.4363,0.02499,-0.02832,0.00049,0.00082346674753353,0.0010058481711894274,0.0008041733526624739,0.0005070499028079212,0.000505211588460952,0.0004210987826809287,0.010040631517767906,0.008609886281192303,0.01185583509504795,passive,0
1.5004,rehab,small_fast,26.146312645586722,-666.6252666586458,304.11689172588973,-177.38965975295673,0.1332781152455575,-149.9857634092484,-39.3465,0.0286,19.7217,90.3125,0.7158,-87.0142,79.69393361913096,27.317368913405012,82.96343359616723,-22.217288547092014,-88.94916110568576,-40.35513136121962,-3.482672814095374,-1.0883331298828125,-1.595070716178063,2.8340657552083335,0.06785074869791667,-3.2569376627604165,0.008,-0.2402,1.4298,0.0264,-0.03314,-0.00032,0.00082346674753353,0.0010058481711894274,0.0008041733526624739,0.0005070499028079212,0.000505211588460952,0.0004210987826809287,0.010040631517767906,0.008609886281192303,0.01185583509504795,passive,0
1.5208,rehab,small_fast,25.24567907399652,-666.6279223517531,304.55930665871665,-177.38876063934748,0.1325771864862982,-149.98606911332527,-37.7377,0.0251,17.8915,112.3137,0.4463,-106.1568,79.61549966642173,27.292792443001623,82.92638193262685,-22.154371473524304,-88.94671969943576,-40.432535807291664,-3.2105844327718907,-0.979496417659344,-1.44124172701694,2.456046210394965,0.06785074869791667,-3.121236165364583,-0.1215,-0.3231,1.6028,0.00953,-0.04764,-0.00486,0.00082346674753353,0.0010058481711894274,0.0008041733526624739,0.0005070499028079212,0.000505211588460952,0.0004210987826809287,0.010040631517767906,0.008609886281192303,0.01185583509504795,passive,0
1.5408,rehab,small_fast,24.673320872067883,-666.6241009315706,304.8218369488657,-177.38849059358154,0.13235657834189288,-149.9869693886762,-36.6458,0.0006,16.142,128.0717,-0.0461,-121.4078,79.56558529693301,27.277475489248143,82.90541544999226,-22.116911146375866,-88.94520229763455,-40.48111809624566,-2.884087893042234,-0.9250814607827971,-1.2216103431021812,2.268074883355035,0.13570149739583334,-3.0533854166666665,-0.2492,-0.2911,1.4087,0.00598,-0.03991,-0.00012,0.00082346674753353,0.0010058481711894274,0.0008041733526624739,0.0005070499028079212,0.000505211588460952,0.0004210987826809287,0.010040631517767906,0.008609886281192303,0.01185583509504795,passive,0
1.5605,rehab,small_fast,23.862938075981553,-666.6247627190569,305.1655128811156,-177.3874884836888,0.1314709748866283,-149.98885616493394,-32.891,0.0196,12.9681,140.5942,-0.3824,-129.8595,79.49503756985806,27.2579026930403,82.87748053522394,-22.068600124782986,-88.94309997558594,-40.54922315809462,-2.7752511808187657,-0.7074148348062346,-1.0365083902189047,1.8266635470920138,0.06785074869791667,-2.714114718967014,-0.2953,-0.2364,1.2743,0.00373,-0.03571,0.00121,0.00082346674753353,0.0010058481711894274,0.0008041733526624739,0.0005070499028079212,0.000505211588460952,0.0004210987826809287,0.010040631517767906,0.008609886281192303,0.01185583509504795,passive,0
1.5809,rehab,small_fast,23.35911780181131,-666.625407760634,305.34372521038335,-177.3877211493421,0.13163512130998636,-149.99005890466663,-28.7885,0.057,9.8363,152.2469,-0.4494,-131.1602,79.45119423441368,27.24761660736386,82.8627890407449,-22.042007446289062,-88.94179450141058,-40.59155782063802,-2.6664212670656715,-0.544163165706219,-0.8165302843150526,1.5292188856336806,0.06785074869791667,-2.5784132215711804,-0.2595,-0.288,1.1704,0.00445,-0.02638,-2e-05,0.00082346674753353,0.0010058481711894274,0.0008041733526624739,0.0005070499028079212,0.000505211588460952,0.0004210987826809287,0.010040631517767906,0.008609886281192303,0.01185583509504795,passive,0
1.6008,rehab,small_fast,22.687803826420595,-666.624087132673,305.54536307553474,-177.3885513338858,0.13234514228111527,-149.99038705505484,-25.7229,0.0412,7.3077,164.0228,-0.4279,-128.3325,79.39274098613474,27.235454143864093,82.84661547972424,-22.010760837131077,-88.93996344672308,-40.64932081434462,-2.2855029719890934,-0.3809114966062036,-0.5642730410736386,1.0552978515625,0.06785074869791667,-2.171291775173611,-0.1595,-0.3422,0.9136,0.00433,-0.03222,0.00092,0.00082346674753353,0.0010058481711894274,0.0008041733526624739,0.0005070499028079212,0.000505211588460952,0.0004210987826809287,0.010040631517767906,0.008609886281192303,0.01185583509504795,passive,0
1.6209,rehab,small_fast,22.29241492492548,-666.6248808061052,305.644502895775,-177.38865159694936,0.13242570518172553,-149.9902564547944,-23.0622,-0.0118,4.9843,172.5413,-0.2544,-122.3893,79.35834752451075,27.229376311349398,82.83889921584932,-21.995756361219616,-88.93886990017361,-40.68367004394531,-2.122251302889078,-0.32649653972965653,-0.4018915761815439,0.8112504747178819,0.13570149739583334,-1.9677310519748263,-0.2263,-0.3849,0.9073,0.00307,-0.04448,0.00433,0.00082346674753353,0.0010058481711894274,0.0008041733526624739,0.0005070499028079212,0.000505211588460952,0.0004210987826809287,0.010040631517767906,0.008609886281192303,0.01185583509504795,passive,0
1.6406,rehab,small_fast,21.781187570979586,-666.6249968670917,305.74542373460287,-177.38797922722966,0.1318562603837351,-149.98962876219056,-20.1068,-0.032,2.7242,173.185,-0.2113,-113.8763,79.31387193132154,27.222564244034267,82.83228430417505,-21.98179456922743,-88.93741183810764,-40.728607177734375,-1.7413330078125,-0.2176666259765625,-0.10486640552482983,0.346832275390625,0.13570149739583334,-1.7641703287760415,-0.3713,-0.4621,0.8422,-0.01211,-0.04248,0.00252,0.00082346674753353,0.0010058481711894274,0.0008041733526624739,0.0005070499028079212,0.000505211588460952,0.0004210987826809287,0.010040631517767906,0.008609886281192303,0.01185583509504795,passive,0
1.6605,rehab,small_fast,21.487888073551154,-666.616534685223,305.75983321018555,-177.38904269704597,0.13274649509431702,-149.98974178407033,-16.4962,-0.0118,0.6877,170.4672,-0.1275,-104.9745,79.28822810106938,27.219804065062267,82.83341964872757,-21.977979871961804,-88.93658955891927,-40.75408935546875,-1.4148296696124691,-0.0,0.01075518013227104,0.1272159152560764,-0.0,-1.357057359483507,-0.3616,-0.382,0.8299,-0.00733,-0.0352,0.00578,0.00082346674753353,0.0010058481711894274,0.0008041733526624739,0.0005070499028079212,0.000505211588460952,0.0004210987826809287,0.010040631517767906,0.008609886281192303,0.01185583509504795,passive,0
1.6809,rehab,small_fast,21.23981426793004,-666.6243200960836,305.7425451056497,-177.38995612490942,0.13358387212447054,-149.98929722453727,-12.6459,-0.0061,-1.2528,179.0791,0.462,-103.2991,79.26677892703822,27.22078304479618,82.83414028658726,-21.977750990125866,-88.93582661946614,-40.775977240668404,-1.1971630436359066,0.10882991375309406,0.057549051719136754,-0.10140313042534722,0.06785074869791667,-1.2892066107855902,-0.4027,-0.3634,0.4859,0.00366,-0.02776,0.00724,0.00082346674753353,0.0010058481711894274,0.0008041733526624739,0.0005070499028079212,0.000505211588460952,0.0004210987826809287,0.010040631517767906,0.008609886281192303,0.01185583509504795,passive,0
1.7012,rehab,small_fast,20.933152445575512,-666.6295713182317,305.6968180386466,-177.38976498267817,0.13341262648559252,-149.990732013153,-8.9244,0.0184,-3.4223,194.2893,1.0644,-105.7609,79.24022410175589,27.222326297571165,82.83931392254216,-21.98393079969618,-88.93497890896268,-40.80116271972656,-0.9250814607827971,0.05441495687654703,0.37822610080832303,-0.5025736490885416,-0.0,-0.8142344156901041,-0.4366,-0.4978,0.7867,-0.00477,-0.03395,-0.00011,0.00082346674753353,0.0010058481711894274,0.0008041733526624739,0.0005070499028079212,0.000505211588460952,0.0004210987826809287,0.010040631517767906,0.008609886281192303,0.01185583509504795,passive,0
1.7208,rehab,small_fast,20.77119778455213,-666.6273605824209,305.6295115042352,-177.3874516789073,0.13144595315514943,-149.99126901697,-5.1064,0.0374,-5.6221,197.998,0.879,-104.4427,79.22613087266978,27.22410749680925,82.84890656424041,-21.997909545898438,-88.93446180555556,-40.81487019856771,-0.544163165706219,0.10882991375309406,0.60078762545444,-0.8681657579210069,-0.0,-0.5428229437934028,-0.2041,-0.3874,1.0825,0.00896,-0.02677,0.00068,0.00082346674753353,0.0010058481711894274,0.0008041733526624739,0.0005070499028079212,0.000505211588460952,0.0004210987826809287,0.010040631517767906,0.008609886281192303,0.01185583509504795,passive,0
1.7406,rehab,small_fast,20.707094047069354,-666.6219356342112,305.49203443427695,-177.38483918634117,0.129166939353409,-149.98967227820322,-0.8658,0.0329,-7.9708,189.5522,0.012,-101.3067,79.2205017391998,27.22902279088993,82.865732778417,-22.02288309733073,-88.93415662977431,-40.82237243652344,0.2720815828531095,0.32649653972965653,0.7909884311185025,-1.166593763563368,-0.0,-0.06785074869791667,-0.4356,-0.2419,1.3491,-0.0027,-0.02602,0.00377,0.00082346674753353,0.0010058481711894274,0.0008041733526624739,0.0005070499028079212,0.000505211588460952,0.0004210987826809287,0.010040631517767906,0.008609886281192303,0.01185583509504795,passive,0
1.7609,rehab,small_fast,20.76248123235629,-666.6207052720215,305.35089427201467,-177.38446087749514,0.128836365610981,-149.98488713660078,2.5228,0.0559,-9.7334,182.6114,-0.8768,-99.8963,79.22530145928411,27.235501733156713,82.87973762738822,-22.043863932291668,-88.93408881293402,-40.82259284125434,0.3809114966062036,0.544163165706219,0.9121711655418472,-1.3476223415798612,0.06785074869791667,-0.0,-0.4202,-0.3074,0.7829,0.00194,-0.01805,0.00426,0.00082346674753353,0.0010058481711894274,0.0008041733526624739,0.0005070499028079212,0.000505211588460952,0.0004210987826809287,0.010040631517767906,0.008609886281192303,0.01185583509504795,passive,0
1.7808,rehab,small_fast,20.904487206824243,-666.6200777279148,305.07150471460574,-177.38546027776766,0.12977251504444715,-149.97871656583789,6.6055,0.0571,-11.8304,180.0854,-1.5935,-97.1706,79.23764748148399,27.24899669684986,82.90563300104425,-22.08207024468316,-88.93410576714409,-40.816845364040795,0.6529998779296875,0.6529998779296875,1.2548548632329053,-1.7859056260850694,-0.0,0.6106736924913194,-0.3326,-0.3505,0.4102,0.01181,-0.02493,0.00799,0.00082346674753353,0.0010058481711894274,0.0008041733526624739,0.0005070499028079212,0.000505211588460952,0.0004210987826809287,0.010040631517767906,0.008609886281192303,0.01185583509504795,passive,0
1.8006,rehab,small_fast,21.0372475646804,-666.6179265226526,304.8518717731317,-177.38639947756505,0.1308857755810915,-149.9798382376911,9.7588,-0.0025,-13.3693,173.4801,-1.9741,-90.4157,79.2491640902982,27.259513930519027,82.92609639687113,-22.112002902560764,-88.93419053819444,-40.80453660753038,0.7618297916827815,0.7618297916827815,1.2902273045908106,-1.9531589084201388,-0.0,0.9499359130859375,-0.363,-0.3119,1.9219,-0.00301,-0.034,-0.00656,0.00082346674753353,0.0010058481711894274,0.0008041733526624739,0.0005070499028079212,0.000505211588460952,0.0004210987826809287,0.010040631517767906,0.008609886281192303,0.01185583509504795,passive,0
1.821,rehab,small_fast,21.30169509267005,-666.6220536342202,304.4924123965246,-177.38668342069246,0.13172433916080475,-149.98396913232193,13.0133,-0.0838,-15.2364,172.6245,-1.8083,-87.0536,79.27224489721921,27.27773383112237,82.9586406745533,-22.16284857855903,-88.93447028266058,-40.777884589301216,1.1971630436359066,0.8162515470297029,1.455654484210628,-2.2620730929904513,0.06785074869791667,1.2892066107855902,-0.4556,-0.3912,0.7675,-0.00546,-0.02105,0.00045,0.00082346674753353,0.0010058481711894274,0.0008041733526624739,0.0005070499028079212,0.000505211588460952,0.0004210987826809287,0.010040631517767906,0.008609886281192303,0.01185583509504795,passive,0
1.8406,rehab,small_fast,21.54406579521496,-666.6228697145408,304.2218128406462,-177.38715855718016,0.13258527334890532,-149.98606921922746,16.5482,-0.1306,-17.2967,181.0686,-1.237,-90.3443,79.29334055079092,27.29140555504525,82.98312196637144,-22.20080057779948,-88.93476698133681,-40.755106608072914,1.4148296696124691,0.87066650390625,1.520872210512067,-2.465989854600694,-0.06785074869791667,1.5606180826822915,-0.3607,-0.3009,0.4696,0.00458,-0.02509,0.00164,0.00082346674753353,0.0010058481711894274,0.0008041733526624739,0.0005070499028079212,0.000505211588460952,0.0004210987826809287,0.010040631517767906,0.008609886281192303,0.01185583509504795,passive,0
1.8605,rehab,small_fast,21.838464753156995,-666.6274600247536,303.9335025335988,-177.3873430348259,0.13306143041003554,-149.98712270329654,20.0018,-0.1368,-18.8301,180.5829,-0.1786,-88.1527,79.31903876880608,27.30657974092087,83.00845986545676,-22.24169413248698,-88.93527560763889,-40.72881062825521,1.795747964689047,1.0339181730062654,1.6068524653368657,-2.6857842339409723,-0.06785074869791667,1.7641703287760415,-0.3936,-0.3031,0.9382,0.00178,-0.02691,0.00214,0.00082346674753353,0.0010058481711894274,0.0008041733526624739,0.0005070499028079212,0.000505211588460952,0.0004210987826809287,0.010040631517767906,0.008609886281192303,0.01185583509504795,passive,0
1.8805,rehab,small_fast,22.37157795059524,-666.6270172949096,303.45979119801893,-177.38826879249925,0.13408262527496487,-149.98754468394807,23.6326,-0.1245,-20.3918,172.7896,1.1767,-80.1378,79.36545872452236,27.33086387709816,83.05093670835589,-22.308544582790798,-88.93642849392361,-40.68272060818142,2.0134145906656093,0.979496417659344,1.8679477200649752,-2.942377726236979,-0.13570149739583334,2.103441026475694,-0.4644,-0.4618,0.49,-0.00839,-0.02142,0.00929,0.00082346674753353,0.0010058481711894274,0.0008041733526624739,0.0005070499028079212,0.000505211588460952,0.0004210987826809287,0.010040631517767906,0.008609886281192303,0.01185583509504795,passive,0
1.9007,rehab,small_fast,22.76488731553538,-666.6306680857233,303.1303039210585,-177.38798398499466,0.1337316890260774,-149.98860841255697,27.1862,-0.0753,-21.9112,167.1755,2.2302,-73.2038,79.39981139532411,27.348267961256575,83.0802041233176,-22.356762356228298,-88.93752204047308,-40.64785427517361,2.2855029719890934,1.1427480867593596,1.892986486453821,-2.980770534939236,-0.13570149739583334,2.2391425238715277,-0.4357,-0.3871,0.6733,-0.01525,-0.02787,0.00454,0.00082346674753353,0.0010058481711894274,0.0008041733526624739,0.0005070499028079212,0.000505211588460952,0.0004210987826809287,0.010040631517767906,0.008609886281192303,0.01185583509504795,passive,0
1.9209,rehab,small_fast,23.54358500888431,-666.6347937380393,302.5132301752945,-177.38783229262182,0.133100141258101,-149.99054750149378,31.1402,-0.0117,-23.842,159.482,2.5032,-66.0323,79.46780969600866,27.380914215994352,83.13488422053875,-22.446789211697048,-88.93992106119792,-40.578952365451386,2.557584554842203,1.1971630436359066,2.0552795712310488,-3.372921413845486,-0.06785074869791667,2.5784132215711804,-0.3862,-0.3338,1.0865,-0.00968,-0.02724,0.00425,0.00082346674753353,0.0010058481711894274,0.0008041733526624739,0.0005070499028079212,0.000505211588460952,0.0004210987826809287,0.010040631517767906,0.008609886281192303,0.01185583509504795,passive,0
1.9405,rehab,small_fast,24.044389543190302,-666.633141789858,302.1351240600114,-177.38800075902176,0.13297622532710587,-149.9910459096519,34.1158,0.0438,-25.206,139.3357,1.9388,-55.1705,79.51146267428257,27.400643377020806,83.16872020759205,-22.501678466796875,-88.941404554579,-40.535430908203125,2.8296661376953125,1.251584798982828,2.226288295028233,-3.5179985894097223,-0.13570149739583334,2.8498246934678817,-0.4645,-0.3893,0.7048,-0.01078,-0.02449,0.01085,0.00082346674753353,0.0010058481711894274,0.0008041733526624739,0.0005070499028079212,0.000505211588460952,0.0004210987826809287,0.010040631517767906,0.008609886281192303,0.01185583509504795,passive,0
1.9607,rehab,small_fast,24.869831000690258,-666.6307121791448,301.536941590377,-177.3884587465219,0.1330944457746935,-149.98979418140837,35.5725,0.0838,-25.3427,106.8355,0.8423,-38.4472,79.58339049084351,27.432263062732055,83.22151033004911,-22.58785671657986,-88.94366794162326,-40.46574062771267,3.1017545190187965,1.305999755859375,2.316524392307395,-3.6732228597005205,-0.13570149739583334,3.0533854166666665,-0.4546,-0.2863,0.4906,0.0009,-0.02615,0.00789,0.00082346674753353,0.0010058481711894274,0.0008041733526624739,0.0005070499028079212,0.000505211588460952,0.0004210987826809287,0.010040631517767906,0.008609886281192303,0.01185583509504795,passive,0
1.9809,rehab,small_fast,25.458331272233515,-666.6284062032984,301.13448052644236,-177.3879053640166,0.13246357842244344,-149.9888171946276,37.998,0.0913,-26.283,79.3185,-0.4433,-22.8026,79.6346645544071,27.453603461237236,83.2573654628036,-22.647442287868923,-88.9452616373698,-40.41612413194444,3.373836101871906,1.305999755859375,2.3242678500638148,-3.786349826388889,-0.06785074869791667,3.1890869140625,-0.4518,-0.435,-0.0463,-0.00906,-0.03355,0.00806,0.00082346674753353,0.0010058481711894274,0.0008041733526624739,0.0005070499028079212,0.000505211588460952,0.0004210987826809287,0.010040631517767906,0.008609886281192303,0.01185583509504795,passive,0
2.0006,rehab,small_fast,26.397899254370827,-666.6251131842319,300.4978152483982,-177.38820441962042,0.1325182022762355,-149.98683643431445,40.3505,0.0682,-27.1816,64.9761,-1.4975,-13.857,79.7165317346554,27.487881348864867,83.31272540706219,-22.73929172092014,-88.94776238335503,-40.33728705512153,3.428251058748453,1.5236663818359375,2.317775310856281,-3.866263495551215,-0.13570149739583334,3.392647637261285,-0.3719,-0.3426,0.1512,0.0004,-0.03871,0.00702,0.00082346674753353,0.0010058481711894274,0.0008041733526624739,0.0005070499028079212,0.000505211588460952,0.0004210987826809287,0.010040631517767906,0.008609886281192303,0.01185583509504795,passive,0
2.0206,rehab,small_fast,27.03838491988633,-666.6234317728901,300.07082829474854,-177.38781085291794,0.13209916001271743,-149.98700922259943,40.8514,0.0108,-26.9998,62.3675,-1.9346,-10.9705,79.77236077336981,27.51105733437113,83.34986545071743,-22.80191209581163,-88.94948323567708,-40.28199937608507,3.482672814095374,1.4692514249593904,2.3325279915686883,-3.9458465576171875,-0.13570149739583334,3.4604983859592013,-0.2669,-0.4317,0.5125,0.00124,-0.03544,-0.00273,0.00082346674753353,0.0010058481711894274,0.0008041733526624739,0.0005070499028079212,0.000505211588460952,0.0004210987826809287,0.010040631517767906,0.008609886281192303,0.01185583509504795,passive,0
2.0405,rehab,small_fast,28.032256845172878,-666.6244121641702,299.4113012992172,-177.38798058861505,0.13217529090861865,-149.98886612171236,41.0083,-0.0478,-26.6565,64.3497,-1.6277,-10.3958,79.8590616660543,27.547728283570546,83.40551093073175,-22.89678785536024,-88.95217047797308,-40.19452412923177,3.64592448319539,1.5780813387124846,2.296176570476872,-4.057668050130208,-0.20355224609375,3.8676198323567705,-0.4208,-0.3417,0.0437,-0.00733,-0.02043,0.0028,0.00082346674753353,0.0010058481711894274,0.0008041733526624739,0.0005070499028079212,0.000505211588460952,0.0004210987826809287,0.010040631517767906,0.008609886281192303,0.01185583509504795,passive,0
2.0609,rehab,small_fast,28.71946442415962,-666.6267603259627,298.97099641430935,-177.38767700139314,0.13182796991708448,-149.9902703077733,41.9329,-0.0883,-26.675,66.6169,-0.7183,-7.5419,79.91905136863784,27.572665072903774,83.44218187993116,-22.96074761284722,-88.9540778266059,-40.133861965603295,3.8635911091719524,1.5780813387124846,2.3382387066831685,-3.9673868815104165,-0.13570149739583334,3.8676198323567705,-0.3325,-0.2724,0.8247,-0.01031,-0.0259,-0.00164,0.00082346674753353,0.0010058481711894274,0.0008041733526624739,0.0005070499028079212,0.000505211588460952,0.0004210987826809287,0.010040631517767906,0.008609886281192303,0.01185583509504795,passive,0
2.0809,rehab,small_fast,29.797297251417195,-666.6318136746011,298.2909719791872,-177.38839632585285,0.13229356541548332,-149.98980441646816,44.3751,-0.0948,-27.4598,72.7086,0.3971,-5.2438,80.01315579556002,27.611939836256575,83.49705913279315,-23.056937323676216,-88.95699395073784,-40.04132588704427,3.918006066048499,1.686918050935953,2.365786108640161,-4.035797119140625,-0.13570149739583334,3.8676198323567705,-0.3583,-0.2732,0.7313,-0.01392,-0.02894,0.00222,0.00082346674753353,0.0010058481711894274,0.0008041733526624739,0.0005070499028079212,0.000505211588460952,0.0004210987826809287,0.010040631517767906,0.008609886281192303,0.01185583509504795,passive,0
2.1008,rehab,small_fast,30.544298987037983,-666.6321832654102,297.8393899253646,-177.38893973213473,0.13273301606156745,-149.98968824370374,46.7055,-0.061,-27.9739,85.0078,1.3586,-7.9206,80.07832593256884,27.638025567083076,83.53349213552947,-23.12076144748264,-88.95896911621094,-39.977001614040795,4.135672692025062,1.6325030940594059,2.2103594789410583,-3.9005872938368054,-0.06785074869791667,4.139031304253472,-0.226,-0.295,0.701,-0.01028,-0.04527,-0.00729,0.00082346674753353,0.0010058481711894274,0.0008041733526624739,0.0005070499028079212,0.000505211588460952,0.0004210987826809287,0.010040631517767906,0.008609886281192303,0.01185583509504795,passive,0
2.1205,rehab,small_fast,31.306882650996986,-666.6324931558338,297.3848509636441,-177.3900127699035,0.1335705744614658,-149.98889553162107,47.8666,-0.0055,-27.7185,88.5396,1.7494,-7.9836,80.14486256212291,27.664587190835782,83.56945604380995,-23.183949788411457,-88.96100362141927,-39.91198221842448,4.135672692025062,1.6325030940594059,2.201650638391476,-3.983205159505208,-0.06785074869791667,4.206882052951388,-0.3176,-0.1909,0.9406,-0.01529,-0.04511,0.00277,0.00082346674753353,0.0010058481711894274,0.0008041733526624739,0.0005070499028079212,0.000505211588460952,0.0004210987826809287,0.010040631517767906,0.008609886281192303,0.01185583509504795,passive,0
2.1409,rehab,small_fast,32.4710525878655,-666.632793831281,296.72199542563516,-177.39014857195744,0.13368494493806768,-149.98833164233872,49.103,0.0514,-27.4873,66.8247,1.4954,4.1732,80.24644530645692,27.70370558936997,83.62201501827428,-23.278554280598957,-88.96407233344183,-39.812045627170136,4.353339318001624,1.6325030940594059,2.2021673221399287,-3.86977301703559,-0.13570149739583334,4.342592027452257,-0.0979,-0.1218,1.295,0.00924,-0.03559,-0.00159,0.00082346674753353,0.0010058481711894274,0.0008041733526624739,0.0005070499028079212,0.000505211588460952,0.0004210987826809287,0.010040631517767906,0.008609886281192303,0.01185583509504795,passive,0
2.1608,rehab,small_fast,33.45169351530967,-666.6310309575767,296.1735340695043,-177.39044317401516,0.13391285761825433,-149.9884793841226,50.8839,0.0792,-27.6537,34.3557,0.7172,20.4261,80.3320040561185,27.73624306858176,83.66519210362198,-23.356526692708332,-88.96670023600261,-39.727232191297745,4.244502605778156,1.5236663818359375,2.1004350114576886,-3.8834042019314237,-0.20355224609375,4.139031304253472,-0.1674,-0.2544,1.3507,-0.01097,-0.0292,0.00033,0.00082346674753353,0.0010058481711894274,0.0008041733526624739,0.0005070499028079212,0.000505211588460952,0.0004210987826809287,0.010040631517767906,0.008609886281192303,0.01185583509504795,passive,0
2.1806,rehab,small_fast,34.6547056188524,-666.6267461807818,295.53577529613005,-177.39008880447804,0.13363101895114066,-149.9872711920539,51.469,0.0763,-27.2316,9.0492,-0.2961,29.8504,80.43693844634707,27.774436875145035,83.7152084501663,-23.448367648654514,-88.96987067328558,-39.62455749511719,4.516590987101639,1.6325030940594059,2.030954644231513,-3.746456570095486,-0.13570149739583334,4.274732801649305,-0.3219,-0.3011,0.9424,-0.01623,-0.02364,0.00403,0.00082346674753353,0.0010058481711894274,0.0008041733526624739,0.0005070499028079212,0.000505211588460952,0.0004210987826809287,0.010040631517767906,0.008609886281192303,0.01185583509504795,passive,0
2.2007,rehab,small_fast,35.454526245401546,-666.6259575622473,295.1219301679689,-177.38949639199615,0.13318646516511978,-149.98708710600314,51.8114,0.0469,-26.8495,-6.3841,-1.045,32.6071,80.50674514015122,27.799761177289604,83.7469980976369,-23.508351643880207,-88.97198147243924,-39.55562167697482,4.353339318001624,1.5780813387124846,1.967212186001315,-3.684904310438368,-0.06785074869791667,4.206882052951388,-0.1847,-0.162,1.3051,-0.00438,-0.03338,-0.00573,0.00082346674753353,0.0010058481711894274,0.0008041733526624739,0.0005070499028079212,0.000505211588460952,0.0004210987826809287,0.010040631517767906,0.008609886281192303,0.01185583509504795,passive,0
2.2207,rehab,small_fast,36.651814472483785,-666.6251954808749,294.5136519229542,-177.3887613679445,0.13254899788589067,-149.98718732950283,50.7468,0.0087,-25.6989,-16.2868,-1.291,33.2625,80.61127842062771,27.83751308327854,83.79287417572324,-23.596149020724827,-88.97524515787761,-39.45199754503038,4.462176030225093,1.6325030940594059,1.8168368197903775,-3.68011474609375,-0.13570149739583334,4.274732801649305,-0.0627,0.0173,1.1697,0.01506,-0.02567,-0.00095,0.00082346674753353,0.0010058481711894274,0.0008041733526624739,0.0005070499028079212,0.000505211588460952,0.0004210987826809287,0.010040631517767906,0.008609886281192303,0.01185583509504795,passive,0
2.2408,rehab,small_fast,37.44276242450905,-666.6263311903792,294.11441980867534,-177.3884072239999,0.1322766843404569,-149.98856934231594,49.0544,-0.0279,-24.3889,-21.0579,-1.0453,31.8152,80.68037127504255,27.862762602248996,83.82218917997757,-23.653310139973957,-88.97742377387152,-39.38218010796441,4.298924361125077,1.5780813387124846,1.78813367786974,-3.530637953016493,-0.13570149739583334,4.206882052951388,-0.0363,-0.0768,1.3413,-0.00218,-0.03138,-0.0095,0.00082346674753353,0.0010058481711894274,0.0008041733526624739,0.0005070499028079212,0.000505211588460952,0.0004210987826809287,0.010040631517767906,0.008609886281192303,0.01185583509504795,passive,0
2.2607,rehab,small_fast,38.63776350693522,-666.6282137111226,293.5240678777288,-177.38838658368203,0.13224629640878338,-149.98867273614223,49.5184,-0.054,-24.2799,-15.9363,-0.508,25.0047,80.78476858611154,27.900691268467668,83.86438048712098,-23.736648559570312,-88.98069593641493,-39.27864074707031,4.462176030225093,1.5780813387124846,1.7600967860457921,-3.5944620768229165,-0.06785074869791667,4.342592027452257,0.0829,-0.0915,0.7537,-0.00888,-0.02913,-0.00527,0.00082346674753353,0.0010058481711894274,0.0008041733526624739,0.0005070499028079212,0.000505211588460952,0.0004210987826809287,0.010040631517767906,0.008609886281192303,0.01185583509504795,passive,0
2.2805,rehab,small_fast,39.43144679834416,-666.6277932934281,293.1351330598806,-177.38877913969992,0.13254665162665144,-149.98874084137884,49.4453,-0.0428,-23.9809,-11.3483,0.0913,17.9877,80.85409258851911,27.925777624149134,83.89184630743348,-23.790817260742188,-88.98288302951389,-39.20987447102865,4.190087648901609,1.4692514249593904,1.6628446673402693,-3.3757866753472223,-0.13570149739583334,4.206882052951388,-0.0277,-0.073,0.8255,-0.01012,-0.02965,-0.00516,0.00082346674753353,0.0010058481711894274,0.0008041733526624739,0.0005070499028079212,0.000505211588460952,0.0004210987826809287,0.010040631517767906,0.008609886281192303,0.01185583509504795,passive,0
2.301,rehab,small_fast,40.626414488809225,-666.6316336883244,292.54963559045154,-177.38979565771788,0.13337358248424466,-149.98857698279923,49.5393,-0.0181,-23.8231,-2.2002,0.5839,6.8739,80.95853748888072,27.96448811446086,83.93148138971613,-23.871019151475693,-88.9861551920573,-39.10652160644531,4.4077542748781715,1.5780813387124846,1.6840083056157178,-3.3636305067274304,-0.13570149739583334,4.342592027452257,0.1062,0.0288,0.5134,0.00839,-0.03913,-0.00196,0.00082346674753353,0.0010058481711894274,0.0008041733526624739,0.0005070499028079212,0.000505211588460952,0.0004210987826809287,0.010040631517767906,0.008609886281192303,0.01185583509504795,passive,0
2.3208,rehab,small_fast,41.43681855805204,-666.6299629333995,292.1695592202681,-177.39029113862355,0.13376515828853935,-149.98786746009154,49.8872,-0.0003,-23.8721,9.837,0.7253,-6.2553,81.02931636394841,27.989526880849706,83.957465143487,-23.923534817165798,-88.98836771647136,-39.037060207790795,4.462176030225093,1.5780813387124846,1.5209333967454362,-3.2505120171440973,-0.06785074869791667,4.47829352484809,0.0381,0.0636,0.7502,0.00285,-0.02449,0.00475,0.00082346674753353,0.0010058481711894274,0.0008041733526624739,0.0005070499028079212,0.000505211588460952,0.0004210987826809287,0.010040631517767906,0.008609886281192303,0.01185583509504795,passive,0
2.3409,rehab,small_fast,42.450095159600416,-666.6295415899187,291.6826026530098,-177.39154147663268,0.1347795179025464,-149.98571754635344,49.8766,0.013,-23.9969,-1.2745,0.5118,-8.6526,81.11783924669322,28.021962383005878,83.9898666532913,-23.989376491970486,-88.99108039008246,-38.951449924045136,4.4077542748781715,1.6325030940594059,1.667263673083617,-3.181364271375868,-0.13570149739583334,4.206882052951388,0.0836,-0.0318,1.1597,-0.00074,-0.0275,-0.0058,0.00082346674753353,0.0010058481711894274,0.0008041733526624739,0.0005070499028079212,0.000505211588460952,0.0004210987826809287,0.010040631517767906,0.008609886281192303,0.01185583509504795,passive,0
2.3605,rehab,small_fast,43.63787075781103,-666.62798619605,291.11960604739545,-177.3912480720837,0.13454219339531098,-149.98506579310987,49.3529,0.0156,-23.9591,-18.2162,0.0771,-8.6629,81.22162469542853,28.059523931824334,84.0280808552657,-24.068645901150173,-88.99432712131076,-38.84923299153646,4.244502605778156,1.5780813387124846,1.6084772997563428,-3.38333977593316,-0.13570149739583334,4.274732801649305,0.088,0.0986,2.0565,0.00513,-0.03365,-0.00588,0.00082346674753353,0.0010058481711894274,0.0008041733526624739,0.0005070499028079212,0.000505211588460952,0.0004210987826809287,0.010040631517767906,0.008609886281192303,0.01185583509504795,passive,0
2.3808,rehab,small_fast,44.407006495870775,-666.6273302124516,290.73529030131783,-177.39105964683435,0.13440812955559742,-149.98621727476774,48.4026,0.0191,-23.9438,-28.6342,-0.3064,-12.2765,81.28885476896079,28.085072583491257,84.05428895855894,-24.122695922851562,-88.99646335177951,-38.78147549099392,4.135672692025062,1.5780813387124846,1.6257522129776454,-3.3748711480034723,-0.13570149739583334,4.139031304253472,0.1469,0.0627,0.9533,0.00382,-0.02179,-0.00513,0.00082346674753353,0.0010058481711894274,0.0008041733526624739,0.0005070499028079212,0.000505211588460952,0.0004210987826809287,0.010040631517767906,0.008609886281192303,0.01185583509504795,passive,0
2.4009,rehab,small_fast,45.54783631580736,-666.6286123579797,290.1679601580097,-177.38926957732605,0.13291531160708517,-149.9883926790747,49.6069,0.0042,-25.3496,-36.035,-0.4387,-20.3888,81.38863591864558,28.123178009939664,84.09308782898553,-24.20500013563368,-88.99971856011284,-38.68047078450521,4.135672692025062,1.6325030940594059,1.6195792018777073,-3.4504106309678817,-0.06785074869791667,4.274732801649305,0.1628,0.1809,0.7787,0.00549,-0.01182,0.00373,0.00082346674753353,0.0010058481711894274,0.0008041733526624739,0.0005070499028079212,0.000505211588460952,0.0004210987826809287,0.010040631517767906,0.008609886281192303,0.01185583509504795,passive,0
2.4206,rehab,small_fast,46.30977720320216,-666.6287722906471,289.76320709360505,-177.38908112702845,0.1327318779410052,-149.98926016464375,48.0726,-0.0183,-25.3157,-38.2375,-0.4423,-30.9663,81.45527452525526,28.150181534266707,84.12050606000541,-24.26171196831597,-89.00186326768663,-38.613620334201386,4.081257735148514,1.686918050935953,1.6717710589418318,-3.4874810112847223,-0.13570149739583334,4.274732801649305,0.2173,0.11,1.7116,-0.00865,-0.01401,-0.01269,0.00082346674753353,0.0010058481711894274,0.0008041733526624739,0.0005070499028079212,0.000505211588460952,0.0004210987826809287,0.010040631517767906,0.008609886281192303,0.01185583509504795,passive,0
2.441,rehab,small_fast,47.46581065279425,-666.6294295280356,289.144223435158,-177.3881165211214,0.13203428005492202,-149.9886302155453,45.9023,-0.0292,-25.3954,-37.2786,-0.3281,-44.6541,81.55637457819269,28.191659002020806,84.1624118313931,-24.34929741753472,-89.00495741102431,-38.514158460828995,4.244502605778156,1.7413330078125,1.8491907403020575,-3.8047281901041665,-0.06785074869791667,4.139031304253472,0.1764,0.2181,1.4414,-0.00191,-0.01589,-0.00822,0.00082346674753353,0.0010058481711894274,0.0008041733526624739,0.0005070499028079212,0.000505211588460952,0.0004210987826809287,0.010040631517767906,0.008609886281192303,0.01185583509504795,passive,0
2.4609,rehab,small_fast,48.23305793035183,-666.6288247800411,288.7176406052683,-177.38725221052513,0.13135108119699504,-149.98781611285872,45.9009,-0.0278,-26.5992,-28.6122,-0.0757,-64.1713,81.62347548078782,28.220022220422727,84.19172683564743,-24.41006130642361,-89.00702582465277,-38.448571099175346,4.081257735148514,1.795747964689047,1.831847842377011,-3.890652126736111,-0.13570149739583334,3.8676198323567705,0.3143,0.1417,1.0187,-0.01265,-0.02285,-0.01362,0.00082346674753353,0.0010058481711894274,0.0008041733526624739,0.0005070499028079212,0.000505211588460952,0.0004210987826809287,0.010040631517767906,0.008609886281192303,0.01185583509504795,passive,0
2.4808,rehab,small_fast,49.373272374482546,-666.6300667319317,288.0352210511846,-177.3867393306814,0.13088323229018306,-149.98679849429297,45.4293,-0.0152,-28.0599,-19.4805,0.293,-81.1101,81.72324983200224,28.265327226997602,84.2382827607712,-24.50556437174479,-89.01014539930556,-38.350914849175346,4.190087648901609,1.795747964689047,2.008907204807395,-4.08845689561632,-0.20355224609375,4.206882052951388,0.2898,0.2684,1.6143,-0.01827,-0.0259,-0.01365,0.00082346674753353,0.0010058481711894274,0.0008041733526624739,0.0005070499028079212,0.000505211588460952,0.0004210987826809287,0.010040631517767906,0.008609886281192303,0.01185583509504795,passive,0
2.5007,rehab,small_fast,50.12242332697561,-666.630304412011,287.55548742445353,-177.38660538293408,0.13077110311946658,-149.9865946381691,45.6793,-0.011,-30.3428,0.1029,0.6805,-100.9913,81.7888074818224,28.296858532593983,84.27137771455368,-24.572313096788193,-89.01217142740886,-38.286327785915795,4.026835979801594,2.067836346012531,2.170887559947401,-4.24635993109809,-0.13570149739583334,4.0033213297526045,0.452,0.1726,1.2023,-0.01286,-0.02874,-0.0107,0.00082346674753353,0.0010058481711894274,0.0008041733526624739,0.0005070499028079212,0.000505211588460952,0.0004210987826809287,0.010040631517767906,0.008609886281192303,0.01185583509504795,passive,0
2.5206,rehab,small_fast,50.87385178679882,-666.631057735642,287.0358696666287,-177.38799724643928,0.13188859745209885,-149.98544544073627,45.011,-0.0048,-32.004,19.3848,0.856,-115.2851,81.8545690857538,28.330912070699256,84.30661418650409,-24.641740587022568,-89.0141381157769,-38.22251213921441,4.190087648901609,2.176666259765625,2.2414692793742264,-4.511778089735243,-0.13570149739583334,3.8676198323567705,0.3701,0.2842,1.1414,-0.01108,-0.02765,-0.01133,0.00082346674753353,0.0010058481711894274,0.0008041733526624739,0.0005070499028079212,0.000505211588460952,0.0004210987826809287,0.010040631517767906,0.008609886281192303,0.01185583509504795,passive,0
2.5413,rehab,small_fast,51.98441269570444,-666.6303617441118,286.2233198152805,-177.38941615172308,0.13300651609214523,-149.98468113961687,45.9074,0.0164,-34.9004,17.4798,0.7121,-119.755,81.95176681669632,28.383545828337716,84.36304149061147,-24.75185818142361,-89.01707119411893,-38.127339680989586,3.918006066048499,2.2310880151125465,2.405115259755956,-4.596667819552951,-0.06785074869791667,4.071180555555555,0.3578,0.2472,1.12,-0.00125,-0.02441,-0.00795,0.00082346674753353,0.0010058481711894274,0.0008041733526624739,0.0005070499028079212,0.000505211588460952,0.0004210987826809287,0.010040631517767906,0.008609886281192303,0.01185583509504795,passive,0
2.5607,rehab,small_fast,52.707804394129106,-666.6296260730107,285.6618432464939,-177.3896190431236,0.13312347966769117,-149.9851168912199,46.7872,0.0369,-37.5306,13.8259,0.3489,-122.0352,82.01510136670406,28.419577721321936,84.40293491476834,-24.82944064670139,-89.01902940538194,-38.06445651584201,3.9724210229250465,2.3399179288656407,2.4922308591332767,-4.955664740668403,-0.06785074869791667,3.664059109157986,0.5017,0.2286,0.7174,-0.00674,-0.02731,-0.01159,0.00082346674753353,0.0010058481711894274,0.0008041733526624739,0.0005070499028079212,0.000505211588460952,0.0004210987826809287,0.010040631517767906,0.008609886281192303,0.01185583509504795,passive,0
2.5809,rehab,small_fast,53.9589139095084,-666.6296144434592,284.61785643096084,-177.3894725633347,0.13298737601238833,-149.98669996735714,46.6788,0.0492,-39.459,3.7017,-0.1111,-112.1051,82.12467911219832,28.486216327931622,84.47788125217551,-24.97450934516059,-89.02236938476562,-37.95494927300347,3.754754396948484,2.448754641089109,2.8610886677657024,-5.41719224717882,-0.06785074869791667,3.9354705810546875,0.3822,0.1576,0.5867,-0.0127,-0.02057,-0.01041,0.00082346674753353,0.0010058481711894274,0.0008041733526624739,0.0005070499028079212,0.000505211588460952,0.0004210987826809287,0.010040631517767906,0.008609886281192303,0.01185583509504795,passive,0
2.6008,rehab,small_fast,54.68459914432759,-666.6288787274862,283.99693873547335,-177.38848126634517,0.1321817685371193,-149.98654920276357,47.1731,0.0511,-41.8347,-16.095,-0.5739,-92.1449,82.18823801172842,28.525729037747524,84.52307068475402,-25.062357584635414,-89.02427673339844,-37.892540825737846,3.9724210229250465,2.503169597965656,2.9902596048789447,-5.617463853624132,-0.13570149739583334,3.799769083658854,0.4195,0.2817,0.7382,0.00193,-0.03183,-0.00828,0.00082346674753353,0.0010058481711894274,0.0008041733526624739,0.0005070499028079212,0.000505211588460952,0.0004210987826809287,0.010040631517767906,0.008609886281192303,0.01185583509504795,passive,0
2.621,rehab,small_fast,55.76284195257655,-666.6266372793946,283.01887765868287,-177.38720706148186,0.13114881284889374,-149.98564582063756,45.8976,0.0231,-43.2361,-38.2366,-1.0535,-69.3336,82.28267556369894,28.587615513565517,84.59466537626663,-25.20022922092014,-89.02705722384982,-37.80057271321615,3.918006066048499,2.6664212670656715,3.208272952844601,-5.857510036892361,-0.13570149739583334,3.8676198323567705,0.1965,0.4522,0.5394,-0.00503,-0.01209,0.00018,0.00082346674753353,0.0010058481711894274,0.0008041733526624739,0.0005070499028079212,0.000505211588460952,0.0004210987826809287,0.010040631517767906,0.008609886281192303,0.01185583509504795,passive,0
2.6407,rehab,small_fast,56.47411468842996,-666.6255439673675,282.3322347038204,-177.38684066420998,0.1309042102080013,-149.98577139302157,45.3966,-0.0195,-45.0536,-54.4098,-1.3101,-51.0655,82.34498354468015,28.63100335149482,84.64476330445544,-25.29598659939236,-89.02884589301215,-37.73922390407986,3.918006066048499,2.8296661376953125,3.181650142858524,-6.20743645562066,-0.13570149739583334,3.799769083658854,0.3561,0.5159,0.807,-0.00058,-0.00929,-0.00147,0.00082346674753353,0.0010058481711894274,0.0008041733526624739,0.0005070499028079212,0.000505211588460952,0.0004210987826809287,0.010040631517767906,0.008609886281192303,0.01185583509504795,passive,0
2.6605,rehab,small_fast,57.543482807415586,-666.6268673929038,281.25277653034146,-177.38719614222123,0.13117315519976752,-149.984394140004,44.4622,-0.0465,-46.2362,-54.225,-1.2531,-41.9477,82.43870725726137,28.69965430533532,84.72238144071976,-25.444513956705727,-89.03151618109808,-37.648561265733505,3.918006066048499,2.884087893042234,3.2851160634862313,-6.264945136176215,-0.06785074869791667,3.528349134657118,0.4274,0.4266,1.064,-0.0093,-0.0125,-0.01103,0.00082346674753353,0.0010058481711894274,0.0008041733526624739,0.0005070499028079212,0.000505211588460952,0.0004210987826809287,0.010040631517767906,0.008609886281192303,0.01185583509504795,passive,0
2.6805,rehab,small_fast,58.240599897497596,-666.6275094153588,280.4986906307595,-177.3887449015675,0.13236057048970526,-149.98472192115347,42.1339,-0.0664,-45.443,-45.3376,-0.9575,-36.6927,82.49981870745668,28.747522335241335,84.77615734138111,-25.546001858181423,-89.03327941894531,-37.58827209472656,3.809169353825031,2.884087893042234,3.3111202126682393,-6.372155083550347,-0.06785074869791667,3.8676198323567705,0.4036,0.2745,0.2635,-0.00447,-0.0165,-0.0026,0.00082346674753353,0.0010058481711894274,0.0008041733526624739,0.0005070499028079212,0.000505211588460952,0.0004210987826809287,0.010040631517767906,0.008609886281192303,0.01185583509504795,passive,0
2.7006,rehab,small_fast,59.270306436407886,-666.6303010171536,279.34966006013224,-177.39028074659035,0.13357400990450655,-149.9852559217821,41.3755,-0.0773,-46.0323,-29.4769,-0.2446,-34.8896,82.59011599096921,28.8206942718808,84.85811970021464,-25.701828002929688,-89.03583102756076,-37.49920315212673,3.7003394400719367,2.992917806795328,3.261212641649907,-6.536763509114583,-0.13570149739583334,3.7319098578559027,0.4233,0.3538,0.711,-0.00599,-0.02511,-0.00417,0.00082346674753353,0.0010058481711894274,0.0008041733526624739,0.0005070499028079212,0.000505211588460952,0.0004210987826809287,0.010040631517767906,0.008609886281192303,0.01185583509504795,passive,0
2.7206,rehab,small_fast,59.94202014831725,-666.6345844287837,278.58395124558245,-177.38989925712798,0.1333357229677047,-149.98634134761616,41.3316,-0.0748,-47.2451,-12.0575,0.7604,-35.5293,82.6490587291151,28.869724840220837,84.91297655766553,-25.807910495334202,-89.03748406304253,-37.44037204318576,3.7003394400719367,3.047339562142249,3.3628429752765316,-6.668641832139757,-0.13570149739583334,3.664059109157986,0.3652,0.3201,0.7943,-0.01123,-0.02193,-0.00342,0.00082346674753353,0.0010058481711894274,0.0008041733526624739,0.0005070499028079212,0.000505211588460952,0.0004210987826809287,0.010040631517767906,0.008609886281192303,0.01185583509504795,passive,0
2.7408,rehab,small_fast,60.94251617181366,-666.6339282620548,277.4535882585554,-177.38700475536015,0.131154895490752,-149.98838931812264,41.5164,-0.0563,-48.295,0.9683,1.5206,-35.0252,82.73679298929649,28.941475896552056,84.99614224575534,-25.96906026204427,-89.03999328613281,-37.35240512424045,3.64592448319539,2.992917806795328,3.5730312838412748,-6.52555677625868,-0.06785074869791667,3.528349134657118,0.4715,0.3666,0.396,-0.00121,-0.02228,-0.00496,0.00082346674753353,0.0010058481711894274,0.0008041733526624739,0.0005070499028079212,0.000505211588460952,0.0004210987826809287,0.010040631517767906,0.008609886281192303,0.01185583509504795,passive,0
2.7608,rehab,small_fast,61.61214901067791,-666.6334912781955,276.6772588550909,-177.3858833909258,0.13024057857043767,-149.9892106381073,42.1748,-0.0345,-49.5519,19.6767,1.7742,-43.9228,82.79552497486077,28.9909823578183,85.05252875904046,-26.078126695421005,-89.04171413845486,-37.29408264160156,3.64592448319539,3.2105844327718907,3.5334165969697557,-6.75734625922309,-0.13570149739583334,3.799769083658854,0.4655,0.259,0.2235,-0.02415,-0.02566,-0.0051,0.00082346674753353,0.0010058481711894274,0.0008041733526624739,0.0005070499028079212,0.000505211588460952,0.0004210987826809287,0.010040631517767906,0.008609886281192303,0.01185583509504795,passive,0
2.7806,rehab,small_fast,62.29011176848043,-666.6334724907883,275.86646330557886,-177.3870681941777,0.1311585074525886,-149.98956130048524,42.4072,0.0106,-49.9963,30.456,1.5289,-47.6704,82.85497759828473,29.043065439356436,85.10971069335938,-26.187625461154514,-89.04337565104167,-37.235514322916664,3.754754396948484,3.319421144995359,3.57269815879293,-6.798841688368055,-0.06785074869791667,3.7319098578559027,0.4154,0.3145,0.8445,-0.02092,-0.01865,-0.0081,0.00082346674753353,0.0010058481711894274,0.0008041733526624739,0.0005070499028079212,0.000505211588460952,0.0004210987826809287,0.010040631517767906,0.008609886281192303,0.01185583509504795,passive,0
2.8007,rehab,small_fast,63.49839592466182,-666.6331813702459,274.4249283681292,-177.39054661537895,0.1338803639114718,-149.98806558978765,42.7321,0.0832,-50.5413,17.9301,0.9401,-27.7323,82.96091136365834,29.136496817711556,85.20944425375154,-26.37939453125,-89.04622395833333,-37.133238050672745,3.7003394400719367,3.373836101871906,3.4658737938002786,-7.0000457763671875,-0.06785074869791667,3.596208360460069,0.3329,0.3142,0.8505,-0.0273,-0.02261,-0.01209,0.00082346674753353,0.0010058481711894274,0.0008041733526624739,0.0005070499028079212,0.000505211588460952,0.0004210987826809287,0.010040631517767906,0.008609886281192303,0.01185583509504795,passive,0
2.8206,rehab,small_fast,64.18122320007353,-666.633986391619,273.61522234202704,-177.39119376547117,0.13440854654573284,-149.98690402865412,42.8359,0.107,-50.7755,-1.9695,0.2633,-2.8815,83.02079229071589,29.189348126401995,85.26551123892907,-26.489173041449654,-89.04782613118489,-37.07575480143229,3.7003394400719367,3.2105844327718907,3.268616175887608,-6.741095648871528,-0.06785074869791667,3.596208360460069,0.4169,0.4665,1.2568,0.00294,-0.02236,-0.00315,0.00082346674753353,0.0010058481711894274,0.0008041733526624739,0.0005070499028079212,0.000505211588460952,0.0004210987826809287,0.010040631517767906,0.008609886281192303,0.01185583509504795,passive,0
2.841,rehab,small_fast,65.18546061098098,-666.631549985478,272.43162786450745,-177.3899828039562,0.13335172869732514,-149.98687216303446,42.9313,0.076,-50.9872,-17.79,-0.428,13.8545,83.10886647441599,29.26642918350673,85.3488808811301,-26.653764512803818,-89.05039469401042,-36.98956807454427,3.7003394400719367,3.1561694758953434,3.471781664555616,-7.077399359809028,-0.13570149739583334,3.528349134657118,0.3401,0.2943,0.9409,-0.02304,-0.00922,-0.00567,0.00082346674753353,0.0010058481711894274,0.0008041733526624739,0.0005070499028079212,0.000505211588460952,0.0004210987826809287,0.010040631517767906,0.008609886281192303,0.01185583509504795,passive,0
2.861,rehab,small_fast,65.85026569597453,-666.6292882232298,271.6509031902894,-177.3886025203478,0.13230876026051194,-149.9868034660926,43.8469,0.0302,-52.2123,-25.4819,-1.1374,19.4407,83.16715655940594,29.31746530060721,85.40385331257735,-26.763178507486977,-89.05202229817708,-36.932576497395836,3.754754396948484,3.2105844327718907,3.4555877081238395,-6.948454115125868,-0.06785074869791667,3.4604983859592013,0.3654,0.3687,0.6241,-0.02215,-0.03065,-0.00596,0.00082346674753353,0.0010058481711894274,0.0008041733526624739,0.0005070499028079212,0.000505211588460952,0.0004210987826809287,0.010040631517767906,0.008609886281192303,0.01185583509504795,passive,0
2.8805,rehab,small_fast,66.86790387194827,-666.6230790584377,270.44410135058774,-177.38934348878126,0.13289429089433863,-149.98572706192218,42.2251,-0.0056,-50.5899,-26.8451,-1.6044,18.751,83.25633889377707,29.396735465172494,85.48691702361154,-26.927100287543404,-89.05445522732205,-36.8463134765625,3.64592448319539,3.373836101871906,3.430195421275526,-6.873669094509548,-0.13570149739583334,3.596208360460069,0.3012,0.4036,0.7604,-0.01502,-0.02408,-0.00849,0.00082346674753353,0.0010058481711894274,0.0008041733526624739,0.0005070499028079212,0.000505211588460952,0.0004210987826809287,0.010040631517767906,0.008609886281192303,0.01185583509504795,passive,0
2.9009,rehab,small_fast,67.54548726424791,-666.6236391685356,269.63260761915467,-177.39009970892386,0.13351384262815322,-149.98474134008322,39.9468,-0.0196,-48.1671,-25.2926,-1.3353,17.4582,83.31576432331954,29.450905677115564,85.54125719731397,-27.036310831705727,-89.05604044596355,-36.78910149468316,3.8635911091719524,3.428251058748453,3.4886554680248296,-6.923929850260416,-0.13570149739583334,3.4604983859592013,0.2281,0.5222,0.3898,-0.01417,-0.00803,-0.00251,0.00082346674753353,0.0010058481711894274,0.0008041733526624739,0.0005070499028079212,0.000505211588460952,0.0004210987826809287,0.010040631517767906,0.008609886281192303,0.01185583509504795,passive,0
2.921,rehab,small_fast,68.53408341540346,-666.630175640067,268.4303173969625,-177.39008138673384,0.13349019528628192,-149.9849343001132,40.125,-0.0276,-48.6753,-19.0974,-0.3524,13.7969,83.40255359611889,29.532018227152303,85.62096926245358,-27.19965616861979,-89.0584733751085,-36.70395745171441,3.482672814095374,3.373836101871906,3.356003714079904,-6.846398247612847,-0.0,3.528349134657118,0.361,0.4912,1.0022,-0.01006,-0.01408,-0.00335,0.00082346674753353,0.0010058481711894274,0.0008041733526624739,0.0005070499028079212,0.000505211588460952,0.0004210987826809287,0.010040631517767906,0.008609886281192303,0.01185583509504795,passive,0
2.9409,rehab,small_fast,69.17703071188043,-666.6346790713421,267.63188417287853,-177.38986306118034,0.13331190399692747,-149.98662904107024,40.431,-0.0404,-49.2814,-12.8873,0.7066,12.4166,83.45901489257812,29.586018477336015,85.6738273696144,-27.308459811740452,-89.0601094563802,-36.647025214301216,3.5370877709719215,3.319421144995359,3.345853597810953,-6.795891655815972,-0.13570149739583334,3.4604983859592013,0.3531,0.4151,1.1928,-0.02179,-0.01484,-0.01004,0.00082346674753353,0.0010058481711894274,0.0008041733526624739,0.0005070499028079212,0.000505211588460952,0.0004210987826809287,0.010040631517767906,0.008609886281192303,0.01185583509504795,passive,0
2.9609,rehab,small_fast,70.14872705568789,-666.6339493413793,266.43956405563085,-177.38961638114563,0.13315965610210018,-149.98804466503722,40.9025,-0.0444,-49.9553,6.123,1.2576,-5.4669,83.54425411413212,29.666356001750078,85.75327429440942,-27.47100830078125,-89.0625,-36.56219482421875,3.7003394400719367,3.2650061881188117,3.3445414930286974,-6.725150214301215,-0.13570149739583334,3.392647637261285,0.2303,0.4593,0.7468,-0.01804,-0.01013,-0.00354,0.00082346674753353,0.0010058481711894274,0.0008041733526624739,0.0005070499028079212,0.000505211588460952,0.0004210987826809287,0.010040631517767906,0.008609886281192303,0.01185583509504795,passive,0
2.9805,rehab,small_fast,70.81271332690874,-666.6300326388139,265.6434605242294,-177.38918084231432,0.13286947630473886,-149.98769176019024,40.8423,-0.0118,-49.7393,31.67,1.1248,-35.3553,83.60245581900719,29.72005032076694,85.80639754191483,-27.579998440212673,-89.0640852186415,-36.50556776258681,3.64592448319539,3.428251058748453,3.283572810711247,-6.767450968424479,-0.13570149739583334,3.528349134657118,0.2935,0.4136,0.1205,-0.00977,-0.02095,0.00229,0.00082346674753353,0.0010058481711894274,0.0008041733526624739,0.0005070499028079212,0.000505211588460952,0.0004210987826809287,0.010040631517767906,0.008609886281192303,0.01185583509504795,passive,0
3.0008,rehab,small_fast,71.47839182225228,-666.6278956081353,264.84074635030555,-177.38954230076695,0.1331166634391568,-149.98712068751968,41.1983,0.0529,-49.7981,28.0316,0.5789,-32.9895,83.66082748564163,29.774710022576965,85.85877295767907,-27.68824259440104,-89.06571282280815,-36.448983086480034,3.64592448319539,3.373836101871906,3.285320017597463,-6.710103352864583,-0.13570149739583334,3.7319098578559027,0.2666,0.5152,0.372,-0.01827,-0.01639,-0.0022,0.00082346674753353,0.0010058481711894274,0.0008041733526624739,0.0005070499028079212,0.000505211588460952,0.0004210987826809287,0.010040631517767906,0.008609886281192303,0.01185583509504795,passive,0
3.0205,rehab,small_fast,72.63575875748323,-666.6278436198103,263.4310923244052,-177.39015774949027,0.133550498204425,-149.98588386069213,41.4711,0.0948,-49.9038,3.1952,0.0096,-5.0521,83.76234904374226,29.871608620823018,85.94931498612507,-27.877782185872395,-89.06851874457465,-36.35082668728298,3.5915027278484684,3.5915027278484684,3.2512120917291925,-6.5556081136067705,-0.06785074869791667,3.596208360460069,0.3607,0.3629,0.3422,-0.01881,-0.0223,-0.00357,0.00082346674753353,0.0010058481711894274,0.0008041733526624739,0.0005070499028079212,0.000505211588460952,0.0004210987826809287,0.010040631517767906,0.008609886281192303,0.01185583509504795,passive,0
3.041,rehab,small_fast,73.29398471653941,-666.6298382201388,262.63625675735193,-177.38951416172367,0.13308957402606905,-149.98580435781955,41.4547,0.0751,-50.0602,-14.2309,-0.5598,13.6432,83.820108848043,29.926798603322247,85.99995679194384,-27.986043294270832,-89.07012091742621,-36.2943606906467,3.754754396948484,3.64592448319539,3.1687058552657024,-6.649322509765625,-0.06785074869791667,3.528349134657118,0.29,0.4071,0.2922,-0.02014,-0.03452,-0.00068,0.00082346674753353,0.0010058481711894274,0.0008041733526624739,0.0005070499028079212,0.000505211588460952,0.0004210987826809287,0.010040631517767906,0.008609886281192303,0.01185583509504795,passive,0
3.061,rehab,small_fast,74.27470278620088,-666.628346027027,261.4551019676965,-177.3881207943784,0.13205591690236076,-149.98561312942013,43.0256,0.0101,-52.4577,-19.0033,-1.1681,15.0551,83.90612989369005,30.00870657439279,86.07565775956257,-28.14782036675347,-89.07252841525607,-36.21034410264757,3.5915027278484684,3.2650061881188117,3.119852047155399,-6.832309299045138,-0.13570149739583334,3.664059109157986,0.364,0.5894,0.8408,-0.01535,-0.01623,-0.0014,0.00082346674753353,0.0010058481711894274,0.0008041733526624739,0.0005070499028079212,0.000505211588460952,0.0004210987826809287,0.010040631517767906,0.008609886281192303,0.01185583509504795,passive,0
3.0807,rehab,small_fast,74.93817791845188,-666.6272427465908,260.6712392661237,-177.38673021305505,0.13104325272937517,-149.98498131489228,42.2462,-0.0461,-51.8646,-22.2474,-1.6089,14.4468,83.96431800162438,30.063475051728805,86.12547015199567,-28.255750868055554,-89.07413906521268,-36.15399678548177,3.754754396948484,3.428251058748453,3.193057976146736,-6.953455607096354,-0.06785074869791667,3.392647637261285,0.4857,0.6211,0.8054,-0.00719,-0.01784,-0.00241,0.00082346674753353,0.0010058481711894274,0.0008041733526624739,0.0005070499028079212,0.000505211588460952,0.0004210987826809287,0.010040631517767906,0.008609886281192303,0.01185583509504795,passive,0
3.1006,rehab,small_fast,75.92573531226812,-666.6241460218534,259.4591392612163,-177.3878302643261,0.1318858716362199,-149.9845084746069,39.0203,-0.0692,-47.9713,-24.7394,-1.4305,18.8543,84.05091011878288,30.148292768119585,86.20080400221418,-28.416951497395832,-89.07651265462239,-36.06968349880642,3.428251058748453,3.7003394400719367,3.2017872121074413,-6.701973809136285,-0.06785074869791667,3.664059109157986,0.2608,0.5127,0.2872,-0.02724,-0.01589,-0.00369,0.00082346674753353,0.0010058481711894274,0.0008041733526624739,0.0005070499028079212,0.000505211588460952,0.0004210987826809287,0.010040631517767906,0.008609886281192303,0.01185583509504795,passive,0
3.1209,rehab,small_fast,76.57254849537084,-666.625093194814,258.63332845914874,-177.39025107823986,0.1336501696150862,-149.98479725892662,38.4513,-0.063,-47.2032,-17.379,-0.4999,19.098,84.10765695099784,30.206589651579904,86.25053481300279,-28.52359347873264,-89.07809787326389,-36.01384480794271,3.5370877709719215,3.754754396948484,3.1676724877687965,-6.990797254774305,-0.06785074869791667,3.528349134657118,0.3035,0.5056,0.6784,-0.02861,-0.01076,-0.00878,0.00082346674753353,0.0010058481711894274,0.0008041733526624739,0.0005070499028079212,0.000505211588460952,0.0004210987826809287,0.010040631517767906,0.008609886281192303,0.01185583509504795,passive,0
3.1409,rehab,small_fast,77.53465711109375,-666.6325577522124,257.42114742105406,-177.39099209597526,0.1341165355324061,-149.98648220518612,39.9108,-0.0578,-49.089,-2.1707,0.6657,11.4061,84.19214154234027,30.293236156501393,86.3231356781308,-28.684395684136284,-89.080564710829,-35.929480658637154,3.5370877709719215,3.5370877709719215,2.9181822219697557,-6.6390228271484375,-0.13570149739583334,3.4604983859592013,0.4142,0.4844,0.553,-0.01438,-0.00979,-0.00464,0.00082346674753353,0.0010058481711894274,0.0008041733526624739,0.0005070499028079212,0.000505211588460952,0.0004210987826809287,0.010040631517767906,0.008609886281192303,0.01185583509504795,passive,0
3.1606,rehab,small_fast,78.17501608018333,-666.6363088796361,256.6418938647451,-177.3892300562465,0.13283629408017,-149.98773525117926,40.3534,-0.0592,-49.8162,22.764,1.2842,-13.7341,84.24835809386603,30.349173970741802,86.37049382275875,-28.79148695203993,-89.08218383789062,-35.873209635416664,3.428251058748453,3.5370877709719215,2.9524601095973857,-6.521411471896701,-0.13570149739583334,3.4604983859592013,0.4726,0.4895,0.5882,-0.00601,-0.02137,-0.00473,0.00082346674753353,0.0010058481711894274,0.0008041733526624739,0.0005070499028079212,0.000505211588460952,0.0004210987826809287,0.010040631517767906,0.008609886281192303,0.01185583509504795,passive,0
3.1806,rehab,small_fast,78.83247322242292,-666.6357044961483,255.8667913290249,-177.38715525269527,0.13133891967067565,-149.98760715974117,40.35,-0.0387,-49.4726,49.735,1.1586,-47.6733,84.30602271958153,30.404778659933864,86.41783837044593,-28.898612128363716,-89.08380296495226,-35.816870795355904,3.7003394400719367,3.482672814095374,3.096981992815981,-6.640345255533854,-0.13570149739583334,3.596208360460069,0.4576,0.6699,0.8247,-0.01594,-0.01026,-0.00936,0.00082346674753353,0.0010058481711894274,0.0008041733526624739,0.0005070499028079212,0.000505211588460952,0.0004210987826809287,0.010040631517767906,0.008609886281192303,0.01185583509504795,passive,0
3.2009,rehab,small_fast,79.8323928667781,-666.6324881612873,254.667659048465,-177.38695204053047,0.1312145989543123,-149.98675240018946,41.2515,0.0078,-49.7307,47.4872,0.7118,-46.9091,84.39368899505918,30.49105124898476,86.48930389102142,-29.059024386935764,-89.08622741699219,-35.73185390896267,3.5370877709719215,3.64592448319539,2.9535138725054146,-6.586346096462673,-0.13570149739583334,3.799769083658854,0.3443,0.5079,0.2108,-0.0275,-0.00967,-0.00469,0.00082346674753353,0.0010058481711894274,0.0008041733526624739,0.0005070499028079212,0.000505211588460952,0.0004210987826809287,0.010040631517767906,0.008609886281192303,0.01185583509504795,passive,0
3.2209,rehab,small_fast,80.6582052197878,-666.6297439617141,253.64880703254715,-177.38876415849924,0.13247509770803703,-149.9870126949937,42.8063,0.054,-51.0809,20.234,0.2736,-13.1112,84.46609950301671,30.564637892317062,86.54868173127127,-29.191818237304688,-89.08830430772569,-35.66067165798611,3.5915027278484684,3.754754396948484,2.9229819420540686,-6.653289794921875,-0.13570149739583334,3.664059109157986,0.5025,0.6369,1.1756,-0.00729,-0.01227,-0.00616,0.00082346674753353,0.0010058481711894274,0.0008041733526624739,0.0005070499028079212,0.000505211588460952,0.0004210987826809287,0.010040631517767906,0.008609886281192303,0.01185583509504795,passive,0
3.2406,rehab,small_fast,81.64098667599426,-666.6309270685156,252.4252472985148,-177.39084351200674,0.1339903058441133,-149.9880547461133,43.4077,0.0479,-51.9179,2.4432,-0.1737,8.5952,84.55230410736387,30.65392220374381,86.61854281283841,-29.350831773546005,-89.09073723687065,-35.57520548502604,3.5915027278484684,3.7003394400719367,2.8819599718150526,-6.620924207899305,-0.06785074869791667,3.7319098578559027,0.5017,0.6419,0.6111,-0.00656,-0.02047,-0.00409,0.00082346674753353,0.0010058481711894274,0.0008041733526624739,0.0005070499028079212,0.000505211588460952,0.0004210987826809287,0.010040631517767906,0.008609886281192303,0.01185583509504795,passive,0
3.2607,rehab,small_fast,82.30759373853802,-666.6317357933702,251.64502786723543,-177.38920801896262,0.1328395873160008,-149.98810460835088,43.4351,0.0001,-52.3068,-5.6055,-0.6951,12.8979,84.61077095258354,30.711450860051826,86.66352149283532,-29.456973605685764,-89.09238179524739,-35.517874823676216,3.5915027278484684,3.5915027278484684,2.7921725735806002,-6.6602325439453125,-0.06785074869791667,3.4604983859592013,0.3272,0.4574,-0.2111,-0.02085,-0.01113,-0.00173,0.00082346674753353,0.0010058481711894274,0.0008041733526624739,0.0005070499028079212,0.000505211588460952,0.0004210987826809287,0.010040631517767906,0.008609886281192303,0.01185583509504795,passive,0
3.2808,rehab,small_fast,83.33779336384627,-666.6301872668721,250.47272366639572,-177.387003976975,0.13127135733094283,-149.98555152216048,42.9141,-0.032,-51.705,-16.3957,-1.0048,17.5431,84.70108183303682,30.798457683903155,86.73007851780051,-29.615690443250866,-89.09487406412761,-35.43189154730903,3.64592448319539,3.64592448319539,2.8132070409189356,-6.51060316297743,-0.13570149739583334,3.664059109157986,0.5449,0.6063,0.8201,-0.01274,-0.02186,-0.00834,0.00082346674753353,0.0010058481711894274,0.0008041733526624739,0.0005070499028079212,0.000505211588460952,0.0004210987826809287,0.010040631517767906,0.008609886281192303,0.01185583509504795,passive,0
3.3008,rehab,small_fast,84.01676337016654,-666.6319724446018,249.6625555502532,-177.38756319121083,0.13167449781224375,-149.98521520510815,41.0224,-0.0409,-49.0811,-24.992,-0.7691,24.5077,84.76062963504603,30.8589504732944,86.77451332016747,-29.721577962239582,-89.09655253092448,-35.37386576334635,3.754754396948484,3.918006066048499,2.841033180161278,-6.619974772135416,-0.06785074869791667,3.528349134657118,0.4776,0.7519,0.9517,-0.02981,-0.0207,-0.00754,0.00082346674753353,0.0010058481711894274,0.0008041733526624739,0.0005070499028079212,0.000505211588460952,0.0004210987826809287,0.010040631517767906,0.008609886281192303,0.01185583509504795,passive,0
3.3209,rehab,small_fast,85.01001372601742,-666.6333827249225,248.42215392381618,-177.3907447857844,0.1338634569051714,-149.9871573332803,40.4023,-0.0466,-48.1047,-25.1736,0.0114,26.1532,84.84775203289372,30.951396073445235,86.8418045799331,-29.879930284288193,-89.09912957085503,-35.28657701280382,3.7003394400719367,3.754754396948484,2.8392723763343133,-6.77003648546007,-0.13570149739583334,3.664059109157986,0.5011,0.6226,0.7765,-0.04195,-0.00562,-0.00727,0.00082346674753353,0.0010058481711894274,0.0008041733526624739,0.0005070499028079212,0.000505211588460952,0.0004210987826809287,0.010040631517767906,0.008609886281192303,0.01185583509504795,passive,0
3.3409,rehab,small_fast,85.66463875636035,-666.6348470325373,247.60651106469695,-177.39218836126096,0.13487934973903723,-149.98884547871268,41.1935,-0.0479,-49.3525,-18.4969,0.926,16.4573,84.90517191367574,31.01251432211092,86.88582467560721,-29.984944661458332,-89.1008080376519,-35.22864447699653,3.482672814095374,3.8635911091719524,2.7535640603244893,-6.68180677625868,-0.06785074869791667,3.596208360460069,0.4506,0.5638,0.3287,-0.03272,-0.0071,-0.00384,0.00082346674753353,0.0010058481711894274,0.0008041733526624739,0.0005070499028079212,0.000505211588460952,0.0004210987826809287,0.010040631517767906,0.008609886281192303,0.01185583509504795,passive,0
3.3607,rehab,small_fast,86.65965294001181,-666.6339912472328,246.42294258898727,-177.39086928398967,0.1339548632215856,-149.98954906827734,41.0689,-0.0258,-49.7917,-7.3965,1.435,-5.2164,84.9924098855198,31.101655865659808,86.9505801059232,-30.14289008246528,-89.10330030653212,-35.14246622721354,3.7003394400719367,3.754754396948484,2.6976194476137065,-6.49063958062066,-0.06785074869791667,3.4604983859592013,0.6852,0.6389,0.4997,-0.0012,-0.01885,-0.01318,0.00082346674753353,0.0010058481711894274,0.0008041733526624739,0.0005070499028079212,0.000505211588460952,0.0004210987826809287,0.010040631517767906,0.008609886281192303,0.01185583509504795,passive,0
3.3807,rehab,small_fast,87.33460041052473,-666.6336961826803,245.64474163436478,-177.388947384781,0.13265256774818635,-149.98867191917984,40.9777,0.0225,-49.9445,4.2034,1.4577,-30.6056,85.05157017471767,31.160816154857674,86.99273742071473,-30.24814181857639,-89.10491943359375,-35.08535597059462,3.5915027278484684,3.7003394400719367,2.531920329178914,-6.498345269097222,-0.13570149739583334,3.596208360460069,0.6136,0.6474,0.4823,-0.00068,-0.0147,-0.00669,0.00082346674753353,0.0010058481711894274,0.0008041733526624739,0.0005070499028079212,0.000505211588460952,0.0004210987826809287,0.010040631517767906,0.008609886281192303,0.01185583509504795,passive,0
3.4005,rehab,small_fast,88.00062267958133,-666.6352187186696,244.85501189558576,-177.38808440679847,0.1320058550193263,-149.98742725373899,40.5576,0.0639,-49.5358,0.1354,1.13,-31.3294,85.1099690352336,31.22111178860806,87.03459560280979,-30.352952745225693,-89.10657246907552,-35.02937316894531,3.5370877709719215,3.809169353825031,2.591916830232828,-6.511383056640625,-0.13570149739583334,3.4604983859592013,0.4533,0.6302,0.2722,-0.02293,-0.00776,-0.00463,0.00082346674753353,0.0010058481711894274,0.0008041733526624739,0.0005070499028079212,0.000505211588460952,0.0004210987826809287,0.010040631517767906,0.008609886281192303,0.01185583509504795,passive,0
3.4209,rehab,small_fast,89.13440956856938,-666.6359451962231,243.4463618916292,-177.38852494870406,0.13238202949518563,-149.98651446247553,40.2782,0.0879,-49.7925,-20.931,0.468,-3.3656,85.20935587363668,31.328316867941677,87.10891648094253,-30.536617702907986,-89.10928514268663,-34.932946099175346,3.64592448319539,3.8635911091719524,2.627479628761216,-6.603156195746528,-0.06785074869791667,3.324796888563368,0.6288,0.8185,0.5848,-0.02064,-0.01346,-0.0069,0.00082346674753353,0.0010058481711894274,0.0008041733526624739,0.0005070499028079212,0.000505211588460952,0.0004210987826809287,0.010040631517767906,0.008609886281192303,0.01185583509504795,passive,0
3.4408,rehab,small_fast,89.76354551406799,-666.6304022745916,242.63742624760854,-177.3896651470845,0.13325184136678045,-149.98630925755668,40.2708,0.0879,-50.7053,-38.1788,-0.4488,24.6962,85.26445747602104,31.389217565555384,87.15232471428295,-30.641004774305554,-89.11075168185764,-34.879209730360245,3.5915027278484684,3.809169353825031,2.7678204526995667,-6.6022491455078125,-0.13570149739583334,3.392647637261285,0.5773,0.8063,0.3293,-0.025,-0.01542,-0.00294,0.00082346674753353,0.0010058481711894274,0.0008041733526624739,0.0005070499028079212,0.000505211588460952,0.0004210987826809287,0.010040631517767906,0.008609886281192303,0.01185583509504795,passive,0
3.4608,rehab,small_fast,90.69756447606616,-666.6268645893878,241.44924803263643,-177.38978910893562,0.1333597818492398,-149.98572308109723,40.1922,0.0639,-51.3129,-43.2993,-1.273,40.9428,85.34630426085822,31.47966441541615,87.21517657289411,-30.796373155381943,-89.11299811469183,-34.79967753092448,3.7003394400719367,3.5915027278484684,2.4606995535368967,-6.336322360568576,-0.13570149739583334,3.1890869140625,0.4943,0.7306,0.5164,-0.0326,-0.01443,-0.01073,0.00082346674753353,0.0010058481711894274,0.0008041733526624739,0.0005070499028079212,0.000505211588460952,0.0004210987826809287,0.010040631517767906,0.008609886281192303,0.01185583509504795,passive,0
3.4809,rehab,small_fast,91.32137766806831,-666.6260496661577,240.66568530746974,-177.38958601327283,0.1331637516891284,-149.98424270063327,39.0097,0.026,-50.0106,-39.5407,-1.5058,51.5123,85.40097755960899,31.53987166905167,87.25583822420327,-30.89898003472222,-89.11452399359808,-34.747628106011284,3.428251058748453,3.8635911091719524,2.584370528117265,-6.210674709743923,-0.13570149739583334,3.392647637261285,0.5988,0.8084,-0.1155,-0.02148,-0.00449,-0.00649,0.00082346674753353,0.0010058481711894274,0.0008041733526624739,0.0005070499028079212,0.000505211588460952,0.0004210987826809287,0.010040631517767906,0.008609886281192303,0.01185583509504795,passive,0
3.5009,rehab,small_fast,92.23874013485582,-666.6268264789738,239.49338936637074,-177.39043567155326,0.13372128724850943,-149.98386960385992,37.1218,-0.0193,-47.0606,-30.4209,-1.2065,65.6222,85.48138986719717,31.630434092908803,87.31533843691986,-31.050220065646702,-89.11678738064236,-34.669274224175346,3.319421144995359,3.7003394400719367,2.5658310994063274,-6.348902384440104,-0.06785074869791667,3.324796888563368,0.617,0.8056,0.4011,-0.0214,-0.00702,-0.01245,0.00082346674753353,0.0010058481711894274,0.0008041733526624739,0.0005070499028079212,0.000505211588460952,0.0004210987826809287,0.010040631517767906,0.008609886281192303,0.01185583509504795,passive,0
3.5205,rehab,small_fast,92.83611744763664,-666.627337321562,238.72461796632965,-177.39123680428435,0.1341901005781945,-149.9848238797441,35.9591,-0.0541,-44.7734,-14.7963,-0.5716,76.4134,85.5337652829614,31.690036282681003,87.35392655476485,-31.148944430881077,-89.11835564507378,-34.61704678005642,3.319421144995359,3.5915027278484684,2.296298942943611,-6.0102081298828125,-0.13570149739583334,3.2569376627604165,0.5834,0.8088,0.3796,-0.02478,-0.01203,-0.00235,0.00082346674753353,0.0010058481711894274,0.0008041733526624739,0.0005070499028079212,0.000505211588460952,0.0004210987826809287,0.010040631517767906,0.008609886281192303,0.01185583509504795,passive,0
3.5409,rehab,small_fast,93.72964265396153,-666.6312202969721,237.62119931822883,-177.390127667203,0.13344755598064317,-149.98691649478792,36.3066,-0.0631,-43.8688,11.7877,0.3326,74.3938,85.61210405708539,31.77673037689511,87.40843669022664,-31.293682522243923,-89.12062750922308,-34.53822665744357,3.482672814095374,3.2650061881188117,2.148289444422958,-5.866783989800347,-0.06785074869791667,3.324796888563368,0.6746,0.7873,0.2635,-0.02182,-0.01514,-0.00944,0.00082346674753353,0.0010058481711894274,0.0008041733526624739,0.0005070499028079212,0.000505211588460952,0.0004210987826809287,0.010040631517767906,0.008609886281192303,0.01185583509504795,passive,0
3.5606,rehab,small_fast,94.33668414650658,-666.6327545546875,236.91095373411812,-177.38875700047407,0.1324911477795092,-149.9877070995988,37.7969,-0.0237,-43.9165,44.2066,1.1716,56.5913,85.66530888623531,31.83313048712098,87.44285054726176,-31.387642754448784,-89.12219577365451,-34.4852786593967,3.373836101871906,3.482672814095374,2.1089059055441677,-5.64194573296441,-0.06785074869791667,3.1890869140625,0.7628,0.7486,0.4397,-0.01825,-0.01814,-0.00886,0.00082346674753353,0.0010058481711894274,0.0008041733526624739,0.0005070499028079212,0.000505211588460952,0.0004210987826809287,0.010040631517767906,0.008609886281192303,0.01185583509504795,passive,0
3.5805,rehab,small_fast,94.96198269350035,-666.6338426089862,236.21525340459007,-177.38767098768488,0.1318093266989673,-149.98780277984886,38.8138,0.0214,-42.6004,72.2764,1.5691,37.4441,85.72008416204169,31.889047905950264,87.47529964635868,-31.478788587782116,-89.12374708387587,-34.43142361111111,3.5370877709719215,3.428251058748453,2.041961367767636,-5.665317111545138,-0.13570149739583334,3.392647637261285,0.6281,0.8789,0.4532,-0.02847,-0.00032,-0.00783,0.00082346674753353,0.0010058481711894274,0.0008041733526624739,0.0005070499028079212,0.000505211588460952,0.0004210987826809287,0.010040631517767906,0.008609886281192303,0.01185583509504795,passive,0
3.6006,rehab,small_fast,95.93081130061086,-666.6297286786521,235.17190631593593,-177.38922177752002,0.13285002581724717,-149.98634280142355,40.1803,0.0434,-41.2449,82.5518,1.0063,38.932,85.8048950799621,31.973362535533337,87.52175359442683,-31.60996331108941,-89.126222398546,-34.34954325358073,3.5370877709719215,3.482672814095374,1.7921583723313737,-5.369974772135417,-0.13570149739583334,3.392647637261285,0.6789,0.9742,0.6243,-0.01301,-0.00125,-0.00651,0.00082346674753353,0.0010058481711894274,0.0008041733526624739,0.0005070499028079212,0.000505211588460952,0.0004210987826809287,0.010040631517767906,0.008609886281192303,0.01185583509504795,passive,0
