t,trajectory_type,trajectory_variant,x,y,z,rx,ry,rz,vx,vy,vz,ax,ay,az,j1,j2,j3,j4,j5,j6,dj1,dj2,dj3,dj4,dj5,dj6,fx,fy,fz,tx,ty,tz,Mx,My,Mz,Bx,By,Bz,Kx,Ky,Kz,mode,comfort
0.0007,rehab,safe_midrange_fast,80.21832897117893,-666.6352002489633,262.4749862978811,-177.65194335023872,0.2920545466188734,-149.85213358466618,0.2534,0.0927,-0.6045,-7.3289,-2.6478,29.0662,84.42813004597579,30.063835370658648,85.69202687480661,-27.52301534016927,-89.11315070258246,-35.81671820746528,-0.0,-0.0,-0.017947961788366336,0.006663004557291666,-0.06785074869791667,0.06785074869791667,-2.1559,-0.8061,-1.1862,-0.01609,-0.00135,0.04302,0.0008158885757438838,0.001000023796223104,0.0009098275913856924,0.0005507274181582034,0.000501415750477463,0.00041397270979359746,0.01111246645450592,0.010600005276501179,0.011704548262059689,passive,0
0.021,rehab,safe_midrange_fast,80.21826275840898,-666.6352303353926,262.4753077294728,-177.65190260050932,0.29203597203472725,-149.85214862770388,0.184,0.0594,-0.3627,-7.6488,-2.3983,24.5645,84.42811644903504,30.063814975247524,85.69202007633625,-27.523040771484375,-89.11315070258246,-35.816709730360245,-0.05441495687654703,-0.05441495687654703,0.0008362118560488861,-0.026889377170138888,-0.0,-0.0,-2.1105,-0.6748,-1.0529,-0.01494,-0.00426,0.04452,0.0008158885757438838,0.001000023796223104,0.0009098275913856924,0.0005507274181582034,0.000501415750477463,0.00041397270979359746,0.01111246645450592,0.010600005276501179,0.011704548262059689,passive,0
0.041,rehab,safe_midrange_fast,80.21816254492391,-666.6351372454667,262.47554802760527,-177.6519029338873,0.29201597250817846,-149.8521727855867,0.0178,0.0011,0.0955,-8.696,-1.8853,16.9027,84.42811644903504,30.063787781366027,85.69202687480661,-27.523023817274304,-89.1131591796875,-35.81669277615017,-0.0,-0.05441495687654703,0.005969056988706683,-0.0074005126953125,-0.06785074869791667,0.06785074869791667,-2.1628,-0.6724,-1.2659,-0.0177,-0.00425,0.04805,0.0008158885757438838,0.001000023796223104,0.0009098275913856924,0.0005507274181582034,0.000501415750477463,0.00041397270979359746,0.01111246645450592,0.010600005276501179,0.011704548262059689,passive,0
0.0607,rehab,safe_midrange_fast,80.21818395082576,-666.6350718965916,262.4760327565189,-177.65185802638936,0.29199440899994245,-149.85218090005415,-0.1981,-0.0397,0.4939,-10.3575,-1.323,11.694,84.42812324750541,30.06376058748453,85.692033673277,-27.52303229437934,-89.11315070258246,-35.816684299045136,-0.05441495687654703,-0.0,0.022523332350324877,0.019675360785590276,-0.0,-0.0,-2.2821,-0.7573,-1.6225,-0.03603,-0.00281,0.04514,0.0008158885757438838,0.001000023796223104,0.0009098275913856924,0.0005507274181582034,0.000501415750477463,0.00041397270979359746,0.01111246645450592,0.010600005276501179,0.011704548262059689,passive,0
0.0808,rehab,safe_midrange_fast,80.21619397326789,-666.6347687067436,262.48077284105284,-177.65151346236922,0.29175730551733364,-149.85235580735727,-0.4729,-0.064,0.8462,-12.8713,-0.7231,9.143,84.42800087503868,30.063515842551052,85.6920064793955,-27.523023817274304,-89.11315070258246,-35.81669277615017,-0.05441495687654703,-0.0,-0.01573845891669245,0.007434421115451389,0.06785074869791667,-0.0,-2.2325,-0.7672,-1.4639,-0.04292,-0.00012,0.04386,0.0008158885757438838,0.001000023796223104,0.0009098275913856924,0.0005507274181582034,0.000501415750477463,0.00041397270979359746,0.01111246645450592,0.010600005276501179,0.011704548262059689,passive,0
0.1006,rehab,safe_midrange_fast,80.20968340270034,-666.6346181426775,262.49489619603196,-177.65052197887528,0.2910245670544497,-149.85290688965694,-0.7142,-0.057,0.9729,-14.8479,-0.1243,8.5434,84.42759976528659,30.06269322763575,85.69181612222502,-27.522930569118923,-89.11315070258246,-35.8166758219401,-0.0,-0.05441495687654703,-0.0023590692199102724,0.03067864312065972,0.06785074869791667,0.06785074869791667,-2.2647,-0.768,-1.1848,-0.04288,0.0076,0.04102,0.0008158885757438838,0.001000023796223104,0.0009098275913856924,0.0005507274181582034,0.000501415750477463,0.00041397270979359746,0.01111246645450592,0.010600005276501179,0.011704548262059689,passive,0
0.1209,rehab,safe_midrange_fast,80.1869468516787,-666.6370260544551,262.5271988731887,-177.6483284270933,0.28946136112080906,-149.85479886841028,-1.0843,-0.0347,1.1001,-18.5877,0.7603,11.2269,84.42541745629642,30.060157398186107,85.69051081591313,-27.522269354926216,-89.11315070258246,-35.81674363878038,-0.16324487062964108,-0.2176666259765625,-0.11407833288211633,0.09108649359809028,-0.0,-0.06785074869791667,-2.1321,-0.8004,-0.4344,-0.02997,0.00313,0.04014,0.0008158885757438838,0.001000023796223104,0.0009098275913856924,0.0005507274181582034,0.000501415750477463,0.00041397270979359746,0.01111246645450592,0.010600005276501179,0.011704548262059689,passive,0
0.1411,rehab,safe_midrange_fast,80.14949742193642,-666.6409832460299,262.5723690427807,-177.6463932354837,0.28806466811898457,-149.85715054682387,-1.5571,-0.031,1.3394,-26.1896,1.5984,20.0362,84.42275925438003,30.05772354579208,85.6885596549157,-27.520031399197048,-89.11315070258246,-35.81722683376736,-0.16324487062964108,-0.10882991375309406,-0.08547716801709468,0.1388210720486111,0.06785074869791667,-0.06785074869791667,-2.1785,-0.6514,-0.7167,-0.03148,0.00662,0.04427,0.0008158885757438838,0.001000023796223104,0.0009098275913856924,0.0005507274181582034,0.000501415750477463,0.00041397270979359746,0.01111246645450592,0.010600005276501179,0.011704548262059689,passive,0
0.1609,rehab,safe_midrange_fast,80.1200132759174,-666.6411827422276,262.5984134621866,-177.64645705094173,0.28803903394675096,-149.85737722749283,-2.0629,-0.0241,1.7017,-34.5425,1.8657,33.0979,84.41961836106707,30.055344081161046,85.6866968740331,-27.51590304904514,-89.11314222547743,-35.81988864474826,-0.16324487062964108,-0.10882991375309406,-0.09483186325224319,0.2936045328776042,-0.0,-0.20355224609375,-2.1016,-0.6906,-0.4933,-0.02341,-0.0011,0.04748,0.0008158885757438838,0.001000023796223104,0.0009098275913856924,0.0005507274181582034,0.000501415750477463,0.00041397270979359746,0.01111246645450592,0.010600005276501179,0.011704548262059689,passive,0
0.1809,rehab,safe_midrange_fast,80.0669787232773,-666.6381204424324,262.62816858598455,-177.64903391861074,0.28976867316190114,-149.85646071579708,-2.6491,0.0231,2.3091,-43.432,1.7383,48.4831,84.41581801612779,30.053250152285734,85.68490207785428,-27.509477403428818,-89.11309983995226,-35.824313693576386,-0.2176666259765625,-0.10882991375309406,-0.10798690342667079,0.39713541666666663,0.06785074869791667,-0.2714114718967014,-2.2494,-0.6384,-1.0643,-0.01784,0.00249,0.04946,0.0008158885757438838,0.001000023796223104,0.0009098275913856924,0.0005507274181582034,0.000501415750477463,0.00041397270979359746,0.01111246645450592,0.010600005276501179,0.011704548262059689,passive,0
0.2009,rehab,safe_midrange_fast,80.02043697119676,-666.6358045741816,262.6585516909134,-177.65117144077823,0.29121363127147876,-149.85555385309675,-3.616,0.0988,3.4543,-53.6825,1.4378,64.063,84.41086193122486,30.050279220732133,85.68222348052676,-27.500389946831596,-89.11304897732205,-35.83031548394097,-0.2720815828531095,-0.16324487062964108,-0.18762418539217202,0.5190192328559028,-0.0,-0.4071129692925347,-2.2599,-0.6561,-1.4202,-0.01155,-0.00159,0.05158,0.0008158885757438838,0.001000023796223104,0.0009098275913856924,0.0005507274181582034,0.000501415750477463,0.00041397270979359746,0.01111246645450592,0.010600005276501179,0.011704548262059689,passive,0
0.2212,rehab,safe_midrange_fast,79.920190148756,-666.6359417357365,262.7540862085406,-177.65250106241925,0.2921320042109932,-149.85445128810545,-5.185,0.1447,5.3457,-65.0194,1.1039,77.7824,84.4037915220355,30.04486083984375,85.67721300786084,-27.488199869791664,-89.11289638943143,-35.838216145833336,-0.435333251953125,-0.32649653972965653,-0.30132180393332303,0.6581200493706597,-0.0,-0.4749637179904514,-1.9775,-0.5237,-0.1823,0.00514,-0.01494,0.04263,0.0008158885757438838,0.001000023796223104,0.0009098275913856924,0.0005507274181582034,0.000501415750477463,0.00041397270979359746,0.01111246645450592,0.010600005276501179,0.011704548262059689,passive,0
0.2409,rehab,safe_midrange_fast,79.83474130281022,-666.6358652683552,262.8481320206043,-177.65267900044347,0.2923056110580926,-149.8534118532269,-6.5206,0.1291,7.0543,-77.5861,0.5239,88.6215,84.39457959467822,30.03677745856861,85.67011540479,-27.472407023111977,-89.11259121365018,-35.84843105740017,-0.489748208829672,-0.544163165706219,-0.38348131840771965,0.9071180555555556,-0.0,-0.6106736924913194,-2.2595,-0.6643,-1.3263,-0.01576,-0.00823,0.05386,0.0008158885757438838,0.001000023796223104,0.0009098275913856924,0.0005507274181582034,0.000501415750477463,0.00041397270979359746,0.01111246645450592,0.010600005276501179,0.011704548262059689,passive,0
0.2607,rehab,safe_midrange_fast,79.67853757940453,-666.6305443551586,263.0325415671567,-177.65263883505244,0.29234465250886543,-149.85111288936272,-8.0219,0.108,8.8304,-89.1311,-0.4979,94.1331,84.38341650632348,30.025757138091738,85.66167850305538,-27.452587551540798,-89.11220974392361,-35.861239963107636,-0.6529998779296875,-0.6529998779296875,-0.4501607158396504,1.126039293077257,0.06785074869791667,-0.7463751898871528,-2.1908,-0.5957,-1.0841,-0.01887,-0.0038,0.04797,0.0008158885757438838,0.001000023796223104,0.0009098275913856924,0.0005507274181582034,0.000501415750477463,0.00041397270979359746,0.01111246645450592,0.010600005276501179,0.011704548262059689,passive,0
0.281,rehab,safe_midrange_fast,79.50212560328565,-666.6243179426897,263.2315029369714,-177.65222663898422,0.29209309313593346,-149.84985547268545,-9.846,0.0967,10.6856,-96.8287,-1.5734,93.3768,84.36530538124613,30.008305464640703,85.64919651144803,-27.422595553927952,-89.1116926405165,-35.88069491916232,-0.8162515470297029,-0.8162515470297029,-0.5748106701539295,1.4281039767795138,-0.0,-0.9499359130859375,-2.0892,-0.673,-0.9608,-0.01518,-0.00144,0.04841,0.0008158885757438838,0.001000023796223104,0.0009098275913856924,0.0005507274181582034,0.000501415750477463,0.00041397270979359746,0.01111246645450592,0.010600005276501179,0.011704548262059689,passive,0
0.3009,rehab,safe_midrange_fast,79.2249457042249,-666.6238851652666,263.52802866525593,-177.65090786693247,0.2911939328989659,-149.84952710215427,-12.0325,0.0748,12.6533,-104.4709,-2.0773,92.9896,84.34538586304919,29.9907382171933,85.63548399670289,-27.39209493001302,-89.11115858289931,-35.90053982204861,-1.0883331298828125,-0.979496417659344,-0.7375252600943688,1.631681654188368,0.06785074869791667,-1.0856458875868056,-2.2432,-0.6554,-0.7682,-0.02081,-0.00077,0.0464,0.0008158885757438838,0.001000023796223104,0.0009098275913856924,0.0005507274181582034,0.000501415750477463,0.00041397270979359746,0.01111246645450592,0.010600005276501179,0.011704548262059689,passive,0
0.3208,rehab,safe_midrange_fast,79.00630496319938,-666.6270544560678,263.75364805808454,-177.65031237801566,0.2907595717206247,-149.84939099258918,-14.0893,0.0409,14.3675,-114.4571,-1.8897,98.0148,84.32692801598274,29.97522410779896,85.6222677702951,-27.36371358235677,-89.1107177734375,-35.918875800238716,-1.1971630436359066,-0.979496417659344,-0.8822510974241955,1.8780093722873263,-0.0,-1.2213473849826388,-2.2438,-0.6458,-0.8221,-0.02237,-0.00498,0.05013,0.0008158885757438838,0.001000023796223104,0.0009098275913856924,0.0005507274181582034,0.000501415750477463,0.00041397270979359746,0.01111246645450592,0.010600005276501179,0.011704548262059689,passive,0
0.3412,rehab,safe_midrange_fast,78.75476708614396,-666.6264955312053,264.00164949522264,-177.6506397945169,0.2910147248900988,-149.8495481314778,-16.888,-0.0189,16.6616,-132.9199,-1.5291,114.8939,84.29984970848159,29.953176668374844,85.60409545898438,-27.32245551215278,-89.11003112792969,-35.945324367947045,-1.4692514249593904,-1.1971630436359066,-0.9256457338238706,2.146267361111111,-0.0,-1.4927588568793402,-2.2252,-0.64,-1.1339,-0.01855,-0.00075,0.05075,0.0008158885757438838,0.001000023796223104,0.0009098275913856924,0.0005507274181582034,0.000501415750477463,0.00041397270979359746,0.01111246645450592,0.010600005276501179,0.011704548262059689,passive,0
0.3606,rehab,safe_midrange_fast,78.32031286136808,-666.6232209756982,264.4206364943182,-177.6519846321052,0.29201049076289004,-149.84915833551688,-19.2427,-0.0692,18.5617,-149.1375,-1.1259,133.122,84.2684543722927,29.927913552463643,85.58403997137995,-27.274831136067707,-89.10924275716145,-35.97641838921441,-1.6325030940594059,-1.305999755859375,-1.0962397509282178,2.5399356418185763,-0.0,-1.6284688313802083,-2.4462,-0.6932,-0.4473,-0.03591,-0.0161,0.04735,0.0008158885757438838,0.001000023796223104,0.0009098275913856924,0.0005507274181582034,0.000501415750477463,0.00041397270979359746,0.01111246645450592,0.010600005276501179,0.011704548262059689,passive,0
0.3806,rehab,safe_midrange_fast,77.9814187543803,-666.6279100978056,264.7454376991035,-177.65233008147706,0.29226946234686174,-149.84988884837483,-21.7589,-0.0824,20.7848,-155.1124,-0.458,143.0578,84.23211654814163,29.89972709429146,85.5594023147432,-27.220331827799477,-89.10835266113281,-36.011572943793404,-1.9589996337890625,-1.5236663818359375,-1.3516650813640934,2.823350694444444,-0.0,-1.832029554578993,-2.3295,-0.6916,-1.2614,-0.00891,-0.00939,0.05298,0.0008158885757438838,0.001000023796223104,0.0009098275913856924,0.0005507274181582034,0.000501415750477463,0.00041397270979359746,0.01111246645450592,0.010600005276501179,0.011704548262059689,passive,0
0.4007,rehab,safe_midrange_fast,77.41490020309809,-666.627869399532,265.2922432501353,-177.6532457070236,0.29296112832965626,-149.84997174681467,-25.3524,-0.0634,24.2569,-155.0461,0.2271,144.7385,84.19133932283609,29.867162421198174,85.53224922406791,-27.158830430772568,-89.10732693142361,-36.051627265082466,-2.176666259765625,-1.6325030940594059,-1.377553656549737,3.2862430148654513,0.06785074869791667,-2.0355902777777777,-2.4161,-0.7777,-1.1739,-0.02323,-5e-05,0.05392,0.0008158885757438838,0.001000023796223104,0.0009098275913856924,0.0005507274181582034,0.000501415750477463,0.00041397270979359746,0.01111246645450592,0.010600005276501179,0.011704548262059689,passive,0
0.4208,rehab,safe_midrange_fast,76.98813605744466,-666.629732115068,265.69825462276754,-177.65368762083048,0.2932912193816119,-149.85033397797028,-28.7774,-0.0391,27.6415,-145.0767,0.8209,133.6119,84.14512332123105,29.83149764561417,85.50214559725015,-27.090733846028645,-89.106199476454,-36.09666612413194,-2.3399179288656407,-1.9045846769125154,-1.6207485387821008,3.612077501085069,0.06785074869791667,-2.374852498372396,-2.1603,-0.5502,-0.0448,-0.00034,-0.00266,0.04064,0.0008158885757438838,0.001000023796223104,0.0009098275913856924,0.0005507274181582034,0.000501415750477463,0.00041397270979359746,0.01111246645450592,0.010600005276501179,0.011704548262059689,passive,0
0.441,rehab,safe_midrange_fast,76.2813121168253,-666.631678236165,266.35949979484474,-177.6544284708641,0.2938275122746686,-149.85032035276018,-32.3642,-0.0238,31.0389,-134.0185,1.2017,117.7959,84.09389004848971,29.792535611898593,85.46919341134553,-27.016593085394966,-89.10491943359375,-36.14697774251302,-2.7752511808187657,-2.122251302889078,-1.6836275912747525,3.7890625,0.06785074869791667,-2.6462639702690973,-2.2853,-0.6847,-0.5562,-0.00843,-0.00365,0.0453,0.0008158885757438838,0.001000023796223104,0.0009098275913856924,0.0005507274181582034,0.000501415750477463,0.00041397270979359746,0.01111246645450592,0.010600005276501179,0.011704548262059689,passive,0
0.4609,rehab,safe_midrange_fast,75.77185815154708,-666.6332126033319,266.8531327804442,-177.65322470320754,0.29296333175001105,-149.84979384604313,-34.5434,0.0048,32.9321,-121.2613,1.1772,97.2468,84.03861848434599,29.749093386206297,85.43324989847618,-26.93701002332899,-89.10354614257812,-36.201977199978295,-2.938502849918781,-2.2310880151125465,-1.8232681727645421,4.208916558159722,0.06785074869791667,-2.781973944769965,-2.2203,-0.7631,-0.6946,-0.00716,-0.00356,0.0498,0.0008158885757438838,0.001000023796223104,0.0009098275913856924,0.0005507274181582034,0.000501415750477463,0.00041397270979359746,0.01111246645450592,0.010600005276501179,0.011704548262059689,passive,0
0.4807,rehab,safe_midrange_fast,74.81441182344605,-666.6315914500473,267.77646636201905,-177.65119336849656,0.29147722076866356,-149.8488472276661,-36.2412,0.0189,33.9766,-95.6464,0.7698,64.6274,83.96720055306312,29.692883633150913,85.3871494708675,-26.83469984266493,-89.10176595052083,-36.273184882269966,-3.047339562142249,-2.3943328857421875,-2.0036587856783723,4.406636555989583,0.06785074869791667,-3.121236165364583,-2.1965,-0.7587,-0.7846,-0.01194,-0.00274,0.04455,0.0008158885757438838,0.001000023796223104,0.0009098275913856924,0.0005507274181582034,0.000501415750477463,0.00041397270979359746,0.01111246645450592,0.010600005276501179,0.011704548262059689,passive,0
0.5007,rehab,safe_midrange_fast,74.22836160536286,-666.6276220080165,268.3332836554031,-177.65014446675593,0.2907457800004248,-149.84805352085579,-37.581,0.0239,34.4964,-71.8628,0.245,37.0755,83.91641597936649,29.65326214780902,85.35491792282255,-26.76283942328559,-89.10047743055556,-36.32366604275173,-3.1561694758953434,-2.6664212670656715,-2.017364501953125,4.5506540934244795,0.13570149739583334,-3.392647637261285,-2.2147,-0.8122,-0.7793,-0.01204,-0.01087,0.04696,0.0008158885757438838,0.001000023796223104,0.0009098275913856924,0.0005507274181582034,0.000501415750477463,0.00041397270979359746,0.01111246645450592,0.010600005276501179,0.011704548262059689,passive,0
0.5209,rehab,safe_midrange_fast,73.29381402776721,-666.6265887767485,269.18827013242577,-177.64993627420733,0.2905970801820348,-149.84750526840557,-39.0889,0.0403,35.1752,-65.6879,-0.1218,29.2794,83.83541220485574,29.59217109302483,85.30415374453705,-26.649653116861977,-89.09840053982205,-36.404147677951386,-3.428251058748453,-2.61199951171875,-2.162715798557395,4.8022206624348955,0.06785074869791667,-3.596208360460069,-2.4645,-0.852,-0.9426,-0.02929,-0.00041,0.05162,0.0008158885757438838,0.001000023796223104,0.0009098275913856924,0.0005507274181582034,0.000501415750477463,0.00041397270979359746,0.01111246645450592,0.010600005276501179,0.011704548262059689,passive,0
0.5409,rehab,safe_midrange_fast,72.6350528078564,-666.6294571412079,269.7611121399082,-177.65097504496225,0.29138127439914757,-149.84777400539383,-41.0452,0.0406,36.3001,-74.3027,-0.3668,37.8277,83.7785022093518,29.551862962175125,85.26934557622022,-26.571629842122395,-89.09696790907118,-36.46009657118056,-3.482672814095374,-2.448754641089109,-2.270389972346844,4.9147288004557295,0.13570149739583334,-3.528349134657118,-2.4073,-0.7874,-1.0054,-0.00911,-0.00525,0.05284,0.0008158885757438838,0.001000023796223104,0.0009098275913856924,0.0005507274181582034,0.000501415750477463,0.00041397270979359746,0.01111246645450592,0.010600005276501179,0.011704548262059689,passive,0
0.5606,rehab,safe_midrange_fast,71.94057213736765,-666.6294718185418,270.34780566420056,-177.65226536868843,0.2923000648608213,-149.84895800692354,-41.8396,0.0185,36.4508,-86.2848,-0.4796,51.3268,83.70301199431466,29.499773082166616,85.22466602891978,-26.470828586154514,-89.09513685438368,-36.53315226236979,-3.809169353825031,-2.503169597965656,-2.2482677497486074,5.078497992621528,0.06785074869791667,-3.799769083658854,-2.4159,-0.7568,-0.641,-0.02195,-0.01268,0.05148,0.0008158885757438838,0.001000023796223104,0.0009098275913856924,0.0005507274181582034,0.000501415750477463,0.00041397270979359746,0.01111246645450592,0.010600005276501179,0.011704548262059689,passive,0
0.581,rehab,safe_midrange_fast,70.86984784112784,-666.6292047466455,271.25903223549665,-177.65381891762073,0.2933909065865965,-149.84971416470538,-42.835,-0.0144,37.0181,-95.753,-0.4911,61.7912,83.6092474909112,29.435099233495126,85.1689321687906,-26.345901489257812,-89.09285651312933,-36.624755859375,-3.918006066048499,-2.7752511808187657,-2.3698244000425435,5.2987416585286455,0.06785074869791667,-3.9354705810546875,-2.4686,-0.779,-0.8138,-0.01859,-0.01038,0.04814,0.0008158885757438838,0.001000023796223104,0.0009098275913856924,0.0005507274181582034,0.000501415750477463,0.00041397270979359746,0.01111246645450592,0.010600005276501179,0.011704548262059689,passive,0
0.601,rehab,safe_midrange_fast,70.13884131228963,-666.6268169346362,271.90320934198763,-177.65293851814158,0.292746758819075,-149.84998476354718,-45.4691,-0.0195,39.0514,-95.2149,-0.5161,61.6277,83.54520589998452,29.389454303401532,85.13033725247524,-26.26095241970486,-89.09125434027777,-36.687562730577255,-4.081257735148514,-2.884087893042234,-2.381130256275139,5.19333733452691,0.06785074869791667,-4.071180555555555,-2.4389,-0.6461,0.0556,-0.00445,-0.0177,0.05157,0.0008158885757438838,0.001000023796223104,0.0009098275913856924,0.0005507274181582034,0.000501415750477463,0.00041397270979359746,0.01111246645450592,0.010600005276501179,0.011704548262059689,passive,0
0.6208,rehab,safe_midrange_fast,69.00601250757583,-666.6273698398905,272.8928003747343,-177.65062827625687,0.29106556204916373,-149.85120667885693,-48.2368,-0.0108,41.0291,-81.5183,-0.3926,49.5419,83.44600941875193,29.320014726997602,85.07038834071395,-26.13165113661024,-89.08877054850261,-36.784066094292534,-4.135672692025062,-2.7752511808187657,-2.532185469523515,5.431094699435763,0.13570149739583334,-4.139031304253472,-2.3945,-0.8183,-0.5394,-0.0171,-0.00357,0.05393,0.0008158885757438838,0.001000023796223104,0.0009098275913856924,0.0005507274181582034,0.000501415750477463,0.00041397270979359746,0.01111246645450592,0.010600005276501179,0.011704548262059689,passive,0
0.6406,rehab,safe_midrange_fast,68.24077972904631,-666.627742246656,273.55645060507595,-177.64932599747144,0.29009303328868574,-149.85163343380577,-49.8432,-0.0124,41.9491,-65.9146,-0.0977,35.9841,83.37900369474204,29.273683151396195,85.02969949552329,-26.04437086317274,-89.08710055881076,-36.84965345594618,-4.298924361125077,-2.7208362239422184,-2.6071386054010675,5.491570366753472,0.13570149739583334,-4.342592027452257,-2.6045,-0.8194,-0.776,-0.02091,-0.01142,0.05245,0.0008158885757438838,0.001000023796223104,0.0009098275913856924,0.0005507274181582034,0.000501415750477463,0.00041397270979359746,0.01111246645450592,0.010600005276501179,0.011704548262059689,passive,0
0.661,rehab,safe_midrange_fast,67.07963867157596,-666.6303880138814,274.52149072212575,-177.65050301980347,0.2909259366732549,-149.8512437691163,-51.2209,-0.017,42.4888,-48.0044,0.0582,19.2993,83.2943559401106,29.217711344803913,84.97862258760055,-25.93380398220486,-89.08498975965712,-36.933534410264755,-4.244502605778156,-2.7208362239422184,-2.588687556804997,5.424084133572048,0.06785074869791667,-4.206882052951388,-2.7147,-0.773,-0.7838,-0.03036,-0.00292,0.04893,0.0008158885757438838,0.001000023796223104,0.0009098275913856924,0.0005507274181582034,0.000501415750477463,0.00041397270979359746,0.01111246645450592,0.010600005276501179,0.011704548262059689,passive,0
0.6808,rehab,safe_midrange_fast,66.30468859994868,-666.6305828776719,275.15480923495466,-177.65202366365128,0.2920684316589738,-149.85065131182057,-51.2863,-0.0244,42.1087,-16.5895,-0.1393,-8.7449,83.22646641495204,29.17399038182627,84.93770939288753,-25.84560818142361,-89.08327738444011,-37.000740898980034,-4.4077542748781715,-2.7752511808187657,-2.5119736171004794,5.520426432291667,0.13570149739583334,-4.342592027452257,-2.7242,-0.807,-1.5257,-0.02947,-0.01009,0.06374,0.0008158885757438838,0.001000023796223104,0.0009098275913856924,0.0005507274181582034,0.000501415750477463,0.00041397270979359746,0.01111246645450592,0.010600005276501179,0.011704548262059689,passive,0
0.701,rehab,safe_midrange_fast,64.91692571529177,-666.6304063961212,276.25934486151874,-177.65487108781818,0.29427902584042426,-149.85105893642825,-50.4881,-0.0265,41.0062,15.7612,-0.4017,-37.2632,83.08796797648515,29.086358098700494,84.85673961072865,-25.668852064344616,-89.07975938585069,-37.137035793728295,-4.4077542748781715,-2.557584554842203,-2.628567384021117,5.55570814344618,0.13570149739583334,-4.47829352484809,-2.6645,-0.8213,-0.6236,-0.03068,-0.01194,0.05409,0.0008158885757438838,0.001000023796223104,0.0009098275913856924,0.0005507274181582034,0.000501415750477463,0.00041397270979359746,0.01111246645450592,0.010600005276501179,0.011704548262059689,passive,0
0.7211,rehab,safe_midrange_fast,64.10682252150579,-666.6304991176135,276.90812004452255,-177.65500195467078,0.29433532756931186,-149.85203315562825,-50.2453,-0.0208,40.4145,33.6481,-0.3581,-54.7928,83.01705313200998,29.041617365166694,84.81545929861541,-25.58069864908854,-89.07803853352864,-37.20598008897569,-4.516590987101639,-2.884087893042234,-2.5827728875792855,5.536939832899305,0.06785074869791667,-4.546152750651042,-2.54,-0.85,-0.3293,-0.02313,-0.01306,0.04792,0.0008158885757438838,0.001000023796223104,0.0009098275913856924,0.0005507274181582034,0.000501415750477463,0.00041397270979359746,0.01111246645450592,0.010600005276501179,0.011704548262059689,passive,0
0.7411,rehab,safe_midrange_fast,62.88421214511521,-666.6293131621791,277.89723978865646,-177.6527556050859,0.29256743805615454,-149.85359983245328,-50.3779,-0.0255,40.0037,38.2437,-0.0554,-63.5448,82.9277212312906,28.98487733142211,84.76382491612198,-25.471903483072914,-89.07585991753471,-37.29252285427517,-4.516590987101639,-2.884087893042234,-2.5242788484781093,5.469716389973958,0.06785074869791667,-4.342592027452257,-2.5811,-0.8945,-0.5956,-0.02073,-0.00893,0.04916,0.0008158885757438838,0.001000023796223104,0.0009098275913856924,0.0005507274181582034,0.000501415750477463,0.00041397270979359746,0.01111246645450592,0.010600005276501179,0.011704548262059689,passive,0
0.7606,rehab,safe_midrange_fast,62.08125707735868,-666.6307129620818,278.55435551344715,-177.65044790339272,0.29088493354494105,-149.85386630613618,-49.4973,-0.0481,38.6088,25.0852,0.3161,-59.4015,82.85728227974164,28.94000742695119,84.7221842850789,-25.386369493272568,-89.07406277126736,-37.361645168728295,-4.4077542748781715,-2.7752511808187657,-2.614283797764542,5.4282887776692705,0.06785074869791667,-4.342592027452257,-2.6801,-0.8429,-0.536,-0.01461,-0.00613,0.05443,0.0008158885757438838,0.001000023796223104,0.0009098275913856924,0.0005507274181582034,0.000501415750477463,0.00041397270979359746,0.01111246645450592,0.010600005276501179,0.011704548262059689,passive,0
0.7807,rehab,safe_midrange_fast,61.2779290268619,-666.6329634727513,279.18548136311864,-177.64919950220101,0.2899616862469497,-149.85408436485147,-47.832,-0.055,36.4117,9.4716,0.6301,-52.9976,82.78706767771503,28.89654480584777,84.68136626895111,-25.301759507921005,-89.07228257921007,-37.43069966634115,-4.462176030225093,-2.7208362239422184,-2.4985058472888304,5.3124237060546875,0.06785074869791667,-4.47829352484809,-2.6541,-0.9589,-0.9091,-0.01618,0.00172,0.05818,0.0008158885757438838,0.001000023796223104,0.0009098275913856924,0.0005507274181582034,0.000501415750477463,0.00041397270979359746,0.01111246645450592,0.010600005276501179,0.011704548262059689,passive,0
0.8007,rehab,safe_midrange_fast,60.07858419617847,-666.6337000769181,280.0753825500446,-177.6504198466516,0.2908785139077956,-149.85381323361693,-47.9394,-0.0261,35.4155,1.6368,0.7677,-51.6156,82.68216048136796,28.835256595422727,84.62257309715346,-25.17795138888889,-89.06958685980902,-37.53457811143663,-4.244502605778156,-2.3943328857421875,-2.477185844194771,5.004238552517361,0.13570149739583334,-4.410442776150173,-2.6936,-0.8583,-1.1813,-0.00672,-0.01451,0.06233,0.0008158885757438838,0.001000023796223104,0.0009098275913856924,0.0005507274181582034,0.000501415750477463,0.00041397270979359746,0.01111246645450592,0.010600005276501179,0.011704548262059689,passive,0
0.821,rehab,safe_midrange_fast,59.27941240729251,-666.6343255652378,280.6468329390889,-177.65128711870426,0.29147822594865225,-149.85330786132673,-48.0037,0.0115,34.4491,-3.2028,0.7358,-50.3261,82.59454859365331,28.78642998119392,84.57537811581452,-25.078048706054688,-89.06740824381511,-37.62150234646267,-4.298924361125077,-2.3399179288656407,-2.2829603440690747,4.87687004937066,0.06785074869791667,-4.410442776150173,-2.834,-0.8618,-1.2278,-0.01794,-0.00131,0.0621,0.0008158885757438838,0.001000023796223104,0.0009098275913856924,0.0005507274181582034,0.000501415750477463,0.00041397270979359746,0.01111246645450592,0.010600005276501179,0.011704548262059689,passive,0
0.8408,rehab,safe_midrange_fast,58.088051595286615,-666.6356805721664,281.475767006268,-177.65218400819916,0.29215886784615686,-149.8523364334063,-49.5462,0.0378,34.4799,-10.1704,0.5082,-45.1435,82.49030764740293,28.729934692382812,84.52117391151957,-24.963192409939236,-89.06472100151909,-37.725414699978295,-4.244502605778156,-2.3943328857421875,-2.182281796294864,4.778951009114583,0.13570149739583334,-4.410442776150173,-2.8414,-1.0108,-1.3115,-0.02303,-0.00275,0.05625,0.0008158885757438838,0.001000023796223104,0.0009098275913856924,0.0005507274181582034,0.000501415750477463,0.00041397270979359746,0.01111246645450592,0.010600005276501179,0.011704548262059689,passive,0
0.8606,rehab,safe_midrange_fast,57.29814480561166,-666.6343333173326,282.01934949297424,-177.6520431796927,0.2921104106811482,-149.8517322560529,-50.0936,0.0437,33.9221,-20.6204,-0.0084,-35.324,82.42116720369546,28.69265867932008,84.48632495238049,-24.889195760091145,-89.06288146972656,-37.79431660970052,-4.190087648901609,-2.3399179288656407,-2.097498072255956,4.5898691813151045,0.13570149739583334,-4.410442776150173,-2.9117,-0.9126,-0.8535,-0.02611,-0.00201,0.06058,0.0008158885757438838,0.001000023796223104,0.0009098275913856924,0.0005507274181582034,0.000501415750477463,0.00041397270979359746,0.01111246645450592,0.010600005276501179,0.011704548262059689,passive,0
0.881,rehab,safe_midrange_fast,56.112712573066894,-666.6292473279805,282.8233179098918,-177.65120000100427,0.2914265107426506,-149.85037656800313,-49.2524,0.0301,32.3218,-20.0835,-0.6027,-32.7229,82.31739535190091,28.637223951887375,84.43558796797649,-24.781070285373264,-89.06019422743056,-37.89821200900607,-4.353339318001624,-2.3399179288656407,-2.1302327071086014,4.515516493055555,0.06785074869791667,-4.342592027452257,-2.7662,-0.8834,-1.0467,-0.01184,-0.00433,0.06334,0.0008158885757438838,0.001000023796223104,0.0009098275913856924,0.0005507274181582034,0.000501415750477463,0.00041397270979359746,0.01111246645450592,0.010600005276501179,0.011704548262059689,passive,0
0.9009,rehab,safe_midrange_fast,55.30977692456616,-666.6283467566864,283.34964845961844,-177.65003914107393,0.29049713322838383,-149.85065526483683,-49.7028,0.0027,31.7888,-12.8682,-0.7833,-33.2073,82.24715355599281,28.601110477258665,84.40236384325688,-24.711193508572048,-89.05840555826823,-37.967376708984375,-4.244502605778156,-2.2310880151125465,-1.9863090892829518,4.3598683675130205,0.06785074869791667,-4.47829352484809,-2.7118,-0.9176,-0.7329,-0.00927,-0.00786,0.05813,0.0008158885757438838,0.001000023796223104,0.0009098275913856924,0.0005507274181582034,0.000501415750477463,0.00041397270979359746,0.01111246645450592,0.010600005276501179,0.011704548262059689,passive,0
0.921,rehab,safe_midrange_fast,54.3073929282212,-666.629502749829,283.9928869953916,-177.6488262946347,0.28952675482238704,-149.85027231370216,-49.3182,-0.0251,30.7868,0.3564,-0.4346,-33.0559,82.15949407898553,28.557341924988396,84.36105633726214,-24.625116984049477,-89.05614217122395,-38.05443657769097,-4.4077542748781715,-2.0134145906656093,-2.007907829662361,4.284718831380208,0.06785074869791667,-4.342592027452257,-2.8415,-1.0016,-0.8033,-0.02414,0.00395,0.05452,0.0008158885757438838,0.001000023796223104,0.0009098275913856924,0.0005507274181582034,0.000501415750477463,0.00041397270979359746,0.01111246645450592,0.010600005276501179,0.011704548262059689,passive,0
0.9413,rehab,safe_midrange_fast,53.10436792277928,-666.6334575785799,284.7164923211795,-177.64996796490618,0.2905283781455967,-149.85174320717627,-50.2348,-0.0417,30.6307,9.3797,0.2301,-26.8637,82.05432174229385,28.5084065352336,84.31288917465966,-24.523484971788193,-89.05337015787761,-38.156984117296005,-4.298924361125077,-2.0134145906656093,-2.017078966197401,4.194988674587673,0.13570149739583334,-4.342592027452257,-2.8555,-1.0822,-1.0932,-0.0206,-0.00711,0.05301,0.0008158885757438838,0.001000023796223104,0.0009098275913856924,0.0005507274181582034,0.000501415750477463,0.00041397270979359746,0.01111246645450592,0.010600005276501179,0.011704548262059689,passive,0
0.9608,rehab,safe_midrange_fast,52.31331774528957,-666.634053941936,285.18354560600244,-177.6516901921132,0.291885220006769,-149.85107797226533,-50.7501,-0.0371,30.5569,-2.9722,0.7481,-5.8243,82.00227945157798,28.484788649153,84.28932567634205,-24.47281731499566,-89.05203077528212,-38.20875379774306,-4.4077542748781715,-1.9589996337890625,-1.9399707152111696,4.1825612386067705,0.13570149739583334,-4.410442776150173,-2.9846,-1.1616,-0.8904,-0.01923,-0.01418,0.05834,0.0008158885757438838,0.001000023796223104,0.0009098275913856924,0.0005507274181582034,0.000501415750477463,0.00041397270979359746,0.01111246645450592,0.010600005276501179,0.011704548262059689,passive,0
0.9808,rehab,safe_midrange_fast,51.12788580979455,-666.634927931567,285.8972967179942,-177.65284553329317,0.29280561501029434,-149.85008362536385,-50.1106,0.0034,30.1262,-15.1741,0.8027,13.2229,81.89875914318726,28.436628285020884,84.24130128161742,-24.372338189019096,-89.0492926703559,-38.31228468153212,-4.298924361125077,-1.9589996337890625,-1.956225857876315,4.1771697998046875,0.06785074869791667,-4.410442776150173,-3.0065,-1.2393,-1.4143,-0.00614,0.01077,0.06776,0.0008158885757438838,0.001000023796223104,0.0009098275913856924,0.0005507274181582034,0.000501415750477463,0.00041397270979359746,0.01111246645450592,0.010600005276501179,0.011704548262059689,passive,0
1.0009,rehab,safe_midrange_fast,50.335530057740414,-666.6349600689729,286.378916001743,-177.65319350154763,0.29310525318985614,-149.8491343836016,-49.8557,0.0473,30.2748,-21.9641,0.3812,24.8886,81.8122146153214,28.396646480749148,84.20092516606397,-24.288499620225693,-89.04701232910156,-38.399039374457466,-4.4077542748781715,-2.0134145906656093,-2.093181043568224,4.188783433702257,0.13570149739583334,-4.206882052951388,-2.8657,-1.1856,-1.0391,-0.01405,-0.00307,0.06818,0.0008158885757438838,0.001000023796223104,0.0009098275913856924,0.0005507274181582034,0.000501415750477463,0.00041397270979359746,0.01111246645450592,0.010600005276501179,0.011704548262059689,passive,0
1.0209,rehab,safe_midrange_fast,49.13106495128128,-666.6322932785461,287.10467683316205,-177.65414390584786,0.29386197937443637,-149.84940475265503,-49.0698,0.068,30.2921,-20.5022,-0.3095,27.5408,81.7068859138111,28.348098603805692,84.15191499313505,-24.18665568033854,-89.04430813259549,-38.50294325086806,-4.462176030225093,-2.067836346012531,-2.072275747167002,4.335683186848958,0.06785074869791667,-4.274732801649305,-3.0989,-1.1245,-1.575,-0.01406,-0.00296,0.06763,0.0008158885757438838,0.001000023796223104,0.0009098275913856924,0.0005507274181582034,0.000501415750477463,0.00041397270979359746,0.01111246645450592,0.010600005276501179,0.011704548262059689,passive,0
1.0411,rehab,safe_midrange_fast,48.32572723361915,-666.6286158852137,287.61174418333337,-177.65352673290772,0.29335929836308916,-149.84992815599855,-51.106,0.0505,32.0233,-11.5738,-1.0017,20.3467,81.63644696226214,28.314337399926515,84.11805861067063,-24.117787679036457,-89.04252794053819,-38.572074042426216,-4.190087648901609,-2.176666259765625,-2.211154899974861,4.302681816948785,0.13570149739583334,-4.342592027452257,-3.1927,-0.9902,-1.0842,-0.01639,0.00128,0.06823,0.0008158885757438838,0.001000023796223104,0.0009098275913856924,0.0005507274181582034,0.000501415750477463,0.00041397270979359746,0.01111246645450592,0.010600005276501179,0.011704548262059689,passive,0
1.0608,rehab,safe_midrange_fast,47.111969777421294,-666.6277026397937,288.3799019597319,-177.65225068734105,0.2923353745090123,-149.85118903690423,-52.8599,-0.0105,33.2706,-11.1485,-1.4397,15.1556,81.53035683206993,28.26415789009321,84.06539765915068,-24.01351081000434,-89.03985765245226,-38.67571512858073,-4.4077542748781715,-2.0134145906656093,-2.2447053512724318,4.3394215901692705,0.06785074869791667,-4.274732801649305,-3.1277,-1.1199,-0.933,-0.01398,-0.0017,0.06642,0.0008158885757438838,0.001000023796223104,0.0009098275913856924,0.0005507274181582034,0.000501415750477463,0.00041397270979359746,0.01111246645450592,0.010600005276501179,0.011704548262059689,passive,0
1.081,rehab,safe_midrange_fast,46.31013616136965,-666.628711463385,288.8946980605406,-177.65119436073502,0.2915209791636552,-149.85130957137412,-52.3059,-0.0701,32.8895,-5.5464,-1.4132,6.8626,81.46029179639156,28.231056137840348,84.02935896769608,-23.943650987413193,-89.03805202907986,-38.74486287434896,-4.298924361125077,-2.176666259765625,-2.340658962136448,4.385715060763888,0.06785074869791667,-4.139031304253472,-3.017,-1.1824,-1.0237,-0.01238,-0.00494,0.0669,0.0008158885757438838,0.001000023796223104,0.0009098275913856924,0.0005507274181582034,0.000501415750477463,0.00041397270979359746,0.01111246645450592,0.010600005276501179,0.011704548262059689,passive,0
1.1007,rehab,safe_midrange_fast,45.09267761105428,-666.6322008545479,289.6684034463421,-177.64963451106132,0.29030057237490065,-149.85265067142723,-51.8062,-0.0993,32.5535,13.1864,-0.8104,-6.2857,81.35395692126586,28.18182161538908,83.97437973777846,-23.838331434461804,-89.03535630967882,-38.848656548394096,-4.353339318001624,-2.0134145906656093,-2.3040491991704055,4.347720675998263,0.13570149739583334,-4.274732801649305,-3.0588,-1.1463,-0.8784,-0.00756,-0.00072,0.06375,0.0008158885757438838,0.001000023796223104,0.0009098275913856924,0.0005507274181582034,0.000501415750477463,0.00041397270979359746,0.01111246645450592,0.010600005276501179,0.011704548262059689,passive,0
1.1207,rehab,safe_midrange_fast,44.08378425397932,-666.6339469422819,290.3035190022418,-177.6494200372068,0.2900709149803142,-149.85328886006,-50.1266,-0.093,31.4287,39.3953,0.1649,-19.3228,81.2658419467435,28.14167664782836,83.92834729487353,-23.749889797634548,-89.03317769368489,-38.935131496853295,-4.462176030225093,-1.8501697200359684,-2.2607633382967203,4.454430474175347,0.06785074869791667,-4.47829352484809,-2.9638,-1.201,-1.1002,0.00879,-0.01505,0.06916,0.0008158885757438838,0.001000023796223104,0.0009098275913856924,0.0005507274181582034,0.000501415750477463,0.00041397270979359746,0.01111246645450592,0.010600005276501179,0.011704548262059689,passive,0
1.1411,rehab,safe_midrange_fast,42.86998584155566,-666.6388364441405,291.049105629075,-177.6506463273378,0.29103151406211436,-149.85458063905037,-49.9494,-0.0609,31.399,50.998,1.272,-18.2337,81.15988098748839,28.095290684463954,83.87242987604425,-23.64294264051649,-89.03054979112413,-39.038594563802086,-4.462176030225093,-1.9589996337890625,-2.268724347105121,4.554578993055555,0.13570149739583334,-4.342592027452257,-3.065,-1.1547,-0.3387,-0.00952,-0.01446,0.06279,0.0008158885757438838,0.001000023796223104,0.0009098275913856924,0.0005507274181582034,0.000501415750477463,0.00041397270979359746,0.01111246645450592,0.010600005276501179,0.011704548262059689,passive,0
1.1607,rehab,safe_midrange_fast,42.07606202341523,-666.6408839893794,291.5377147656861,-177.65254250604318,0.2926048092122125,-149.85384979686953,-49.9861,-0.0267,31.8061,31.2352,1.9155,2.6505,81.10766193654277,28.07281494140625,83.84450855821666,-23.588918050130207,-89.02920193142361,-39.09053378634982,-4.244502605778156,-1.795747964689047,-2.447245380665996,4.387647840711805,0.06785074869791667,-4.546152750651042,-3.2411,-1.3913,-1.7812,-0.02749,5e-05,0.06757,0.0008158885757438838,0.001000023796223104,0.0009098275913856924,0.0005507274181582034,0.000501415750477463,0.00041397270979359746,0.01111246645450592,0.010600005276501179,0.011704548262059689,passive,0
1.1806,rehab,safe_midrange_fast,41.29103106593629,-666.6366773571115,292.0427130921428,-177.65372518477398,0.29360623498245325,-149.8523292842474,-48.5224,0.0175,31.504,2.1923,1.704,26.7979,81.03911295975789,28.041569171565595,83.80653230270536,-23.516133626302082,-89.02739630805121,-39.159935845269096,-4.353339318001624,-1.9589996337890625,-2.3423041919670484,4.540006849500868,0.13570149739583334,-4.206882052951388,-3.2481,-1.1785,-0.0572,-0.01918,-0.01016,0.06274,0.0008158885757438838,0.001000023796223104,0.0009098275913856924,0.0005507274181582034,0.000501415750477463,0.00041397270979359746,0.01111246645450592,0.010600005276501179,0.011704548262059689,passive,0
1.2009,rehab,safe_midrange_fast,40.09587829525661,-666.6339275954507,292.8282546829769,-177.65413314167932,0.294013525229363,-149.85282079580367,-47.7111,0.0521,31.7512,-20.7806,0.991,45.8684,80.9346884548074,27.99363315695583,83.74776632478921,-23.405193752712673,-89.02471754286024,-39.262847900390625,-4.244502605778156,-2.067836346012531,-2.521396297039372,4.664832221137153,0.13570149739583334,-4.274732801649305,-3.183,-1.3204,-0.8203,-0.02253,0.00097,0.06523,0.0008158885757438838,0.001000023796223104,0.0009098275913856924,0.0005507274181582034,0.000501415750477463,0.00041397270979359746,0.01111246645450592,0.010600005276501179,0.011704548262059689,passive,0
1.2206,rehab,safe_midrange_fast,39.282623564207746,-666.6331157336506,293.3774738846859,-177.6531798788383,0.293247612196141,-149.85401631246373,-48.3683,0.0751,32.9585,-30.2959,0.2468,53.4108,80.8464783016998,27.951897347327506,83.6963155009959,-23.31078423394097,-89.02255588107639,-39.34880574544271,-4.516590987101639,-2.122251302889078,-2.5643694282758354,4.657999674479167,0.13570149739583334,-4.274732801649305,-3.4082,-1.2849,-1.1388,-0.03439,-0.00349,0.0659,0.0008158885757438838,0.001000023796223104,0.0009098275913856924,0.0005507274181582034,0.000501415750477463,0.00041397270979359746,0.01111246645450592,0.010600005276501179,0.011704548262059689,passive,0
1.2408,rehab,safe_midrange_fast,38.068303405361384,-666.6344859428746,294.2231260248981,-177.65069608357803,0.2911500310625075,-149.85515871101484,-50.4037,0.0843,34.9084,-27.9578,-0.3201,50.6211,80.74049694703356,27.901350720093983,83.63166204773553,-23.195724487304688,-89.02000427246094,-39.45233662923177,-4.298924361125077,-2.0134145906656093,-2.7243170407739017,4.870130750868055,0.06785074869791667,-4.342592027452257,-3.3748,-1.4234,-1.6065,-0.03655,0.0,0.06613,0.0008158885757438838,0.001000023796223104,0.0009098275913856924,0.0005507274181582034,0.000501415750477463,0.00041397270979359746,0.01111246645450592,0.010600005276501179,0.011704548262059689,passive,0
1.2606,rehab,safe_midrange_fast,37.267812915179924,-666.6339576580987,294.7877268576969,-177.64968307864154,0.29027846543764224,-149.85499002676366,-51.8968,0.0411,36.2938,-25.0699,-0.5631,47.4692,80.68806034503596,27.87640033382,83.59892061441252,-23.137257893880207,-89.01874118381076,-39.50430128309462,-4.462176030225093,-2.067836346012531,-2.7281309826539295,4.834043714735243,0.13570149739583334,-4.206882052951388,-3.2203,-1.2763,-1.2646,-0.01806,-0.00126,0.06927,0.0008158885757438838,0.001000023796223104,0.0009098275913856924,0.0005507274181582034,0.000501415750477463,0.00041397270979359746,0.01111246645450592,0.010600005276501179,0.011704548262059689,passive,0
1.2809,rehab,safe_midrange_fast,36.08217291014441,-666.6308441044586,295.6236562994381,-177.65019289235465,0.2907130113271807,-149.85407467461852,-52.0141,-0.0006,37.0098,-14.338,-0.5154,40.8815,80.58405734524868,27.8269618572575,83.53262193132154,-23.018273247612846,-89.01612175835503,-39.607577853732636,-4.516590987101639,-2.0134145906656093,-2.7347866851504485,5.128445095486111,0.13570149739583334,-4.274732801649305,-3.1823,-1.485,-1.0257,-0.02949,-0.00352,0.06194,0.0008158885757438838,0.001000023796223104,0.0009098275913856924,0.0005507274181582034,0.000501415750477463,0.00041397270979359746,0.01111246645450592,0.010600005276501179,0.011704548262059689,passive,0
1.3008,rehab,safe_midrange_fast,35.29127163315472,-666.6314521129673,296.18421395627695,-177.65076103627038,0.2911670518051215,-149.85316128445925,-51.3635,-0.0042,37.1802,11.7221,-0.3061,25.3278,80.51528401894144,27.79435639334197,83.48708577675394,-22.93760511610243,-89.01441786024306,-39.676513671875,-4.244502605778156,-2.067836346012531,-2.9212483321086014,5.0411732991536455,0.13570149739583334,-4.342592027452257,-3.2071,-1.3488,-0.8499,-0.01746,0.00011,0.06437,0.0008158885757438838,0.001000023796223104,0.0009098275913856924,0.0005507274181582034,0.000501415750477463,0.00041397270979359746,0.01111246645450592,0.010600005276501179,0.011704548262059689,passive,0
1.3208,rehab,safe_midrange_fast,33.91455514496262,-666.6291388066056,297.1728583780414,-177.6532208629234,0.2931296321344076,-149.85089301601988,-50.2584,0.0065,37.122,41.7384,-0.0805,6.9519,80.39502587648902,27.73793588770498,83.40555172155399,-22.79295179578993,-89.01150173611111,-39.79702419704861,-4.244502605778156,-2.067836346012531,-3.0207099536857984,5.2088165283203125,0.13570149739583334,-4.410442776150173,-3.353,-1.4514,-1.0107,-0.031,0.00343,0.06308,0.0008158885757438838,0.001000023796223104,0.0009098275913856924,0.0005507274181582034,0.000501415750477463,0.00041397270979359746,0.01111246645450592,0.010600005276501179,0.011704548262059689,passive,0
1.3408,rehab,safe_midrange_fast,33.127851351634675,-666.6310345116184,297.7506175143239,-177.65452656834537,0.29422050939975547,-149.8494996888774,-49.2118,0.0263,37.1895,57.5832,0.0833,-3.5941,80.30926997118657,27.697627756855276,83.3444334728883,-22.686852349175346,-89.00939093695746,-39.88349066840278,-4.353339318001624,-2.067836346012531,-3.0783881763420484,5.203213161892361,0.06785074869791667,-4.410442776150173,-3.3205,-1.5492,-1.166,-0.02608,-0.00017,0.06396,0.0008158885757438838,0.001000023796223104,0.0009098275913856924,0.0005507274181582034,0.000501415750477463,0.00041397270979359746,0.01111246645450592,0.010600005276501179,0.011704548262059689,passive,0
1.361,rehab,safe_midrange_fast,31.94562894759602,-666.6344870369053,298.6638261684902,-177.65405189480015,0.2939297567214416,-149.84884416954634,-48.6833,0.0399,37.6997,58.1623,-0.101,-6.9964,80.20617796642945,27.64715591279587,83.26733202037245,-22.55672878689236,-89.00682237413194,-39.9857669406467,-4.353339318001624,-2.176666259765625,-3.293240235583617,5.498860677083333,0.20355224609375,-4.342592027452257,-3.3479,-1.4372,-1.3154,-0.02539,-0.00629,0.06799,0.0008158885757438838,0.001000023796223104,0.0009098275913856924,0.0005507274181582034,0.000501415750477463,0.00041397270979359746,0.01111246645450592,0.010600005276501179,0.011704548262059689,passive,0
1.3807,rehab,safe_midrange_fast,31.1574527509765,-666.6320563669066,299.30518173587114,-177.65182693546535,0.29205122545698187,-149.84934797701723,-47.6611,0.034,37.6504,48.0276,-0.6092,-4.4194,80.15463196405089,27.620301954817062,83.22805725701964,-22.491107516818577,-89.00560167100694,-40.0360361735026,-4.135672692025062,-2.2310880151125465,-3.3925794846940747,5.640368991427951,0.13570149739583334,-4.139031304253472,-3.3749,-1.4757,-1.4168,-0.01416,-0.01699,0.06999,0.0008158885757438838,0.001000023796223104,0.0009098275913856924,0.0005507274181582034,0.000501415750477463,0.00041397270979359746,0.01111246645450592,0.010600005276501179,0.011704548262059689,passive,0
1.4009,rehab,safe_midrange_fast,30.377244661870403,-666.6299541851582,299.9371174530565,-177.65069852779135,0.2909741945513741,-149.8498924689728,-45.9229,0.0053,36.9329,34.1448,-1.0054,2.3121,80.08642291078473,27.585147064511137,83.17538270855894,-22.40308125813802,-89.00406731499565,-40.102903578016495,-4.298924361125077,-2.176666259765625,-3.344004413869121,5.520316229926215,0.13570149739583334,-4.206882052951388,-3.3221,-1.5225,-1.341,-0.02841,-0.01647,0.0679,0.0008158885757438838,0.001000023796223104,0.0009098275913856924,0.0005507274181582034,0.000501415750477463,0.00041397270979359746,0.01111246645450592,0.010600005276501179,0.011704548262059689,passive,0
1.4209,rehab,safe_midrange_fast,29.21735081470733,-666.6271600203207,300.86875617438534,-177.65028495747097,0.2906094510545726,-149.85156572936046,-45.2917,-0.0267,36.9182,26.6608,-1.1149,6.5226,79.96818391403349,27.525619657913058,83.08234564148553,-22.248179117838543,-89.00134616427951,-40.21754794650607,-4.190087648901609,-2.067836346012531,-3.2813497108988243,5.613284640842013,0.06785074869791667,-4.206882052951388,-3.3693,-1.4223,-1.3765,-0.01418,-0.00178,0.07083,0.0008158885757438838,0.001000023796223104,0.0009098275913856924,0.0005507274181582034,0.000501415750477463,0.00041397270979359746,0.01111246645450592,0.010600005276501179,0.011704548262059689,passive,0
1.4411,rehab,safe_midrange_fast,28.462837247691763,-666.626093677959,301.48127349432843,-177.65038081382184,0.2906965107797802,-149.85166038733152,-44.9241,-0.0606,36.9592,27.7882,-0.9241,6.1157,79.91865025888575,27.500676070109453,83.04227545709894,-22.181913587782116,-89.00015089246962,-40.266503228081596,-4.081257735148514,-2.122251302889078,-3.3705116498588334,5.537914699978298,0.06785074869791667,-4.071180555555555,-3.3367,-1.3449,-1.0647,-0.01537,0.00569,0.07018,0.0008158885757438838,0.001000023796223104,0.0009098275913856924,0.0005507274181582034,0.000501415750477463,0.00041397270979359746,0.01111246645450592,0.010600005276501179,0.011704548262059689,passive,0
1.4609,rehab,safe_midrange_fast,27.36829829607994,-666.6307347539629,302.37524400899406,-177.6518196324363,0.2920025760942571,-149.8531270833249,-44.7786,-0.0813,37.3091,35.6819,-0.305,3.015,79.8070465692199,27.44611154688467,82.94859253533996,-22.02805413140191,-88.99752298990886,-40.374645657009545,-3.918006066048499,-1.8501697200359684,-3.52122693958849,5.355631510416667,0.13570149739583334,-3.596208360460069,-3.3227,-1.4367,-1.4924,-0.01315,-0.00703,0.06901,0.0008158885757438838,0.001000023796223104,0.0009098275913856924,0.0005507274181582034,0.000501415750477463,0.00041397270979359746,0.01111246645450592,0.010600005276501179,0.011704548262059689,passive,0
1.4808,rehab,safe_midrange_fast,26.660396176383287,-666.6363794762548,302.961075037236,-177.65291537427996,0.29289174063393636,-149.8536170788189,-44.7522,-0.0691,37.9786,50.3632,0.5506,-5.0938,79.74544562915764,27.416245866530012,82.89474864997486,-21.94109598795573,-88.99613274468315,-40.43478224012587,-3.7003394400719367,-1.795747964689047,-3.3786766127784653,5.394626193576388,0.06785074869791667,-3.596208360460069,-3.2486,-1.6257,-1.1441,-0.01589,-0.01347,0.05911,0.0008158885757438838,0.001000023796223104,0.0009098275913856924,0.0005507274181582034,0.000501415750477463,0.00041397270979359746,0.01111246645450592,0.010600005276501179,0.011704548262059689,passive,0
1.5008,rehab,safe_midrange_fast,25.65193711988365,-666.6379075323356,303.8381754229309,-177.65366257024158,0.29352888291536267,-149.8535223750742,-43.4093,-0.0444,37.8866,73.2775,1.2686,-20.7847,79.67211052922919,27.378555146774442,82.82847036229502,-21.833987765842014,-88.99440341525607,-40.507303873697914,-3.7003394400719367,-1.9045846769125154,-3.289603053933323,5.234764946831597,0.13570149739583334,-3.664059109157986,-3.6017,-1.5454,-0.9992,-0.03197,0.00262,0.06771,0.0008158885757438838,0.001000023796223104,0.0009098275913856924,0.0005507274181582034,0.000501415750477463,0.00041397270979359746,0.01111246645450592,0.010600005276501179,0.011704548262059689,passive,0
1.5206,rehab,safe_midrange_fast,25.007517298164178,-666.6386335077652,304.41356433842554,-177.6537360075601,0.29365919026447834,-149.85271195497018,-41.2922,-0.0222,36.9683,97.9371,1.6535,-40.4211,79.6014404296875,27.341714235815672,82.76304188341197,-21.729371812608505,-88.99273342556424,-40.577307807074654,-3.64592448319539,-1.8501697200359684,-3.312445914391244,5.203653971354167,0.06785074869791667,-3.4604983859592013,-3.279,-1.3444,-1.0307,0.00168,0.00116,0.07183,0.0008158885757438838,0.001000023796223104,0.0009098275913856924,0.0005507274181582034,0.000501415750477463,0.00041397270979359746,0.01111246645450592,0.010600005276501179,0.011704548262059689,passive,0
1.5406,rehab,safe_midrange_fast,24.06590248576751,-666.6357748815311,305.2674267203509,-177.65305275156967,0.29303644937895773,-149.85366265487517,-38.6815,0.0191,35.6626,122.1674,1.407,-64.434,79.51937609379834,27.29783010954904,82.68640272688157,-21.60732693142361,-88.99090237087674,-40.65704345703125,-3.373836101871906,-1.7413330078125,-3.1890808709777225,4.984215630425347,-0.0,-3.1890869140625,-3.4315,-1.3034,-1.5544,-0.01318,0.00901,0.07304,0.0008158885757438838,0.001000023796223104,0.0009098275913856924,0.0005507274181582034,0.000501415750477463,0.00041397270979359746,0.01111246645450592,0.010600005276501179,0.011704548262059689,passive,0
1.5606,rehab,safe_midrange_fast,23.315371352184275,-666.6297457854372,305.9636230809003,-177.65209460058617,0.29218577254451406,-149.85567119646234,-35.7476,0.0652,33.9614,141.8194,0.5731,-89.4355,79.4539204210338,27.26185940279819,82.62446866177096,-21.5087890625,-88.9894782172309,-40.71937561035156,-3.2105844327718907,-1.7413330078125,-3.069645343440594,4.81307135687934,0.06785074869791667,-2.781973944769965,-3.3982,-1.3885,-1.301,-0.02406,-0.00361,0.06547,0.0008158885757438838,0.001000023796223104,0.0009098275913856924,0.0005507274181582034,0.000501415750477463,0.00041397270979359746,0.01111246645450592,0.010600005276501179,0.011704548262059689,passive,0
1.581,rehab,safe_midrange_fast,22.483684062144256,-666.6317558923059,306.7556697365149,-177.6505287634085,0.29084193082999465,-149.85736571065675,-33.0112,0.0726,32.1172,150.5587,-0.3174,-107.3856,79.39294494024598,27.228907216893564,82.56386029838335,-21.41486273871528,-88.98814731174045,-40.7775624593099,-2.992917806795328,-1.6325030940594059,-2.9366876583288213,4.565980699327257,0.06785074869791667,-2.9176754421657987,-3.2766,-1.3666,-0.2358,-0.02764,-0.00981,0.06241,0.0008158885757438838,0.001000023796223104,0.0009098275913856924,0.0005507274181582034,0.000501415750477463,0.00041397270979359746,0.01111246645450592,0.010600005276501179,0.011704548262059689,passive,0
1.6009,rehab,safe_midrange_fast,21.983571793464122,-666.6333968481922,307.2620986014831,-177.6492677041699,0.2897939555566213,-149.85730393468683,-30.5651,0.0595,30.388,146.947,-1.0477,-110.3143,79.33799970268022,27.197498283763924,82.50524388681544,-21.325454711914062,-88.9868672688802,-40.83158704969618,-2.557584554842203,-1.5236663818359375,-2.8478384490060336,4.410213894314236,0.06785074869791667,-2.6462639702690973,-3.2862,-1.4528,-1.4009,-0.0245,-0.00676,0.0691,0.0008158885757438838,0.001000023796223104,0.0009098275913856924,0.0005507274181582034,0.000501415750477463,0.00041397270979359746,0.01111246645450592,0.010600005276501179,0.011704548262059689,passive,0
1.6207,rehab,safe_midrange_fast,21.522151426846456,-666.6349315409022,307.7387292798281,-177.6485052408507,0.28918479946568854,-149.8567047804544,-27.2319,0.0154,27.7709,141.6653,-1.7368,-105.6733,79.30752215999188,27.18003301337214,82.47184980033647,-21.27417670355903,-88.98616366916232,-40.8618418375651,-2.503169597965656,-1.360414712735922,-2.8082645529567607,4.139056735568576,0.06785074869791667,-2.4427032470703125,-3.2244,-1.4746,-1.1918,-0.02527,-0.00823,0.0651,0.0008158885757438838,0.001000023796223104,0.0009098275913856924,0.0005507274181582034,0.000501415750477463,0.00041397270979359746,0.01111246645450592,0.010600005276501179,0.011704548262059689,passive,0
1.6407,rehab,safe_midrange_fast,20.895505679020104,-666.6307810197087,308.4009371684687,-177.6484611502292,0.2891387011592264,-149.85613612292133,-23.7602,-0.0609,24.9111,146.7173,-2.0805,-105.7298,79.24319503330948,27.141601260345762,82.39917415203435,-21.16162618001302,-88.98469712999132,-40.9257083468967,-2.176666259765625,-1.251584798982828,-2.410159724773747,3.7865617540147567,0.06785074869791667,-2.0355902777777777,-3.0436,-1.4598,-1.4316,-0.00696,-0.01389,0.0631,0.0008158885757438838,0.001000023796223104,0.0009098275913856924,0.0005507274181582034,0.000501415750477463,0.00041397270979359746,0.01111246645450592,0.010600005276501179,0.011704548262059689,passive,0
1.6606,rehab,safe_midrange_fast,20.517202773572073,-666.6300329727433,308.7895343010901,-177.64980675052152,0.2902860224838849,-149.85616393971205,-20.9625,-0.0895,22.6918,156.6531,-1.5836,-107.9178,79.21024284740486,27.12294625763846,82.36159220780476,-21.102625528971355,-88.9839850531684,-40.95797220865885,-1.9589996337890625,-1.0883331298828125,-2.36052409257039,3.6100345187717013,0.13570149739583334,-1.9677310519748263,-3.2063,-1.5291,-2.2884,-0.01776,-0.00239,0.06908,0.0008158885757438838,0.001000023796223104,0.0009098275913856924,0.0005507274181582034,0.000501415750477463,0.00041397270979359746,0.01111246645450592,0.010600005276501179,0.011704548262059689,passive,0
1.681,rehab,safe_midrange_fast,20.014229263774652,-666.6319993957342,309.32514473805946,-177.65103316065168,0.29133537071129706,-149.85749707164382,-18.6341,-0.0952,21.2916,169.6625,-0.5176,-113.8426,79.17321837774598,27.101707836188893,82.3176400968344,-21.034986707899304,-88.9832051595052,-40.99318610297309,-1.6325030940594059,-0.979496417659344,-2.0333884966255416,3.2154337565104165,-0.0,-1.6284688313802083,-3.3882,-1.43,-1.5381,-0.01566,0.00653,0.07373,0.0008158885757438838,0.001000023796223104,0.0009098275913856924,0.0005507274181582034,0.000501415750477463,0.00041397270979359746,0.01111246645450592,0.010600005276501179,0.011704548262059689,passive,0
1.701,rehab,safe_midrange_fast,19.745821681751217,-666.6351117163813,309.64779142861585,-177.65149071752822,0.2917358122142413,-149.8572255363132,-15.8325,-0.1118,20.0176,183.1118,0.613,-122.7554,79.14872348898709,27.086350091613166,82.28520459467822,-20.98586188422309,-88.98271348741319,-41.01717631022135,-1.4148296696124691,-0.9250814607827971,-1.9068825598990562,2.8809441460503473,-0.0,-1.357057359483507,-3.3291,-1.479,-0.2278,-0.03078,-0.01465,0.05495,0.0008158885757438838,0.001000023796223104,0.0009098275913856924,0.0005507274181582034,0.000501415750477463,0.00041397270979359746,0.01111246645450592,0.010600005276501179,0.011704548262059689,passive,0
1.7206,rehab,safe_midrange_fast,19.41302584481781,-666.6424356911643,310.0741939408988,-177.65152426660697,0.29179423054754744,-149.85866076666312,-10.9765,-0.1062,16.7824,189.5407,1.6115,-129.4415,79.11430283348159,27.063792766910968,82.23488911543743,-20.911661783854168,-88.98200141059027,-41.04927062988281,-0.979496417659344,-0.7618297916827815,-1.650981336536974,2.41316901312934,-0.0,-0.9499359130859375,-3.1445,-1.4662,-0.6903,-0.00965,-0.01709,0.06023,0.0008158885757438838,0.001000023796223104,0.0009098275913856924,0.0005507274181582034,0.000501415750477463,0.00041397270979359746,0.01111246645450592,0.010600005276501179,0.011704548262059689,passive,0
1.741,rehab,safe_midrange_fast,19.266850574623373,-666.6449101070926,310.3196483395827,-177.65115789057208,0.2914510414141717,-149.85796033144277,-6.5529,-0.0454,13.5545,199.5618,2.0987,-144.865,79.10160329082224,27.052697663259977,82.210747747138,-20.87652418348524,-88.98176405164931,-41.06227450900607,-0.7074148348062346,-0.5985781225827661,-1.358878258431312,2.0063103569878473,-0.06785074869791667,-0.678524441189236,-3.0761,-1.4891,-0.6335,-0.01917,-0.01514,0.06607,0.0008158885757438838,0.001000023796223104,0.0009098275913856924,0.0005507274181582034,0.000501415750477463,0.00041397270979359746,0.01111246645450592,0.010600005276501179,0.011704548262059689,passive,0
1.7606,rehab,safe_midrange_fast,19.12662558186213,-666.6415769463628,310.6602672720552,-177.6506039487621,0.29100111915307386,-149.8572755305194,-2.5904,0.0325,10.4396,203.4204,2.0229,-161.2497,79.09014786824142,27.038604434173887,82.18233693944346,-20.83410474989149,-88.98156060112846,-41.073760986328125,-0.2720815828531095,-0.489748208829672,-1.0531578441657643,1.4938439263237846,-0.0,-0.339262220594618,-3.1054,-1.397,-1.2625,-0.01339,-0.00258,0.06556,0.0008158885757438838,0.001000023796223104,0.0009098275913856924,0.0005507274181582034,0.000501415750477463,0.00041397270979359746,0.01111246645450592,0.010600005276501179,0.011704548262059689,passive,0
1.7809,rehab,safe_midrange_fast,19.170850715323,-666.641049146643,310.7991545210158,-177.65015114252742,0.29066094261090514,-149.85205284423313,1.2769,0.0667,7.0664,191.0524,1.7885,-167.4041,79.0930712105024,27.030582239132116,82.16452494706257,-20.809037950303818,-88.9815182156033,-41.075948079427086,0.2720815828531095,-0.32649653972965653,-0.7049605870010829,1.0745493570963542,-0.06785074869791667,0.06785074869791667,-3.0173,-1.444,-0.413,-0.00382,-0.01693,0.05994,0.0008158885757438838,0.001000023796223104,0.0009098275913856924,0.0005507274181582034,0.000501415750477463,0.00041397270979359746,0.01111246645450592,0.010600005276501179,0.011704548262059689,passive,0
1.8009,rehab,safe_midrange_fast,19.281763732008567,-666.6369581691222,310.9107705146781,-177.65075031579428,0.2912998669584884,-149.84532651922055,4.9054,0.094,3.9167,179.8132,1.3371,-169.5108,79.10048154321048,27.025809712929302,82.15434083844175,-20.79374525282118,-88.9815436469184,-41.074210272894966,0.435333251953125,-0.10882991375309406,-0.32689085101137066,0.5089399549696181,-0.0,0.2714114718967014,-3.0812,-1.261,-1.1491,0.00936,-0.00357,0.06905,0.0008158885757438838,0.001000023796223104,0.0009098275913856924,0.0005507274181582034,0.000501415750477463,0.00041397270979359746,0.01111246645450592,0.010600005276501179,0.011704548262059689,passive,0
1.8208,rehab,safe_midrange_fast,19.40275717832985,-666.6338303129492,310.8944668997627,-177.65360834108202,0.2940846900246348,-149.84530634252988,8.3982,0.1099,0.6039,176.6154,0.5668,-171.5546,79.11297033328822,27.026931460541075,82.15253924379255,-20.788955688476562,-88.98162841796875,-41.06257120768229,0.7074148348062346,-0.0,0.07364782956567141,-0.0022379557291666665,-0.0,0.8820851643880208,-2.9719,-1.2015,-0.4811,0.00835,-0.00617,0.06745,0.0008158885757438838,0.001000023796223104,0.0009098275913856924,0.0005507274181582034,0.000501415750477463,0.00041397270979359746,0.01111246645450592,0.010600005276501179,0.011704548262059689,passive,0
1.8408,rehab,safe_midrange_fast,19.54888163117736,-666.6308147537218,310.8779952316652,-177.65392244940304,0.2946919884715193,-149.8482332691645,11.7222,0.09,-2.9924,179.3775,-0.0589,-176.4094,79.12219585758625,27.027495733582146,82.1532666801226,-20.78992207845052,-88.98174709743924,-41.05127970377604,0.8162515470297029,0.05441495687654703,0.14171411495397587,-0.18305460611979166,-0.06785074869791667,1.0856458875868056,-3.1275,-1.2776,-0.884,-0.01287,-0.00756,0.06201,0.0008158885757438838,0.001000023796223104,0.0009098275913856924,0.0005507274181582034,0.000501415750477463,0.00041397270979359746,0.01111246645450592,0.010600005276501179,0.011704548262059689,passive,0
1.8609,rehab,safe_midrange_fast,19.841824538681525,-666.6351464563323,310.80497478183753,-177.64967459736337,0.2915470573213318,-149.85326996708343,14.8283,0.0874,-6.3414,182.7825,-0.2959,-183.0006,79.15107575973661,27.03194193320699,82.16195512526106,-20.809427897135418,-88.982179429796,-41.01670159233941,1.305999755859375,0.16324487062964108,0.5985713241123917,-1.1862606472439237,-0.06785074869791667,1.4927588568793402,-3.2654,-1.3936,-0.7317,-0.0255,-0.00083,0.06539,0.0008158885757438838,0.001000023796223104,0.0009098275913856924,0.0005507274181582034,0.000501415750477463,0.00041397270979359746,0.01111246645450592,0.010600005276501179,0.011704548262059689,passive,0
1.8807,rehab,safe_midrange_fast,20.11044954535017,-666.6349494322349,310.7033565052269,-177.64589484034755,0.288543230432211,-149.85509093405463,18.3852,0.0893,-9.8221,179.9873,-0.5915,-185.5284,79.17440811006149,27.036707660939435,82.17365529277536,-20.831485324435764,-88.98260328504774,-40.99177890353732,1.5780813387124846,0.32649653972965653,0.8870848098603805,-1.6171688503689237,-0.0,1.832029554578993,-3.2411,-1.2051,-0.6321,-0.0375,-0.00511,0.06219,0.0008158885757438838,0.001000023796223104,0.0009098275913856924,0.0005507274181582034,0.000501415750477463,0.00041397270979359746,0.01111246645450592,0.010600005276501179,0.011704548262059689,passive,0
1.9006,rehab,safe_midrange_fast,20.613899259556977,-666.6285695403567,310.42197660271216,-177.64432413064475,0.28740320629791355,-149.856335701412,23.2306,0.0733,-14.2503,172.392,-1.0431,-182.8399,79.20984853612315,27.047048134378866,82.19622621441832,-20.867750379774304,-88.98335774739583,-40.9552256266276,1.9589996337890625,0.7074148348062346,1.3626310140779703,-2.117911444769965,-0.0,1.9677310519748263,-3.1634,-1.2382,-1.4496,-0.01772,-0.00968,0.06658,0.0008158885757438838,0.001000023796223104,0.0009098275913856924,0.0005507274181582034,0.000501415750477463,0.00041397270979359746,0.01111246645450592,0.010600005276501179,0.011704548262059689,passive,0
1.9208,rehab,safe_midrange_fast,21.010673046764946,-666.6261425319199,310.15327837297895,-177.64548961970948,0.28839892638370684,-149.8562367678602,26.3686,0.0581,-17.4742,160.5241,-1.2967,-174.2213,79.24367772470606,27.059536924456605,82.21988489132116,-20.903574625651043,-88.9841800265842,-40.922232733832466,2.122251302889078,0.87066650390625,1.584920599909112,-2.470881144205729,-0.13570149739583334,2.307001749674479,-3.1013,-1.2797,-1.4745,-0.02293,-0.00356,0.06432,0.0008158885757438838,0.001000023796223104,0.0009098275913856924,0.0005507274181582034,0.000501415750477463,0.00041397270979359746,0.01111246645450592,0.010600005276501179,0.011704548262059689,passive,0
1.9411,rehab,safe_midrange_fast,21.67648824301431,-666.6259578273738,309.67080072765555,-177.64733297912463,0.2897295942230716,-149.85547502949362,29.5153,0.04,-21.267,145.3954,-1.6538,-165.1382,79.30039056456916,27.083107221244585,82.26184505047185,-20.968441433376736,-88.98570590549045,-40.866851806640625,2.557584554842203,1.0339181730062654,1.932737142732828,-2.9798041449652777,-0.13570149739583334,2.4427032470703125,-3.1819,-1.2537,-1.0758,-0.00799,-0.0034,0.06975,0.0008158885757438838,0.001000023796223104,0.0009098275913856924,0.0005507274181582034,0.000501415750477463,0.00041397270979359746,0.01111246645450592,0.010600005276501179,0.011704548262059689,passive,0
1.9608,rehab,safe_midrange_fast,22.16517433785426,-666.6240573996852,309.3121474935041,-177.6478192990819,0.28991184474029524,-149.85474897604303,31.811,-0.006,-24.2986,126.7049,-2.1129,-154.5845,79.35302432220762,27.105141063727956,82.30301658705909,-21.032350328233505,-88.98714701334636,-40.81578572591146,2.7208362239422184,1.1427480867593596,2.1684876999052443,-3.459337022569444,-0.06785074869791667,2.6462639702690973,-3.2811,-1.2039,-0.7108,-0.02114,0.00102,0.06858,0.0008158885757438838,0.001000023796223104,0.0009098275913856924,0.0005507274181582034,0.000501415750477463,0.00041397270979359746,0.01111246645450592,0.010600005276501179,0.011704548262059689,passive,0
1.9811,rehab,safe_midrange_fast,23.089608688972362,-666.6268963189862,308.5989512766738,-177.64781680733307,0.28951362444791623,-149.8543123133891,33.8537,-0.0748,-27.0543,103.7434,-2.2012,-138.8013,79.4335929946144,27.14113216588993,82.3683498873569,-21.136364407009548,-88.98935106065538,-40.73683844672309,2.992917806795328,1.4148296696124691,2.5168073295366646,-4.0155792236328125,-0.13570149739583334,2.781973944769965,-3.1042,-1.2408,-1.0208,-0.01385,-0.00072,0.06522,0.0008158885757438838,0.001000023796223104,0.0009098275913856924,0.0005507274181582034,0.000501415750477463,0.00041397270979359746,0.01111246645450592,0.010600005276501179,0.011704548262059689,passive,0
2.0009,rehab,safe_midrange_fast,23.65231922476145,-666.6296155484912,308.1530328709007,-177.64673392973987,0.28843486944996183,-149.8546193650905,36.34,-0.1044,-29.9572,90.9433,-1.7839,-126.7698,79.48265755530632,27.163669095181003,82.40963699794051,-21.203206380208332,-88.99063110351562,-40.68822224934896,3.047339562142249,1.4692514249593904,2.661227235699644,-4.3939208984375,-0.13570149739583334,3.121236165364583,-3.1162,-1.2163,-0.9733,-0.02831,-0.00337,0.06343,0.0008158885757438838,0.001000023796223104,0.0009098275913856924,0.0005507274181582034,0.000501415750477463,0.00041397270979359746,0.01111246645450592,0.010600005276501179,0.011704548262059689,passive,0
2.0207,rehab,safe_midrange_fast,24.239162190295357,-666.6324314487019,307.65626629641974,-177.64710699128742,0.2885848006429326,-149.85519168797558,37.5854,-0.1234,-31.8534,87.1203,-0.9473,-116.6433,79.53383644028466,27.188986598855198,82.45454769323368,-21.274617513020832,-88.99197896321614,-40.63728332519531,3.2650061881188117,1.686918050935953,2.835648791624768,-4.69757080078125,-0.06785074869791667,3.324796888563368,-3.1659,-1.338,-1.838,-0.03048,-0.00452,0.06743,0.0008158885757438838,0.001000023796223104,0.0009098275913856924,0.0005507274181582034,0.000501415750477463,0.00041397270979359746,0.01111246645450592,0.010600005276501179,0.011704548262059689,passive,0
2.0411,rehab,safe_midrange_fast,25.16752369153108,-666.6346569053534,306.8425556752305,-177.64871751694884,0.28986814780535747,-149.85647263107523,39.5733,-0.165,-34.5559,91.5851,0.1724,-113.8108,79.61475863315091,27.230477663550047,82.52758366046565,-21.389567057291668,-88.99397956000433,-40.55638631184896,3.373836101871906,1.795747964689047,3.2452022439182393,-4.925604926215278,-0.06785074869791667,3.596208360460069,-3.1915,-1.2871,-1.2148,-0.03146,-0.00989,0.0682,0.0008158885757438838,0.001000023796223104,0.0009098275913856924,0.0005507274181582034,0.000501415750477463,0.00041397270979359746,0.01111246645450592,0.010600005276501179,0.011704548262059689,passive,0
2.0606,rehab,safe_midrange_fast,25.836462010883725,-666.6360321726526,306.24735829510377,-177.65079364775485,0.2916407696939722,-149.8556276814672,41.2827,-0.1611,-36.8055,96.4956,1.1986,-112.8245,79.65818046343209,27.253422501063582,82.56666806664798,-21.45089891221788,-88.9949713812934,-40.51420423719618,3.754754396948484,2.0134145906656093,3.2941240367322866,-5.160692003038195,-0.13570149739583334,3.528349134657118,-3.2544,-1.2397,-1.4834,-0.03204,-0.00296,0.06468,0.0008158885757438838,0.001000023796223104,0.0009098275913856924,0.0005507274181582034,0.000501415750477463,0.00041397270979359746,0.01111246645450592,0.010600005276501179,0.011704548262059689,passive,0
2.0807,rehab,safe_midrange_fast,26.882105063292798,-666.6378083730566,305.322942303615,-177.65222227615223,0.29278635733876474,-149.85352497867058,42.6138,-0.0997,-38.4287,92.8053,1.9549,-105.0462,79.76420260892056,27.30881643767404,82.66242452187113,-21.602596706814236,-88.9974382188585,-40.41230943467882,3.9724210229250465,2.122251302889078,3.4418140071453434,-5.539796617296007,-0.06785074869791667,3.9354705810546875,-3.464,-1.1663,-1.4515,-0.04029,0.01171,0.072,0.0008158885757438838,0.001000023796223104,0.0009098275913856924,0.0005507274181582034,0.000501415750477463,0.00041397270979359746,0.01111246645450592,0.010600005276501179,0.011704548262059689,passive,0
2.1006,rehab,safe_midrange_fast,27.586795895633205,-666.64154532292,304.6859740584044,-177.6520576329434,0.2925914338684296,-149.8535661868547,44.7933,-0.0359,-40.5768,84.2009,2.4428,-94.3916,79.82569477345683,27.341986174630648,82.71923254031947,-21.69467502170139,-88.99890475802951,-40.35181681315104,3.9724210229250465,2.0134145906656093,3.5685850842164295,-5.776706271701388,-0.13570149739583334,3.9354705810546875,-3.1518,-1.3917,-1.1042,-0.02363,-0.00346,0.06527,0.0008158885757438838,0.001000023796223104,0.0009098275913856924,0.0005507274181582034,0.000501415750477463,0.00041397270979359746,0.01111246645450592,0.010600005276501179,0.011704548262059689,passive,0
2.121,rehab,safe_midrange_fast,28.660350622766188,-666.6464762548658,303.69861323215554,-177.65141752245296,0.2919596716910375,-149.85505870328032,47.2703,0.0144,-43.1071,72.1651,2.5871,-82.4654,79.91939129215656,27.39355257242033,82.80728632860844,-21.838048299153645,-89.00117662217882,-40.25824652777778,4.026835979801594,2.176666259765625,3.8320394081644493,-5.988879733615451,-0.06785074869791667,3.8676198323567705,-3.2622,-1.3043,-1.5534,-0.03703,0.0116,0.06698,0.0008158885757438838,0.001000023796223104,0.0009098275913856924,0.0005507274181582034,0.000501415750477463,0.00041397270979359746,0.01111246645450592,0.010600005276501179,0.011704548262059689,passive,0
2.1409,rehab,safe_midrange_fast,29.402040818013067,-666.6447975944252,303.0160018447765,-177.65082114696284,0.2913983938655567,-149.85627993702698,48.7462,0.0546,-44.7083,60.491,1.9215,-74.9745,79.96773521498878,27.419828660417313,82.85309442199103,-21.912400987413193,-89.00234646267361,-40.21002875434028,3.9724210229250465,2.176666259765625,4.056966800500851,-6.169136895073785,-0.13570149739583334,4.0033213297526045,-3.1241,-1.2251,-1.1274,-0.02027,0.00355,0.06803,0.0008158885757438838,0.001000023796223104,0.0009098275913856924,0.0005507274181582034,0.000501415750477463,0.00041397270979359746,0.01111246645450592,0.010600005276501179,0.011704548262059689,passive,0
2.1607,rehab,safe_midrange_fast,30.5602144307753,-666.6382286369555,301.9627287717092,-177.64973984657513,0.29041164694312616,-149.85534041934,49.363,0.0868,-45.7745,46.2489,0.6915,-67.5971,80.06795826524791,27.47372013507503,82.94805545618038,-22.06589592827691,-89.0047115749783,-40.111397637261284,4.298924361125077,2.3943328857421875,4.032070801989867,-6.6441090901692705,-0.13570149739583334,4.0033213297526045,-3.1876,-1.3641,-1.9791,-0.03713,0.00015,0.06874,0.0008158885757438838,0.001000023796223104,0.0009098275913856924,0.0005507274181582034,0.000501415750477463,0.00041397270979359746,0.01111246645450592,0.010600005276501179,0.011704548262059689,passive,0
2.1806,rehab,safe_midrange_fast,31.334918704276333,-666.6336146956968,301.23704406850345,-177.64922140866292,0.2899608127887838,-149.85569533247724,49.3857,0.1099,-46.4375,19.6981,-0.2287,-47.9513,80.13554865771,27.511417653300974,83.01321199624846,-22.170825534396702,-89.00628831651476,-40.04525926378038,4.298924361125077,2.3943328857421875,3.959157207224629,-6.668056911892361,-0.06785074869791667,4.139031304253472,-3.1274,-1.3494,-1.4007,-0.02235,-0.0054,0.06043,0.0008158885757438838,0.001000023796223104,0.0009098275913856924,0.0005507274181582034,0.000501415750477463,0.00041397270979359746,0.01111246645450592,0.010600005276501179,0.011704548262059689,passive,0
2.2009,rehab,safe_midrange_fast,32.72739015506246,-666.6340079076555,299.9343766858277,-177.64761735013596,0.2886134820697696,-149.85483156982363,49.4864,0.1,-47.224,-6.5373,-0.711,-27.4273,80.25655463190363,27.580224971960085,83.12715435972308,-22.359534369574654,-89.00907728407118,-39.927096896701386,4.298924361125077,2.61199951171875,4.052615779461247,-6.662258572048611,-0.06785074869791667,4.206882052951388,-3.1974,-1.4226,-1.4661,-0.03748,-0.00237,0.06433,0.0008158885757438838,0.001000023796223104,0.0009098275913856924,0.0005507274181582034,0.000501415750477463,0.00041397270979359746,0.01111246645450592,0.010600005276501179,0.011704548262059689,passive,0
2.221,rehab,safe_midrange_fast,33.537536147744156,-666.634265332009,299.1553781693752,-177.64834570884983,0.28920425216228,-149.85378343480056,50.1899,0.0417,-48.6062,-10.6164,-1.128,-26.1371,80.34473079265935,27.632579992313197,83.21043562180925,-22.49701605902778,-89.01109483506944,-39.841605292426216,4.4077542748781715,2.7208362239422184,4.281914588248376,-6.74819098578559,-0.06785074869791667,4.274732801649305,-3.1135,-1.1676,-1.1745,-0.0376,0.00342,0.06162,0.0008158885757438838,0.001000023796223104,0.0009098275913856924,0.0005507274181582034,0.000501415750477463,0.00041397270979359746,0.01111246645450592,0.010600005276501179,0.011704548262059689,passive,0
2.2407,rehab,safe_midrange_fast,34.34887012871604,-666.6335348686606,298.35171668896476,-177.65024521288683,0.29076376571606954,-149.85308388666775,49.9896,-0.0084,-49.1428,-5.0534,-1.3774,-29.8991,80.39815317286123,27.66507668070274,83.26119300162438,-22.58038838704427,-89.01231553819444,-39.7900136311849,4.462176030225093,2.7208362239422184,4.255822058951501,-7.06388685438368,-0.13570149739583334,4.410442776150173,-3.05,-1.3788,-1.5349,-0.02714,-0.01425,0.06273,0.0008158885757438838,0.001000023796223104,0.0009098275913856924,0.0005507274181582034,0.000501415750477463,0.00041397270979359746,0.01111246645450592,0.010600005276501179,0.011704548262059689,passive,0
2.2606,rehab,safe_midrange_fast,35.54951097306073,-666.6342702223347,297.14633797352076,-177.65176996599243,0.29207938425541236,-149.85319332845918,49.0721,-0.0091,-48.901,-2.9983,-1.0231,-27.2877,80.50297878756382,27.73127338673809,83.36370713639967,-22.749176025390625,-89.0146976047092,-39.686923556857636,4.4077542748781715,2.7752511808187657,4.308992895749536,-6.955108642578125,-0.13570149739583334,4.274732801649305,-3.2167,-1.289,-2.0218,-0.02296,-0.00081,0.07268,0.0008158885757438838,0.001000023796223104,0.0009098275913856924,0.0005507274181582034,0.000501415750477463,0.00041397270979359746,0.01111246645450592,0.010600005276501179,0.011704548262059689,passive,0
2.2806,rehab,safe_midrange_fast,36.34528066798864,-666.6335889427666,296.3443987701719,-177.65253781913282,0.2927683520161443,-149.85337020287608,47.8644,0.0053,-48.3384,-8.6681,-0.053,-17.2847,80.58986323894841,27.78628660900758,83.44829370479772,-22.890345255533855,-89.01663886176215,-39.601330227322045,4.244502605778156,2.7752511808187657,4.280153784421411,-7.1161651611328125,-0.13570149739583334,4.47829352484809,-3.1368,-1.3048,-1.1056,-0.0194,0.00306,0.06118,0.0008158885757438838,0.001000023796223104,0.0009098275913856924,0.0005507274181582034,0.000501415750477463,0.00041397270979359746,0.01111246645450592,0.010600005276501179,0.011704548262059689,passive,0
2.3006,rehab,safe_midrange_fast,37.52159571976014,-666.6359535325927,295.16577011991467,-177.6507095754163,0.2911765300348545,-149.85449046147008,49.0433,-0.0079,-50.1467,-17.3958,0.866,-7.648,80.67556475648786,27.84074915517675,83.53177892099512,-23.03259107801649,-89.01868184407552,-39.51637268066406,4.190087648901609,2.7752511808187657,4.141233840791306,-7.034573025173611,-0.06785074869791667,4.206882052951388,-3.1523,-1.2256,-1.6586,-0.02934,0.00321,0.07266,0.0008158885757438838,0.001000023796223104,0.0009098275913856924,0.0005507274181582034,0.000501415750477463,0.00041397270979359746,0.01111246645450592,0.010600005276501179,0.011704548262059689,passive,0
2.3206,rehab,safe_midrange_fast,38.29995700519769,-666.6336223946411,294.3800874678604,-177.64982092148938,0.29032366398458404,-149.85538166580284,49.7913,-0.021,-51.1504,-21.6719,1.0112,-6.1609,80.74349507246868,27.88396703134669,83.59866227253829,-23.146947224934895,-89.02034335666232,-39.448632134331596,4.298924361125077,2.6664212670656715,4.11805785528504,-7.272440592447916,-0.13570149739583334,4.0033213297526045,-3.1997,-1.2889,-1.0136,-0.05355,0.00089,0.06167,0.0008158885757438838,0.001000023796223104,0.0009098275913856924,0.0005507274181582034,0.000501415750477463,0.00041397270979359746,0.01111246645450592,0.010600005276501179,0.011704548262059689,passive,0
2.3408,rehab,safe_midrange_fast,39.46433968708043,-666.6315445759476,293.17058184845797,-177.65052462406666,0.2908919752060962,-149.85537568962653,48.5898,0.0212,-50.3928,-28.7115,0.4966,-5.1376,80.86237992390548,27.96280889227839,83.71593588649637,-23.34537082248264,-89.0230729844835,-39.33192782931857,4.4077542748781715,2.884087893042234,4.0800680028329985,-7.152794731987847,-0.13570149739583334,3.9354705810546875,-3.2167,-1.1833,-1.227,-0.03899,0.00896,0.06365,0.0008158885757438838,0.001000023796223104,0.0009098275913856924,0.0005507274181582034,0.000501415750477463,0.00041397270979359746,0.01111246645450592,0.010600005276501179,0.011704548262059689,passive,0
2.3606,rehab,safe_midrange_fast,40.23644136695977,-666.6323192215659,292.35343758179437,-177.65154621410568,0.29182307449420125,-149.85473487595104,47.5659,0.0869,-49.9511,-38.7615,0.0206,-2.8536,80.9298547423712,28.009215251053913,83.78263567933942,-23.459065755208332,-89.0245140923394,-39.26637437608507,4.135672692025062,2.938502849918781,4.143035435440517,-7.316648695203993,-0.06785074869791667,4.0033213297526045,-3.088,-1.2171,-1.3832,-0.02276,0.00354,0.06777,0.0008158885757438838,0.001000023796223104,0.0009098275913856924,0.0005507274181582034,0.000501415750477463,0.00041397270979359746,0.01111246645450592,0.010600005276501179,0.011704548262059689,passive,0
2.381,rehab,safe_midrange_fast,41.37834927497925,-666.6357103149874,291.1337063295996,-177.65302070550956,0.2929734269296543,-149.85209168851594,46.0066,0.0938,-49.3815,-57.9377,-0.2314,8.4149,81.02971067523012,28.079246294380415,83.88109792577158,-23.628548516167534,-89.02674357096355,-39.17107476128472,4.135672692025062,3.047339562142249,4.120328544390084,-7.076568603515625,-0.06785074869791667,3.8676198323567705,-3.143,-1.3204,-1.4359,-0.03058,0.00013,0.06727,0.0008158885757438838,0.001000023796223104,0.0009098275913856924,0.0005507274181582034,0.000501415750477463,0.00041397270979359746,0.01111246645450592,0.010600005276501179,0.011704548262059689,passive,0
2.4011,rehab,safe_midrange_fast,42.306211146282216,-666.6340334970639,290.1437672923934,-177.65226677351473,0.2923237308925095,-149.85057639673977,45.4789,0.0312,-50.2321,-71.5148,-0.6647,14.346,81.09473804436108,28.124530905544166,83.94636324136565,-23.741683959960938,-89.02820163302951,-39.108479817708336,4.026835979801594,2.8296661376953125,4.169073576974396,-7.161246405707465,-0.06785074869791667,3.664059109157986,-3.3121,-1.3869,-1.6663,-0.03139,0.00321,0.06595,0.0008158885757438838,0.001000023796223104,0.0009098275913856924,0.0005507274181582034,0.000501415750477463,0.00041397270979359746,0.01111246645450592,0.010600005276501179,0.011704548262059689,passive,0
2.4207,rehab,safe_midrange_fast,43.02468705949464,-666.6280479377649,289.36078969031377,-177.6509271403592,0.29128134667939,-149.8501766583579,43.8745,-0.0266,-49.8338,-63.548,-1.2933,5.3226,81.17355271141128,28.179890849802753,84.02818963079169,-23.883141411675346,-89.02991400824652,-39.03199937608507,3.8635911091719524,2.7752511808187657,4.105603057559174,-7.118826972113715,-0.06785074869791667,3.8676198323567705,-3.1514,-1.2797,-1.9635,-0.02415,-0.00259,0.06525,0.0008158885757438838,0.001000023796223104,0.0009098275913856924,0.0005507274181582034,0.000501415750477463,0.00041397270979359746,0.01111246645450592,0.010600005276501179,0.011704548262059689,passive,0
2.441,rehab,safe_midrange_fast,44.05305654902651,-666.6220267923408,288.1799557143633,-177.64997355692034,0.2904587983052297,-149.85103298729814,42.5803,-0.0345,-49.728,-53.7138,-1.4069,1.9372,81.24879138304455,28.23576747780979,84.10964210434716,-24.023827446831596,-89.0316179063585,-38.957858615451386,3.754754396948484,2.884087893042234,4.1668980664545945,-6.926540798611111,-0.13570149739583334,3.664059109157986,-3.3237,-1.2694,-2.1231,-0.03381,0.00834,0.06846,0.0008158885757438838,0.001000023796223104,0.0009098275913856924,0.0005507274181582034,0.000501415750477463,0.00041397270979359746,0.01111246645450592,0.010600005276501179,0.011704548262059689,passive,0
2.4606,rehab,safe_midrange_fast,44.710323017329976,-666.6270082167702,287.3874625997883,-177.64922852736774,0.28983977282226636,-149.85266220627145,41.8354,-0.0277,-50.0031,-41.1063,-0.5229,-1.0747,81.32101833230197,28.293404909643797,84.18940855724976,-24.16448805067274,-89.03328789605034,-38.885201348198784,3.5915027278484684,2.938502849918781,3.8851558571994893,-6.9268035888671875,-0.06785074869791667,3.664059109157986,-3.1584,-1.5234,-2.1753,-0.04303,0.00204,0.06626,0.0008158885757438838,0.001000023796223104,0.0009098275913856924,0.0005507274181582034,0.000501415750477463,0.00041397270979359746,0.01111246645450592,0.010600005276501179,0.011704548262059689,passive,0
2.4806,rehab,safe_midrange_fast,45.68305146208455,-666.6376066276313,286.171896039905,-177.65003655505953,0.2905013450913162,-149.85497971643753,40.2338,-0.0421,-49.0488,-25.4839,0.6138,-4.7738,81.40628474773747,28.365298733852878,84.28475710425046,-24.333241780598957,-89.03520372178819,-38.79951477050781,3.64592448319539,3.1017545190187965,4.0665866360806,-6.959279378255208,-0.06785074869791667,3.528349134657118,-3.0243,-1.3722,-1.6032,-0.03075,0.01158,0.05781,0.0008158885757438838,0.001000023796223104,0.0009098275913856924,0.0005507274181582034,0.000501415750477463,0.00041397270979359746,0.01111246645450592,0.010600005276501179,0.011704548262059689,passive,0
2.5009,rehab,safe_midrange_fast,46.34601134987038,-666.6385236905563,285.3544003486606,-177.6513584546512,0.29162188326352995,-149.85406860092132,40.5903,-0.0605,-49.9117,-11.8728,0.8949,-9.2927,81.46429609544207,28.41339111328125,84.34896185846613,-24.445470174153645,-89.03639899359808,-38.743676079644096,3.64592448319539,2.938502849918781,3.9147767926206685,-6.87043931749132,-0.06785074869791667,3.528349134657118,-3.1729,-1.4407,-2.0666,-0.03528,0.00705,0.05985,0.0008158885757438838,0.001000023796223104,0.0009098275913856924,0.0005507274181582034,0.000501415750477463,0.00041397270979359746,0.01111246645450592,0.010600005276501179,0.011704548262059689,passive,0
2.521,rehab,safe_midrange_fast,47.340341820045275,-666.6351104547625,284.1484115095243,-177.65184708668986,0.29201274210310924,-149.852541214453,40.37,-0.0273,-49.8004,-1.2149,0.4893,-13.6752,81.55126212847115,28.484163189878558,84.44475230604115,-24.613893296983505,-89.03825547960069,-38.660125732421875,3.5915027278484684,2.8296661376953125,3.9292099452254794,-6.800452338324653,-0.13570149739583334,3.4604983859592013,-3.0442,-1.4513,-2.3418,-0.03286,0.0099,0.06577,0.0008158885757438838,0.001000023796223104,0.0009098275913856924,0.0005507274181582034,0.000501415750477463,0.00041397270979359746,0.01111246645450592,0.010600005276501179,0.011704548262059689,passive,0
2.5407,rehab,safe_midrange_fast,47.989470489320034,-666.631377384334,283.3614097366281,-177.6510504060953,0.29137591544127955,-149.85202357163158,40.5352,0.0427,-50.0948,0.7199,0.2068,-10.0171,81.60802935609723,28.530324803720607,84.50787610346728,-24.725833468967014,-89.03947618272569,-38.605126274956596,3.373836101871906,2.8296661376953125,3.987962326200882,-6.901846991644965,-0.06785074869791667,3.596208360460069,-3.235,-1.4532,-2.3248,-0.03502,0.024,0.06919,0.0008158885757438838,0.001000023796223104,0.0009098275913856924,0.0005507274181582034,0.000501415750477463,0.00041397270979359746,0.01111246645450592,0.010600005276501179,0.011704548262059689,passive,0
2.5607,rehab,safe_midrange_fast,48.944575708139965,-666.6313488458503,282.18305794400624,-177.64947497478948,0.2900822734002904,-149.85273294723729,41.3735,0.0637,-51.2977,4.6476,0.0596,-11.2624,81.69165054170212,28.600417033280475,84.60107633382967,-24.893612331814236,-89.04134114583333,-38.52266947428385,3.5370877709719215,3.047339562142249,3.88196057612353,-6.896430121527778,-0.06785074869791667,3.528349134657118,-3.3119,-1.2828,-2.2581,-0.03083,0.01801,0.06646,0.0008158885757438838,0.001000023796223104,0.0009098275913856924,0.0005507274181582034,0.000501415750477463,0.00041397270979359746,0.01111246645450592,0.010600005276501179,0.011704548262059689,passive,0
2.5809,rehab,safe_midrange_fast,49.58667899297691,-666.630665467185,281.38794110832896,-177.6491844256709,0.2898673189458759,-149.85250616076573,40.712,0.0027,-50.7526,0.4986,-0.3895,-5.8492,81.74785349628714,28.648040318253017,84.6631123759959,-25.00525580512153,-89.04254489474826,-38.46794128417969,3.373836101871906,3.047339562142249,3.8470980200437035,-6.91375732421875,-0.06785074869791667,3.324796888563368,-3.374,-1.439,-2.2828,-0.05957,0.02041,0.06499,0.0008158885757438838,0.001000023796223104,0.0009098275913856924,0.0005507274181582034,0.000501415750477463,0.00041397270979359746,0.01111246645450592,0.010600005276501179,0.011704548262059689,passive,0
2.601,rehab,safe_midrange_fast,50.55838044004391,-666.6312769117953,280.1710874758442,-177.65049224398552,0.2909105656367967,-149.85162793654968,40.6095,-0.0562,-50.8414,-9.4558,-1.0813,6.1108,81.83292955455214,28.72176972946318,84.7559386904877,-25.172576904296875,-89.04436747233073,-38.3856201171875,3.482672814095374,3.2650061881188117,3.95079508866414,-6.882120768229166,-0.0,3.324796888563368,-3.2121,-1.2967,-2.1203,-0.04795,0.01236,0.06131,0.0008158885757438838,0.001000023796223104,0.0009098275913856924,0.0005507274181582034,0.000501415750477463,0.00041397270979359746,0.01111246645450592,0.010600005276501179,0.011704548262059689,passive,0
2.6208,rehab,safe_midrange_fast,51.203169932801615,-666.6307484386059,279.3539257509602,-177.6518381160681,0.2920363862618185,-149.8514017270874,40.1383,-0.0444,-50.2639,-12.5086,-1.2203,13.1461,81.88937045560024,28.77148694331103,84.81776398007233,-25.283991495768227,-89.04553731282552,-38.33065456814236,3.482672814095374,3.1017545190187965,3.9078831436610457,-6.801511976453993,-0.0,3.596208360460069,-3.2442,-1.2279,-1.7353,-0.04483,0.00943,0.06614,0.0008158885757438838,0.001000023796223104,0.0009098275913856924,0.0005507274181582034,0.000501415750477463,0.00041397270979359746,0.01111246645450592,0.010600005276501179,0.011704548262059689,passive,0
2.6411,rehab,safe_midrange_fast,52.313837316420326,-666.6371266576942,277.93840468818996,-177.65265679141336,0.2926697491437194,-149.8524122810066,40.1242,-0.0303,-50.1672,-13.229,-0.2347,20.9788,81.98671775289101,28.8588812799737,84.92362976074219,-25.47905815972222,-89.04768202039931,-38.23448181152344,3.428251058748453,2.992917806795328,3.7556789889193998,-6.961873372395833,-0.13570149739583334,3.4604983859592013,-3.1935,-1.2569,-2.1141,-0.03993,0.01119,0.0683,0.0008158885757438838,0.001000023796223104,0.0009098275913856924,0.0005507274181582034,0.000501415750477463,0.00041397270979359746,0.01111246645450592,0.010600005276501179,0.011704548262059689,passive,0
2.6608,rehab,safe_midrange_fast,52.949933016523254,-666.6392212328656,277.1588621232459,-177.65097184418872,0.2913236095604118,-149.8529851381229,40.4679,-0.0629,-50.5565,-3.3872,1.0691,15.7793,82.04245841149056,28.907123225750308,84.98281724382154,-25.59026930067274,-89.0489281548394,-38.179406060112846,3.5370877709719215,3.047339562142249,3.600197971457302,-6.83609856499566,-0.13570149739583334,3.528349134657118,-3.1675,-1.1558,-1.8409,-0.02812,0.00538,0.06561,0.0008158885757438838,0.001000023796223104,0.0009098275913856924,0.0005507274181582034,0.000501415750477463,0.00041397270979359746,0.01111246645450592,0.010600005276501179,0.011704548262059689,passive,0
2.6806,rehab,safe_midrange_fast,53.58844682329559,-666.636846323498,276.3817828124891,-177.64929680817582,0.28995789995628546,-149.85342683581786,39.3601,-0.0726,-49.047,10.082,1.5544,3.4965,82.09836223337909,28.954943666363707,85.04230385959738,-25.70136176215278,-89.05019972059462,-38.12429640028212,3.5370877709719215,2.992917806795328,3.6618261054010675,-6.920767890082465,-0.13570149739583334,3.4604983859592013,-3.2744,-1.3936,-2.3167,-0.04751,0.01278,0.06624,0.0008158885757438838,0.001000023796223104,0.0009098275913856924,0.0005507274181582034,0.000501415750477463,0.00041397270979359746,0.01111246645450592,0.010600005276501179,0.011704548262059689,passive,0
2.7009,rehab,safe_midrange_fast,54.56646040330864,-666.6324062567513,275.1808512042094,-177.64944685795504,0.2900764085690876,-149.85253245840474,39.8107,-0.0229,-49.15,17.1992,1.0901,-3.8427,82.18396177386293,29.029516087900294,85.1319144976021,-25.867792765299477,-89.05204772949219,-38.04144965277778,3.64592448319539,3.1561694758953434,3.692813533367497,-6.825324164496528,-0.06785074869791667,3.392647637261285,-3.3653,-1.2718,-2.5575,-0.04912,0.01263,0.06889,0.0008158885757438838,0.001000023796223104,0.0009098275913856924,0.0005507274181582034,0.000501415750477463,0.00041397270979359746,0.01111246645450592,0.010600005276501179,0.011704548262059689,passive,0
2.721,rehab,safe_midrange_fast,55.223892787751936,-666.6328438325047,274.3579713086316,-177.6514482159264,0.29168210223141916,-149.85192101532766,40.4586,0.0716,-49.3123,18.249,0.628,-4.8797,82.2274651857886,29.068389741501004,85.17628131526531,-25.950486924913193,-89.05297173394096,-37.99964057074653,3.64592448319539,3.2650061881188117,3.7753673591236074,-6.973885430230035,-0.06785074869791667,3.528349134657118,-3.2772,-1.3455,-2.2648,-0.03793,0.01418,0.06879,0.0008158885757438838,0.001000023796223104,0.0009098275913856924,0.0005507274181582034,0.000501415750477463,0.00041397270979359746,0.01111246645450592,0.010600005276501179,0.011704548262059689,passive,0
2.7407,rehab,safe_midrange_fast,56.210923718159556,-666.6412329520184,273.12950555304514,-177.65311541110214,0.2930071943971031,-149.85225622969057,41.0986,0.1133,-49.681,18.3727,0.548,-5.1276,82.313656193195,29.147326781017945,85.26368924886873,-26.11626519097222,-89.05484517415364,-37.914835611979164,3.7003394400719367,3.373836101871906,3.508690560218131,-6.845364040798611,-0.06785074869791667,3.596208360460069,-3.3106,-1.2506,-1.5488,-0.04473,0.00716,0.06418,0.0008158885757438838,0.001000023796223104,0.0009098275913856924,0.0005507274181582034,0.000501415750477463,0.00041397270979359746,0.01111246645450592,0.010600005276501179,0.011704548262059689,passive,0
2.761,rehab,safe_midrange_fast,56.868760776922656,-666.6403608752104,272.3298501402017,-177.65313963943473,0.29298681947017363,-149.85197284974097,42.0848,0.0595,-50.7353,19.6622,0.1149,-8.2795,82.3857063822227,29.211409162766863,85.33551508837407,-26.25436570909288,-89.05643886990018,-37.84459431966146,3.7003394400719367,3.1561694758953434,3.639200795995127,-6.787821451822916,-0.06785074869791667,3.596208360460069,-3.3065,-1.2518,-1.4159,-0.05693,0.01058,0.06395,0.0008158885757438838,0.001000023796223104,0.0009098275913856924,0.0005507274181582034,0.000501415750477463,0.00041397270979359746,0.01111246645450592,0.010600005276501179,0.011704548262059689,passive,0
2.781,rehab,safe_midrange_fast,57.86395962926917,-666.6317412053957,271.15266875646574,-177.65181397531046,0.2919506330475681,-149.85210858231025,42.1046,-0.0036,-50.5716,12.2039,-0.9591,-2.0641,82.45839562746558,29.27349279422571,85.40742930799428,-26.391805013020832,-89.05806647406683,-37.773335774739586,3.482672814095374,3.1561694758953434,3.677340214795405,-6.730897691514757,-0.06785074869791667,3.7319098578559027,-3.2296,-1.2664,-2.0142,-0.05439,0.00766,0.06814,0.0008158885757438838,0.001000023796223104,0.0009098275913856924,0.0005507274181582034,0.000501415750477463,0.00041397270979359746,0.01111246645450592,0.010600005276501179,0.011704548262059689,passive,0
2.8006,rehab,safe_midrange_fast,58.716940034198664,-666.6262319706527,270.170676901041,-177.6504503481151,0.29087960146110486,-149.85058324059935,41.7394,-0.0242,-49.9391,7.036,-1.8235,1.9127,82.54744199242923,29.349227754196317,85.4925801494334,-26.55726114908854,-89.0600077311198,-37.68761528862847,3.64592448319539,3.2650061881188117,3.532009313602259,-6.730999416775173,-0.06785074869791667,3.664059109157986,-3.1867,-1.258,-2.0851,-0.05054,0.00043,0.06719,0.0008158885757438838,0.001000023796223104,0.0009098275913856924,0.0005507274181582034,0.000501415750477463,0.00041397270979359746,0.01111246645450592,0.010600005276501179,0.011704548262059689,passive,0
2.8209,rehab,safe_midrange_fast,59.39181686172166,-666.6258368603831,269.3697579032933,-177.6506310735599,0.2910148727660832,-149.8506368489149,41.6762,0.0004,-49.4986,4.7419,-1.522,6.7308,82.60656149080484,29.401473999023438,85.5485179636738,-26.666912502712673,-89.0613301595052,-37.62966579861111,3.809169353825031,3.2650061881188117,3.4244847061610457,-6.636615329318576,-0.06785074869791667,3.799769083658854,-3.308,-1.2184,-2.2912,-0.05246,0.01333,0.06889,0.0008158885757438838,0.001000023796223104,0.0009098275913856924,0.0005507274181582034,0.000501415750477463,0.00041397270979359746,0.01111246645450592,0.010600005276501179,0.011704548262059689,passive,0
2.8407,rehab,safe_midrange_fast,60.38757237094255,-666.6355912614831,268.1606194198889,-177.65093537848145,0.2913279465946967,-149.85306034900177,42.3821,-0.0087,-50.0022,4.6026,-0.0847,15.0913,82.69391503664527,29.48187270967087,85.63050071791847,-26.83142768012153,-89.06327989366319,-37.541724310980904,3.64592448319539,3.373836101871906,3.361639646020266,-6.919343736436632,-0.13570149739583334,3.7319098578559027,-3.2727,-1.2525,-2.3598,-0.04623,0.01053,0.069,0.0008158885757438838,0.001000023796223104,0.0009098275913856924,0.0005507274181582034,0.000501415750477463,0.00041397270979359746,0.01111246645450592,0.010600005276501179,0.011704548262059689,passive,0
2.8606,rehab,safe_midrange_fast,61.05240667365961,-666.6401461747768,267.34967066427,-177.6516666512534,0.29189205263755064,-149.85523680240155,42.0209,-0.0641,-49.247,23.2852,1.2309,3.4589,82.75222551704633,29.535900153736076,85.68512642737663,-26.94088406032986,-89.06463623046875,-37.48246086968316,3.64592448319539,3.373836101871906,3.2375879570989325,-6.723395453559028,-0.06785074869791667,3.664059109157986,-3.2748,-1.2692,-2.1094,-0.05281,-0.00088,0.06385,0.0008158885757438838,0.001000023796223104,0.0009098275913856924,0.0005507274181582034,0.000501415750477463,0.00041397270979359746,0.01111246645450592,0.010600005276501179,0.011704548262059689,passive,0
2.8811,rehab,safe_midrange_fast,62.0767719016343,-666.6398491142452,266.1498854904821,-177.6518189681467,0.2919824700252805,-149.85644588484558,42.8722,-0.0795,-49.7621,48.067,1.5247,-16.6452,82.84197892292892,29.615788979105428,85.76653811010983,-27.104602389865452,-89.06670464409721,-37.39332411024306,3.9724210229250465,3.2650061881188117,3.3598652452525526,-6.862903171115451,-0.06785074869791667,3.799769083658854,-3.3425,-1.3031,-2.6192,-0.04955,0.01388,0.06909,0.0008158885757438838,0.001000023796223104,0.0009098275913856924,0.0005507274181582034,0.000501415750477463,0.00041397270979359746,0.01111246645450592,0.010600005276501179,0.011704548262059689,passive,0
2.9006,rehab,safe_midrange_fast,62.78708470773552,-666.6353684931796,265.353635154046,-177.65151286012406,0.29179272395972117,-149.85578694158548,44.0899,-0.0157,-50.4186,56.058,1.0018,-23.2482,82.90415093450262,29.66890542814047,85.82064033734916,-27.213931613498264,-89.06806098090277,-37.33302646213107,3.8635911091719524,3.319421144995359,3.435919733330755,-6.9225819905598955,-0.20355224609375,3.799769083658854,-3.1842,-1.1353,-2.2147,-0.0361,0.00735,0.06525,0.0008158885757438838,0.001000023796223104,0.0009098275913856924,0.0005507274181582034,0.000501415750477463,0.00041397270979359746,0.01111246645450592,0.010600005276501179,0.011704548262059689,passive,0
2.9209,rehab,safe_midrange_fast,63.866819777469054,-666.6313597347289,264.15676404783375,-177.65159169260215,0.29187550438014026,-149.85415643328366,44.0516,0.0948,-49.0953,52.2252,0.3829,-19.6368,82.99869046352877,29.749786830184483,85.90007366520344,-27.37677680121528,-89.07015482584636,-37.24193149142795,3.918006066048499,3.428251058748453,3.315376055122602,-6.8895721435546875,-0.06785074869791667,3.664059109157986,-3.1204,-1.1905,-2.1338,-0.04248,0.02389,0.06228,0.0008158885757438838,0.001000023796223104,0.0009098275913856924,0.0005507274181582034,0.000501415750477463,0.00041397270979359746,0.01111246645450592,0.010600005276501179,0.011704548262059689,passive,0
2.941,rehab,safe_midrange_fast,64.58491262284628,-666.6326752438096,263.35513911372067,-177.65170037805024,0.29197711864258474,-149.8544412725981,46.621,0.1394,-50.8043,49.3735,0.0308,-15.5241,83.04586504945661,29.79112153006072,85.93903569891901,-27.458241780598957,-89.07123141818576,-37.195426093207466,3.809169353825031,3.482672814095374,3.293722926980198,-6.790347629123263,-0.06785074869791667,3.7319098578559027,-3.1249,-1.1831,-2.1162,-0.05602,0.01398,0.06047,0.0008158885757438838,0.001000023796223104,0.0009098275913856924,0.0005507274181582034,0.000501415750477463,0.00041397270979359746,0.01111246645450592,0.010600005276501179,0.011704548262059689,passive,0
2.9606,rehab,safe_midrange_fast,65.6788920328217,-666.6356588590733,262.1525738893596,-177.6517864323592,0.2919434997159138,-149.85368727313056,48.7826,0.077,-52.4994,40.7946,-0.5412,-5.8338,83.15750273147432,29.887972539014154,86.02872791856822,-27.647917005750866,-89.0738508436415,-37.08661397298177,4.081257735148514,3.373836101871906,3.186341087416847,-6.7061614990234375,-0.13570149739583334,3.799769083658854,-3.2115,-1.2505,-2.4138,-0.05671,0.01213,0.06646,0.0008158885757438838,0.001000023796223104,0.0009098275913856924,0.0005507274181582034,0.000501415750477463,0.00041397270979359746,0.01111246645450592,0.010600005276501179,0.011704548262059689,passive,0
2.9806,rehab,safe_midrange_fast,66.41799320364315,-666.6323480551771,261.35385889476146,-177.65198908198215,0.2920776035098088,-149.8539167796499,48.1888,-0.0218,-51.6026,27.7817,-1.405,7.6661,83.22222416943843,29.943108133750385,86.07990680354656,-27.75583055284288,-89.0753682454427,-37.02286614312066,4.026835979801594,3.428251058748453,3.1596842850788986,-6.793619791666666,-0.13570149739583334,3.799769083658854,-3.096,-1.2563,-2.0731,-0.03483,0.00029,0.06769,0.0008158885757438838,0.001000023796223104,0.0009098275913856924,0.0005507274181582034,0.000501415750477463,0.00041397270979359746,0.01111246645450592,0.010600005276501179,0.011704548262059689,passive,0
3.0006,rehab,safe_midrange_fast,67.55571236996971,-666.627259477316,260.1715326962821,-177.6503025029236,0.2908391507257075,-149.85208887413305,47.8074,-0.076,-50.7312,17.0531,-1.855,17.0524,83.32183535736387,30.025512393158262,86.1553426308207,-27.918531629774304,-89.0776146782769,-36.926888359917534,4.298924361125077,3.373836101871906,3.0882731522663986,-6.609853108723958,-0.13570149739583334,4.0033213297526045,-3.1547,-1.207,-2.032,-0.04436,0.01192,0.06429,0.0008158885757438838,0.001000023796223104,0.0009098275913856924,0.0005507274181582034,0.000501415750477463,0.00041397270979359746,0.01111246645450592,0.010600005276501179,0.011704548262059689,passive,0
3.0209,rehab,safe_midrange_fast,68.51361510149513,-666.6271068882392,259.18345895383453,-177.64930032694014,0.29014321704316876,-149.85221319095618,47.9571,-0.0672,-49.9424,-2.799,-1.2183,38.8519,83.40574887719485,30.095482250251393,86.21642688713452,-28.053181966145832,-89.07954745822482,-36.84434678819444,4.190087648901609,3.5915027278484684,2.995610001063583,-6.579530504014757,-0.06785074869791667,4.206882052951388,-3.1408,-1.1279,-2.0512,-0.05223,0.0172,0.06437,0.0008158885757438838,0.001000023796223104,0.0009098275913856924,0.0005507274181582034,0.000501415750477463,0.00041397270979359746,0.01111246645450592,0.010600005276501179,0.011704548262059689,passive,0
3.0409,rehab,safe_midrange_fast,69.66205184993915,-666.634268768988,257.96570276144723,-177.65105829280012,0.29139081273117046,-149.85393122975054,48.4619,-0.0453,-49.3811,-12.4934,0.276,56.4149,83.50644782038019,30.18312133184754,86.28805557099899,-28.213187323676216,-89.08202277289496,-36.74372355143229,4.298924361125077,3.5915027278484684,2.896250356542002,-6.740553114149305,-0.13570149739583334,4.139031304253472,-3.1228,-1.21,-2.3996,-0.04587,0.0044,0.06466,0.0008158885757438838,0.001000023796223104,0.0009098275913856924,0.0005507274181582034,0.000501415750477463,0.00041397270979359746,0.01111246645450592,0.010600005276501179,0.011704548262059689,passive,0
3.0609,rehab,safe_midrange_fast,70.43884608723991,-666.640691999061,257.1580700243724,-177.65193748934863,0.2920778632390237,-149.8549745178407,48.4383,-0.0429,-48.3588,5.209,1.5237,46.2625,83.5745616950611,30.241955294467434,86.33453671294863,-28.319337632921005,-89.08364189995659,-36.675754123263886,4.298924361125077,3.5370877709719215,2.8745768329884744,-6.772774590386285,-0.06785074869791667,4.410442776150173,-3.0328,-1.1872,-2.144,-0.05215,0.01629,0.06149,0.0008158885757438838,0.001000023796223104,0.0009098275913856924,0.0005507274181582034,0.000501415750477463,0.00041397270979359746,0.01111246645450592,0.010600005276501179,0.011704548262059689,passive,0
3.081,rehab,safe_midrange_fast,71.23541599569045,-666.6406792215085,256.36955419075815,-177.6521651699938,0.2922778142577044,-149.854977318399,48.7299,-0.0333,-47.7356,26.9146,1.6996,30.2204,83.6268419322401,30.285465504863474,86.368991360806,-28.398157755533852,-89.08486260308159,-36.6245608859592,4.353339318001624,3.5915027278484684,2.8267699893158262,-6.434258355034722,-0.13570149739583334,4.206882052951388,-3.1375,-1.1056,-2.2755,-0.05888,0.01977,0.06258,0.0008158885757438838,0.001000023796223104,0.0009098275913856924,0.0005507274181582034,0.000501415750477463,0.00041397270979359746,0.01111246645450592,0.010600005276501179,0.011704548262059689,passive,0
3.1007,rehab,safe_midrange_fast,72.44260290303245,-666.6357924607561,255.23525033990424,-177.65044258070182,0.2910232392971646,-149.85426248334582,48.1993,0.0085,-46.3537,34.0725,0.9911,24.3162,83.75002341695351,30.38231651381691,86.44659590012957,-28.578508165147568,-89.08780415852864,-36.50388929578993,4.4077542748781715,3.373836101871906,2.6242095645111387,-6.304982503255208,-0.13570149739583334,4.274732801649305,-3.1631,-1.0328,-1.5412,-0.05058,0.00861,0.06326,0.0008158885757438838,0.001000023796223104,0.0009098275913856924,0.0005507274181582034,0.000501415750477463,0.00041397270979359746,0.01111246645450592,0.010600005276501179,0.011704548262059689,passive,0
3.1207,rehab,safe_midrange_fast,73.2543752129484,-666.6330169326427,254.48708565189372,-177.64938892910467,0.2902126696780365,-149.85352819880896,48.6971,0.0677,-45.4877,32.2164,0.15,24.6022,83.80326223845529,30.42378038463026,86.4785079200669,-28.65444607204861,-89.08907572428386,-36.4520009358724,4.516590987101639,3.428251058748453,2.7326791593343907,-6.274278428819445,-0.06785074869791667,4.274732801649305,-2.9653,-1.1166,-1.9082,-0.04902,0.00602,0.05774,0.0008158885757438838,0.001000023796223104,0.0009098275913856924,0.0005507274181582034,0.000501415750477463,0.00041397270979359746,0.01111246645450592,0.010600005276501179,0.011704548262059689,passive,0
3.1406,rehab,safe_midrange_fast,74.46591411599688,-666.6318577616474,253.3509843255714,-177.65091600679392,0.29126034343943014,-149.8522166962404,50.5621,0.0861,-45.8732,27.8265,-0.4236,30.2115,83.92720515185063,30.52260974846264,86.5511155836653,-28.827718098958332,-89.0921613905165,-36.331541273328995,4.4077542748781715,3.64592448319539,2.505311116133586,-6.147655910915798,-0.13570149739583334,4.274732801649305,-2.9514,-0.945,-1.4916,-0.05103,0.0094,0.05774,0.0008158885757438838,0.001000023796223104,0.0009098275913856924,0.0005507274181582034,0.000501415750477463,0.00041397270979359746,0.01111246645450592,0.010600005276501179,0.011704548262059689,passive,0
3.1608,rehab,safe_midrange_fast,75.27044339321587,-666.6318688261979,252.61233082555324,-177.65201967576357,0.29206060876659545,-149.85201220788292,52.112,0.0408,-46.2157,22.0666,-0.8993,42.0987,83.99766449881072,30.578493174940053,86.59021358678837,-28.92330593532986,-89.09389919704861,-36.262359619140625,4.4077542748781715,3.5915027278484684,2.4598429462697244,-5.910127427842882,-0.13570149739583334,4.274732801649305,-2.9408,-0.8796,-1.8188,-0.03516,0.02186,0.06499,0.0008158885757438838,0.001000023796223104,0.0009098275913856924,0.0005507274181582034,0.000501415750477463,0.00041397270979359746,0.01111246645450592,0.010600005276501179,0.011704548262059689,passive,0
3.1807,rehab,safe_midrange_fast,76.45820628553308,-666.632948810392,251.5456094656624,-177.65289324507089,0.29276077724464206,-149.8528115295486,52.1046,-0.0285,-44.9402,14.2729,-0.9833,58.1172,84.10168789400913,30.660054424021503,86.6456143218692,-29.062084621853298,-89.09645080566406,-36.159091525607636,4.462176030225093,3.047339562142249,2.2198705389948175,-5.53314208984375,-0.06785074869791667,4.139031304253472,-2.9364,-1.0715,-2.4274,-0.02938,0.01032,0.06638,0.0008158885757438838,0.001000023796223104,0.0009098275913856924,0.0005507274181582034,0.000501415750477463,0.00041397270979359746,0.01111246645450592,0.010600005276501179,0.011704548262059689,passive,0
3.2011,rehab,safe_midrange_fast,77.25035801572956,-666.6339523631215,250.8893453716202,-177.65103877375319,0.29143946551737715,-149.8537069880413,51.1009,-0.0635,-42.9537,-4.3462,-0.4592,84.2352,84.17106628417969,30.711151727355354,86.67933473492613,-29.15114508734809,-89.09819708930121,-36.08980814615885,4.353339318001624,3.1017545190187965,2.0303223864866955,-5.614835951063368,-0.06785074869791667,4.342592027452257,-2.9964,-0.9037,-1.671,-0.04182,0.01117,0.05788,0.0008158885757438838,0.001000023796223104,0.0009098275913856924,0.0005507274181582034,0.000501415750477463,0.00041397270979359746,0.01111246645450592,0.010600005276501179,0.011704548262059689,passive,0
3.221,rehab,safe_midrange_fast,78.64403206287263,-666.633144170435,249.78245013145695,-177.64915847743387,0.2899768566530545,-149.85360805837152,50.5342,-0.055,-40.7495,-30.7609,0.1283,117.3887,84.27557916924505,30.785948498414296,86.72627817286123,-29.278140597873264,-89.10092671712239,-35.98667568630642,4.298924361125077,2.992917806795328,1.8964673032855044,-5.1510874430338545,-0.20355224609375,4.410442776150173,-2.9176,-1.0688,-2.639,-0.04802,0.00628,0.06432,0.0008158885757438838,0.001000023796223104,0.0009098275913856924,0.0005507274181582034,0.000501415750477463,0.00041397270979359746,0.01111246645450592,0.010600005276501179,0.011704548262059689,passive,0
3.2412,rehab,safe_midrange_fast,79.44016567811718,-666.6353201104874,249.14768750336918,-177.65092435931672,0.2912308538770823,-149.85381737453744,50.1744,-0.0361,-38.19,-47.1927,0.4855,143.0543,84.36281714108911,30.84941221935914,86.76225567808245,-29.377899169921875,-89.10320705837674,-35.90049743652344,4.4077542748781715,3.1561694758953434,1.7175315630317916,-4.910973442925347,-0.13570149739583334,4.342592027452257,-3.0224,-0.9228,-2.2287,-0.04268,0.02174,0.06739,0.0008158885757438838,0.001000023796223104,0.0009098275913856924,0.0005507274181582034,0.000501415750477463,0.00041397270979359746,0.01111246645450592,0.010600005276501179,0.011704548262059689,passive,0
3.2609,rehab,safe_midrange_fast,80.63426569559627,-666.6366335324789,248.23444964067082,-177.65459567086046,0.29384612138050914,-149.85379047000487,49.9516,0.0058,-35.5641,-45.144,0.681,151.4467,84.44974238329594,30.91163182022548,86.79520106551671,-29.47159661187066,-89.10547892252605,-35.81433614095052,4.244502605778156,3.047339562142249,1.5295742525912748,-4.51051500108507,-0.13570149739583334,4.342592027452257,-2.9425,-0.886,-2.0136,-0.05268,0.00642,0.05922,0.0008158885757438838,0.001000023796223104,0.0009098275913856924,0.0005507274181582034,0.000501415750477463,0.00041397270979359746,0.01111246645450592,0.010600005276501179,0.011704548262059689,passive,0
3.2808,rehab,safe_midrange_fast,81.43221624744197,-666.6383241565557,247.67953096151425,-177.65563898193608,0.2946177497708729,-149.8541817645781,48.9021,0.0734,-32.3569,-28.9766,0.6335,145.3465,84.53719790619199,30.970044277682163,86.82315637569616,-29.558495415581596,-89.10779317220052,-35.72781032986111,4.462176030225093,2.8296661376953125,1.3085083914275217,-4.126349555121528,-0.06785074869791667,4.410442776150173,-2.8473,-0.9314,-2.6286,-0.04244,0.00199,0.06468,0.0008158885757438838,0.001000023796223104,0.0009098275913856924,0.0005507274181582034,0.000501415750477463,0.00041397270979359746,0.01111246645450592,0.010600005276501179,0.011704548262059689,passive,0
3.3007,rehab,safe_midrange_fast,82.23465859484986,-666.6342459600509,247.1691472939698,-177.6558643033258,0.2947590254245218,-149.85410651651497,47.4463,0.0606,-28.8787,-11.3166,0.3451,137.5519,84.6073853143371,31.01313298291499,86.8431302816561,-29.623243543836804,-89.10968356662326,-35.65843370225694,4.298924361125077,2.61199951171875,1.1509402435604887,-3.948415120442708,-0.13570149739583334,4.342592027452257,-2.9263,-0.8456,-1.6721,-0.06208,0.01593,0.05855,0.0008158885757438838,0.001000023796223104,0.0009098275913856924,0.0005507274181582034,0.000501415750477463,0.00041397270979359746,0.01111246645450592,0.010600005276501179,0.011704548262059689,passive,0
3.3209,rehab,safe_midrange_fast,83.4455375610569,-666.6334683159272,246.50000166417016,-177.65296764938333,0.29277625073551167,-149.85230062534077,46.8784,-0.0166,-26.0049,-2.0197,0.0277,134.654,84.71330548276995,31.07251762163521,86.86598673905476,-29.711888631184895,-89.11244710286458,-35.555318196614586,4.135672692025062,2.2855029719890934,0.8514132358060025,-3.506588406032986,-0.13570149739583334,4.410442776150173,-2.8673,-0.926,-1.7508,-0.05288,0.01444,0.05252,0.0008158885757438838,0.001000023796223104,0.0009098275913856924,0.0005507274181582034,0.000501415750477463,0.00041397270979359746,0.01111246645450592,0.010600005276501179,0.011704548262059689,passive,0
3.3408,rehab,safe_midrange_fast,84.23757746493236,-666.6305766261833,246.09172670819302,-177.65184626277915,0.29202395824366645,-149.85158723643863,47.3561,-0.0244,-23.7649,-0.5292,-0.263,134.1664,84.78256150047378,31.109508098942218,86.87839394748801,-29.764539930555554,-89.11430358886719,-35.487374199761284,4.244502605778156,2.2855029719890934,0.7251248501314975,-3.0896419949001737,-0.13570149739583334,4.071180555555555,-2.564,-0.7287,-1.6628,-0.03027,0.01292,0.05379,0.0008158885757438838,0.001000023796223104,0.0009098275913856924,0.0005507274181582034,0.000501415750477463,0.00041397270979359746,0.01111246645450592,0.010600005276501179,0.011704548262059689,passive,0
3.361,rehab,safe_midrange_fast,85.39153855259816,-666.6279049115794,245.53431702999367,-177.65184976647728,0.29196501616905174,-149.8524375920817,48.1343,0.0176,-21.5302,-3.3605,-0.1942,137.2146,84.88348479318147,31.16166596365447,86.89190930659228,-29.83306884765625,-89.11721123589409,-35.38639492458767,3.9724210229250465,2.0134145906656093,0.4460408427927754,-2.4891153971354165,-0.20355224609375,4.139031304253472,-2.6782,-0.7576,-1.7912,-0.04555,0.00676,0.06351,0.0008158885757438838,0.001000023796223104,0.0009098275913856924,0.0005507274181582034,0.000501415750477463,0.00041397270979359746,0.01111246645450592,0.010600005276501179,0.011704548262059689,passive,0
3.381,rehab,safe_midrange_fast,86.13590919964311,-666.6305714667142,245.19981200528852,-177.6527626698143,0.29256611645448677,-149.85408293936493,49.1181,0.0351,-19.4305,-12.8836,0.71,147.7148,84.94861413936803,31.19451617250348,86.89701495784344,-29.871783786349827,-89.11915249294705,-35.32007853190104,4.026835979801594,1.9045846769125154,0.20751650970761137,-2.2677103678385415,-0.20355224609375,4.071180555555555,-2.5495,-0.7727,-1.3443,-0.04343,0.01308,0.04971,0.0008158885757438838,0.001000023796223104,0.0009098275913856924,0.0005507274181582034,0.000501415750477463,0.00041397270979359746,0.01111246645450592,0.010600005276501179,0.011704548262059689,passive,0
3.4009,rehab,safe_midrange_fast,87.25004671814365,-666.6449820646156,244.78724366814504,-177.65281568035013,0.29264023300782066,-149.85460652870003,48.1651,0.0394,-15.6051,-36.3984,1.4898,164.2497,85.04613139841815,31.239508449441136,86.89632151386526,-29.918713039822048,-89.12197536892361,-35.22260030110677,4.190087648901609,1.686918050935953,-0.030994226436803836,-1.6671668158637152,-0.13570149739583334,3.9354705810546875,-2.5965,-0.8149,-1.6727,-0.04371,0.0168,0.05614,0.0008158885757438838,0.001000023796223104,0.0009098275913856924,0.0005507274181582034,0.000501415750477463,0.00041397270979359746,0.01111246645450592,0.010600005276501179,0.011704548262059689,passive,0
3.4209,rehab,safe_midrange_fast,87.9825347557257,-666.6368034270739,244.56125938061564,-177.65424523223223,0.29365215723282184,-149.85412691239418,46.1735,0.0395,-12.0336,-73.0506,0.7659,181.8805,85.11009140770034,31.26439085101137,86.8949822152015,-29.942262437608505,-89.12384033203125,-35.15941196017795,4.026835979801594,1.4148296696124691,-0.13538473903542697,-1.258782280815972,-0.06785074869791667,3.9354705810546875,-2.4263,-0.7481,-1.4412,-0.03367,0.00652,0.05258,0.0008158885757438838,0.001000023796223104,0.0009098275913856924,0.0005507274181582034,0.000501415750477463,0.00041397270979359746,0.01111246645450592,0.010600005276501179,0.011704548262059689,passive,0
3.441,rehab,safe_midrange_fast,89.2236345034117,-666.6248542335932,244.28460747849215,-177.65608526720766,0.294948018248094,-149.85301450656556,44.2346,0.0531,-8.1734,-110.1078,-0.7072,192.2014,85.2184522269976,31.30027997611773,86.88434940753596,-29.968236287434895,-89.12706163194444,-35.05250718858507,3.7003394400719367,1.0883331298828125,-0.5617372116239945,-0.5747138129340278,-0.13570149739583334,3.7319098578559027,-2.268,-0.7032,-1.4807,-0.02508,0.01225,0.04785,0.0008158885757438838,0.001000023796223104,0.0009098275913856924,0.0005507274181582034,0.000501415750477463,0.00041397270979359746,0.01111246645450592,0.010600005276501179,0.011704548262059689,passive,0
3.461,rehab,safe_midrange_fast,89.90185553705565,-666.6232777754519,244.20267214139776,-177.6559239135346,0.29476787169525753,-149.85252048850813,42.2391,0.1029,-4.1625,-133.868,-1.5234,189.2808,85.27770089631034,31.31614080750116,86.87290078342551,-29.97450934516059,-89.12892659505208,-34.99385409884982,3.809169353825031,0.9250814607827971,-0.8252323263942605,-0.20289103190104166,-0.06785074869791667,3.528349134657118,-2.3838,-0.6902,-1.3232,-0.04591,0.00754,0.04844,0.0008158885757438838,0.001000023796223104,0.0009098275913856924,0.0005507274181582034,0.000501415750477463,0.00041397270979359746,0.01111246645450592,0.010600005276501179,0.011704548262059689,passive,0
3.4809,rehab,safe_midrange_fast,90.87779406853566,-666.627405620053,244.1667339850672,-177.65431505484568,0.2935947363021205,-149.8519066720607,39.7619,0.0974,-0.277,-137.3765,-1.7357,178.0635,85.36298090868657,31.33459185609723,86.84960922392288,-29.974000718858505,-89.13163079155815,-34.90922715928819,3.482672814095374,0.6529998779296875,-1.1208502136834777,0.24792989095052081,-0.06785074869791667,3.4604983859592013,-2.2461,-0.4932,-1.5544,-0.03042,0.00888,0.05781,0.0008158885757438838,0.001000023796223104,0.0009098275913856924,0.0005507274181582034,0.000501415750477463,0.00041397270979359746,0.01111246645450592,0.010600005276501179,0.011704548262059689,passive,0
3.5007,rehab,safe_midrange_fast,91.503769479755,-666.6282815849444,244.1988007617462,-177.65306750132072,0.2927067930225279,-149.85054159548085,36.4999,-0.0307,3.209,-124.4909,-1.7599,166.5539,85.41764740896697,31.342818005250233,86.83089303498221,-29.966515435112846,-89.13336012098524,-34.855872260199654,3.2650061881188117,0.3809114966062036,-1.2548888555847773,0.7011583116319444,-0.13570149739583334,3.1890869140625,-2.1553,-0.6267,-1.4878,-0.02882,0.00647,0.04725,0.0008158885757438838,0.001000023796223104,0.0009098275913856924,0.0005507274181582034,0.000501415750477463,0.00041397270979359746,0.01111246645450592,0.010600005276501179,0.011704548262059689,passive,0
3.521,rehab,safe_midrange_fast,92.09144297877317,-666.6300399108185,244.27472996733593,-177.65243846331865,0.292296099397613,-149.85056320315437,33.1987,-0.1504,6.34,-114.2505,-1.7367,155.6856,85.45640548857132,31.346890289004484,86.81497781583579,-29.956258138020832,-89.13463168674045,-34.81703864203559,3.1561694758953434,0.2720815828531095,-1.4353678486134747,0.9504275851779513,-0.13570149739583334,3.0533854166666665,-1.9967,-0.5153,-1.0855,-0.02295,0.00181,0.04223,0.0008158885757438838,0.001000023796223104,0.0009098275913856924,0.0005507274181582034,0.000501415750477463,0.00041397270979359746,0.01111246645450592,0.010600005276501179,0.011704548262059689,passive,0
3.541,rehab,safe_midrange_fast,92.90528479453603,-666.6270220947488,244.4869421462272,-177.6504993635657,0.29096155302321375,-149.85084356131838,31.0775,-0.1346,8.7317,-111.8313,-1.37,144.288,85.53997228641322,31.347542942160427,86.77296326892211,-29.91980658637153,-89.13741217719183,-34.73280164930556,2.884087893042234,-0.05441495687654703,-1.5062419022663984,1.5708499484592013,-0.06785074869791667,2.8498246934678817,-1.959,-0.4887,-1.1742,-0.01609,0.00293,0.04513,0.0008158885757438838,0.001000023796223104,0.0009098275913856924,0.0005507274181582034,0.000501415750477463,0.00041397270979359746,0.01111246645450592,0.010600005276501179,0.011704548262059689,passive,0
