t,trajectory_type,trajectory_variant,x,y,z,rx,ry,rz,vx,vy,vz,ax,ay,az,j1,j2,j3,j4,j5,j6,dj1,dj2,dj3,dj4,dj5,dj6,fx,fy,fz,tx,ty,tz,Mx,My,Mz,Bx,By,Bz,Kx,Ky,Kz,mode,comfort
0.0005,rehab,danger_fast_jerk,-22.0972589582,-665.7243403301,331.1365227184,-177.3899544443,0.1426441256,-149.9864806278,334.7924,4.5793,-116.7028,27925.9767,230.595,-15404.2669,85.413452901,31.0188970348,86.7388267075,-29.7900780742,-88.8461078304,-34.0655104454,-20.7844064605,-20.4556361451,-2.7862363971,16.1907773211,-5.714255051,-11.5931618425,-2.9923,6.4543,24.4943,-0.03858,0.16438,-0.04147,0.0019,0.00182,0.002,0.00145,0.00155,0.0014,0.036,0.0385,0.0405,passive,2
0.0205,rehab,danger_fast_jerk,-11.6454277117,-665.6083661084,326.621542444,-177.393077975,0.1436675885,-149.9810896579,710.3907,7.0181,-334.7952,9633.8504,13.2913,-6404.977,84.8863394152,30.6340147981,86.4664824546,-29.2760954358,-88.8954276497,-34.5021222196,-31.9269421145,-18.0325875251,-24.4481888998,35.2074865199,0.7822731223,-32.0680155786,-2.2228,6.0741,24.8156,-0.03395,0.14582,-0.04329,0.0019,0.00182,0.002,0.00145,0.00155,0.0014,0.036,0.0385,0.0405,passive,2
0.0405,rehab,danger_fast_jerk,6.3183689548,-665.4436146217,317.7447133794,-177.3900860904,0.1431621617,-149.9862801182,720.1464,5.1109,-372.9019,-3633.7531,-110.7539,190.2621,84.1363752164,30.2975935338,85.7608991515,-28.3817786134,-88.8148169056,-35.3482310685,-34.7596859,-13.8543913916,-22.7451281696,39.9807901202,-0.3167471218,-33.9757914927,0.0331,5.9114,24.1931,-0.03642,0.14982,-0.02007,0.0019,0.00182,0.002,0.00145,0.00155,0.0014,0.036,0.0385,0.0405,passive,2
0.0605,rehab,danger_fast_jerk,17.1604299974,-665.4039287995,311.7054674281,-177.3876206034,0.1449041429,-149.9818287554,565.0406,2.588,-327.1847,-3055.7551,-60.3171,-269.7088,83.4959519792,30.0798391424,85.5566773278,-27.676863831,-88.9080975346,-35.8611538793,-30.8704602409,-15.6361881588,-19.1711887963,31.7613576067,-3.3988518207,-25.2277879537,0.7889,5.9946,22.6765,-0.03357,0.1264,-0.02434,0.0019,0.00182,0.002,0.00145,0.00155,0.0014,0.036,0.0385,0.0405,passive,2
0.0805,rehab,danger_fast_jerk,28.9199918381,-665.3400951172,304.6573234381,-177.3870124289,0.1424076907,-149.9881260063,597.9162,2.6982,-383.6902,1332.4208,-29.6596,-3019.6763,82.9015568067,29.6721460074,84.9940515997,-27.1113243091,-88.9507709784,-36.3573425867,-30.3639798503,-23.1998893215,-23.2838971047,32.5948550128,-0.2065515051,-25.7218394582,1.8608,6.0107,23.8767,-0.03375,0.14334,-0.01794,0.0019,0.00182,0.002,0.00145,0.00155,0.0014,0.036,0.0385,0.0405,passive,2
0.1005,rehab,danger_fast_jerk,41.0770796083,-665.2959989169,296.3578583533,-177.3884591594,0.1421302225,-149.9886758852,618.3374,1.4016,-447.9718,442.8668,-28.8347,-2994.9622,82.2813927852,29.1518435695,84.6253214436,-26.3730696305,-88.9163595948,-36.8900274576,-32.8018834624,-19.1819704501,-21.8707231676,36.4376225055,-0.666112043,-28.1258080149,2.4691,4.7061,20.3414,-0.02814,0.1151,-0.00972,0.0019,0.00182,0.002,0.00145,0.00155,0.0014,0.036,0.0385,0.0405,passive,2
0.1205,rehab,danger_fast_jerk,53.6534879786,-665.2840309728,286.7384513585,-177.3862514311,0.1421134876,-149.9842142881,615.6309,1.5449,-503.4887,-355.5219,-8.8465,-2379.206,81.5894814682,28.9048671894,84.119222673,-25.6538194089,-88.9774154601,-37.4823749073,-33.6819680477,-16.2041254184,-21.732516398,39.3633358573,-3.3512379746,-33.2415998157,4.0924,5.1147,21.1732,-0.03753,0.11358,-0.00641,0.0019,0.00182,0.002,0.00145,0.00155,0.0014,0.036,0.0385,0.0405,passive,2
0.1405,rehab,danger_fast_jerk,65.7023160711,-665.2342045734,276.2183097438,-177.3830457849,0.1442187077,-149.9824624312,604.1165,1.0477,-543.14,-1005.4926,-82.703,-1856.2659,80.9341140633,28.5036785528,83.7560207877,-24.7985361962,-89.0504091138,-38.2196914502,-35.2009248727,-19.6076628342,-24.7485202785,38.0852125084,0.9664979881,-33.0763329737,4.7353,4.524,19.2405,-0.04255,0.10683,0.00126,0.0019,0.00182,0.002,0.00145,0.00155,0.0014,0.036,0.0385,0.0405,passive,2
0.1605,rehab,danger_fast_jerk,77.818149071,-665.2421211629,265.0128496006,-177.3847192706,0.1465691118,-149.9789521744,575.4112,-1.7633,-577.7394,-1777.8686,-68.53,-1487.2389,80.1814444733,28.120560676,83.1292818618,-24.1304109086,-88.9387555406,-38.8054282262,-35.9862215009,-16.5701133529,-26.5758413525,38.2723551684,1.8309165037,-30.2421130775,5.0979,-4.8095,18.482,-0.12462,0.09604,0.04412,0.0019,0.00182,0.002,0.00145,0.00155,0.0014,0.036,0.0385,0.0405,passive,2
0.1805,rehab,danger_fast_jerk,88.7187643293,-665.3047350824,253.1087356478,-177.3901292029,0.1431997012,-149.9816446126,533.0018,-1.6935,-602.6296,-2093.6989,65.5713,-707.1093,79.4946652033,27.8408740187,82.6929871336,-23.2676419894,-88.9771724536,-39.4293759733,-35.2372296453,-19.4147447211,-22.460200433,38.0129235191,-1.5505205508,-31.3667416009,6.2383,-4.7573,18.6766,-0.11454,0.08459,0.04715,0.0019,0.00182,0.002,0.00145,0.00155,0.0014,0.036,0.0385,0.0405,passive,2
0.2005,rehab,danger_fast_jerk,99.1382204471,-665.3098593236,240.9076656677,-177.3870555118,0.1401591579,-149.9841187865,491.6633,0.8596,-606.0237,-2909.7157,-53.7433,711.5434,78.7719552875,27.3439708872,82.2308738445,-22.6098939678,-89.0007763626,-40.0600978902,-33.1699710622,-18.5133847337,-24.3285641538,37.1449760331,-2.5988892795,-32.0379426491,7.5366,-5.3471,18.7917,-0.13588,0.09184,0.05643,0.0019,0.00182,0.002,0.00145,0.00155,0.0014,0.036,0.0385,0.0405,passive,2
0.2205,rehab,danger_fast_jerk,108.3852943454,-665.2703515165,228.867786618,-177.389119122,0.1406564397,-149.9805953977,416.6132,-3.8432,-574.1679,-3546.8855,-164.5411,1968.4948,78.1678663608,27.1003386293,81.7198445674,-21.7818429481,-89.0811280248,-40.7108936793,-30.5508915572,-13.3382227096,-22.4011473067,31.7995212416,-1.9507215344,-27.8440263578,8.3153,-5.2718,18.0841,-0.11712,0.07093,0.059,0.0019,0.00182,0.002,0.00145,0.00155,0.0014,0.036,0.0385,0.0405,passive,2
0.2405,rehab,danger_fast_jerk,115.8027467502,-665.463586785,217.9409511695,-177.3844579461,0.1449103537,-149.9809489193,349.7878,-5.7221,-527.2839,-2898.4693,28.7614,2251.0176,77.5499196252,26.8104419788,81.3348279523,-21.3379131182,-89.078805224,-41.1738589446,-28.7950785553,-16.0275916345,-19.593176102,27.2566117508,-0.5509496972,-23.7696937542,9.8045,-5.3721,18.565,-0.13313,0.08551,0.0654,0.0019,0.00182,0.002,0.00145,0.00155,0.0014,0.036,0.0385,0.0405,passive,2
0.2605,rehab,danger_fast_jerk,122.3768075858,-665.4992337509,207.7764292681,-177.388891064,0.1449758548,-149.9793162939,300.6744,-2.6927,-484.1272,-2794.469,23.7168,2254.0874,77.0160632186,26.459234964,80.9361175233,-20.6915784781,-89.1031660127,-41.6616814295,-27.0666261366,-14.6551957944,-19.5440932465,33.1763209155,-0.301763075,-21.0964452643,11.8469,-5.9211,20.1569,-0.145,0.08176,0.08123,0.0019,0.00182,0.002,0.00145,0.00155,0.0014,0.036,0.0385,0.0405,passive,2
0.2805,rehab,danger_fast_jerk,127.829722177,-665.5712960058,198.5758648402,-177.3879835685,0.1403198271,-149.978020209,238.0091,-4.7734,-437.1204,-2842.9666,-111.0102,2757.8129,76.4672545798,26.224234147,80.5530642224,-20.0108602815,-89.090875747,-42.0177167551,-22.0942581043,-13.0677741833,-14.9189226051,25.6430502861,1.0310525479,-20.0431568357,12.5677,-6.2136,20.6471,-0.14063,0.08142,0.08168,0.0019,0.00182,0.002,0.00145,0.00155,0.0014,0.036,0.0385,0.0405,passive,2
0.3005,rehab,danger_fast_jerk,131.8971703541,-665.6901690911,190.2916117191,-177.3883228729,0.1436095922,-149.9795163312,186.9557,-7.1331,-373.8146,-2370.2221,-43.5532,3560.5592,76.1322928944,25.9365239966,80.3393606191,-19.6658564666,-89.0619239108,-42.4634077029,-15.3286464121,-7.6765892433,-9.6505373232,18.6011136032,1.3460666546,-18.9591336786,13.2462,-6.4694,20.145,-0.14518,0.07756,0.09884,0.0019,0.00182,0.002,0.00145,0.00155,0.0014,0.036,0.0385,0.0405,passive,2
0.3205,rehab,danger_fast_jerk,135.3079510483,-665.8566215329,183.6232790925,-177.385026117,0.1425872609,-149.9737337404,143.2002,-6.5155,-294.6981,-2202.5203,-47.4201,3959.4471,75.8541087233,25.9171705773,80.1670427295,-19.2668157374,-89.0370330808,-42.7760821023,-14.1075595871,-5.0186199601,-9.0285915218,13.0615308848,-3.6682392005,-14.1774425687,13.839,-6.3044,19.6891,-0.14094,0.05882,0.09546,0.0019,0.00182,0.002,0.00145,0.00155,0.0014,0.036,0.0385,0.0405,passive,2
0.3405,rehab,danger_fast_jerk,137.6251777189,-665.9507895197,178.5036888547,-177.3836763069,0.1365579259,-149.9785342447,98.8549,-9.0299,-215.4368,-1833.8787,-9.771,3772.2746,75.5679905109,25.7357791982,79.9782169583,-19.1433952313,-89.2086534788,-43.0305054057,-11.9316563311,-9.2929228954,-6.7913032033,8.7899120424,-3.633732964,-8.290097527,13.3763,-5.8401,18.0409,-0.13318,0.0761,0.0835,0.0019,0.00182,0.002,0.00145,0.00155,0.0014,0.036,0.0385,0.0405,passive,2
0.3605,rehab,danger_fast_jerk,139.2621473853,-666.2178192562,175.0058087545,-177.3862729977,0.1445464848,-149.9795150885,69.845,-6.9064,-143.8071,-1478.7054,119.6207,3288.962,75.37684247,25.5454536615,79.8953906013,-18.9152192557,-89.1823823994,-43.1076860034,-6.5058698076,-4.9296099174,-4.9975404123,9.1660738432,0.7043012117,-3.5520273666,13.3341,-5.4362,17.684,-0.13318,0.07238,0.0921,0.0019,0.00182,0.002,0.00145,0.00155,0.0014,0.036,0.0385,0.0405,passive,2
0.3805,rehab,danger_fast_jerk,140.4189791275,-666.227043531,172.7514053782,-177.3793265273,0.1411833513,-149.981637594,39.7067,-4.2451,-83.8783,-1518.5251,9.3937,2861.2475,75.3077557186,25.5385948015,79.7783153418,-18.7767522775,-89.1804814303,-43.1725865003,-5.2561044401,-1.6802402197,-2.9924941619,4.4744044266,-0.8409479441,-2.757419862,12.5775,-5.697,16.6578,-0.12623,0.07292,0.07971,0.0019,0.00182,0.002,0.00145,0.00155,0.0014,0.036,0.0385,0.0405,passive,2
0.4005,rehab,danger_fast_jerk,140.8504151247,-666.3876239062,171.6506776213,-177.3834370796,0.140000334,-149.9756071637,9.104,-6.5306,-29.3572,3161.7652,-71.8778,-8649.912,75.1665982924,25.4782440527,79.7756908349,-18.7362430787,-89.2160203171,-43.2179827978,0.5741801485,-0.3849161335,0.245364575,1.2143073913,-0.0396907318,-3.8218692144,12.6684,-5.5052,16.3966,-0.11667,0.05466,0.08265,0.0019,0.00182,0.002,0.00145,0.00155,0.0014,0.036,0.0385,0.0405,passive,2
0.4205,rehab,danger_fast_jerk,140.7831403248,-666.4882676021,171.5771178921,-177.3836745015,0.1404084449,-149.9824226897,166.1773,-7.1202,-429.8748,4080.0797,-77.6709,-10402.8831,75.3307229245,25.5231981562,79.7881299248,-18.7281799819,-89.1820690596,-43.3254612689,-16.4810847858,-9.0087216538,-14.0843639053,23.657560097,1.6049298333,-16.9379771386,15.0061,-6.0334,19.2903,-0.13767,0.06887,0.09816,0.0019,0.00182,0.002,0.00145,0.00155,0.0014,0.036,0.0385,0.0405,passive,2
0.4405,rehab,danger_fast_jerk,147.4975072097,-666.6724330798,154.455687226,-177.3821689287,0.1380514796,-149.9758063811,172.3072,-9.6374,-445.4725,-4033.607,-21.8371,10327.1755,74.507354901,25.1178951866,79.2123162787,-17.7899406748,-89.1518231238,-43.8955018834,-22.7846544705,-11.3189521381,-15.1922164543,22.5163475325,-0.4544850639,-16.5795087989,16.3709,-6.4657,18.8352,-0.1313,0.06406,0.10318,0.0019,0.00182,0.002,0.00145,0.00155,0.0014,0.036,0.0385,0.0405,passive,2
0.4605,rehab,danger_fast_jerk,147.6754290789,-666.8737651594,153.7582174031,-177.3828690586,0.1398567101,-149.9796934141,4.833,-7.9937,-16.7877,-4361.4203,58.3671,11441.8646,74.4193367457,25.0704400707,79.1804412666,-17.8275260806,-89.2002484622,-43.9886416208,-3.334501896,-2.4138333248,-1.687558791,-2.9180178058,-1.3319834582,-3.3637454391,13.417,-5.2397,14.4531,-0.11078,0.04457,0.08592,0.0019,0.00182,0.002,0.00145,0.00155,0.0014,0.036,0.0385,0.0405,passive,2
0.4805,rehab,danger_fast_jerk,147.6908281309,-666.9921816025,153.7841776287,-177.3806546399,0.1388997556,-149.9772026025,-2.1496,-7.3028,12.2021,-265.2568,19.5729,1071.4515,74.3739748252,25.0213418536,79.144813927,-17.906661387,-89.2051024621,-44.0300517009,-0.8891789194,-0.5021769527,-0.1191868242,-0.9931835527,-1.4772400281,-2.2632860925,20.6645,-5.4942,-3.6109,-0.03792,-0.09543,0.11906,0.0019,0.00182,0.002,0.00145,0.00155,0.0014,0.036,0.0385,0.0405,passive,2
0.5005,rehab,danger_fast_jerk,147.5894453173,-667.1658752933,154.2463003521,-177.3809299071,0.1412291532,-149.972295314,-5.7772,-7.2108,26.0703,-370.5581,-23.7169,300.7462,74.3837695889,25.0503529926,79.1756737936,-17.8672534227,-89.2593380633,-44.0791730645,1.6732794092,1.3811341625,2.2550811458,-0.7955673575,-0.4656026309,1.6836265511,20.3078,-5.4258,-3.7429,-0.04547,-0.09058,0.12241,0.0019,0.00182,0.002,0.00145,0.00155,0.0014,0.036,0.0385,0.0405,passive,2
0.5205,rehab,danger_fast_jerk,147.459738144,-667.2806135126,154.8269905013,-177.3881278208,0.1421152276,-149.9722276771,-16.9719,-8.2514,24.2319,24.5776,-18.3429,-519.1535,74.4409060015,25.0765872201,79.2350171728,-17.9384840813,-89.2237265674,-43.9627066389,2.1196288853,-0.5130815677,3.7137713796,-1.4033690203,2.0236179734,3.879091379,18.5793,-4.8244,-2.8286,-0.03478,-0.0754,0.1112,0.0019,0.00182,0.002,0.00145,0.00155,0.0014,0.036,0.0385,0.0405,passive,2
0.5405,rehab,danger_fast_jerk,146.910568644,-667.4959325001,155.2155772242,-177.3834848043,0.1386257832,-149.9831963033,-4.7941,-7.9445,5.3042,670.5692,79.5479,-626.1908,74.4685547444,25.0298297299,79.3242246488,-17.9233881835,-89.1783933444,-43.9240094094,-0.4356093771,-0.8357206391,2.1455969038,-1.4635064437,0.4998437776,1.5122413567,20.6606,-4.9121,-3.4557,-0.04107,-0.08274,0.12592,0.0019,0.00182,0.002,0.00145,0.00155,0.0014,0.036,0.0385,0.0405,passive,2
0.5605,rehab,danger_fast_jerk,147.2679722465,-667.5983940651,155.039157841,-177.3869377543,0.1372191903,-149.9804590624,9.8509,-5.0695,-0.8157,250.527,90.3161,-500.2426,74.4234816265,25.0431583945,79.320841049,-17.9970243391,-89.2037328163,-43.9022169846,0.3779703005,1.5125010656,-2.4562872803,-0.9087546958,-1.6929954244,-1.1190116955,13.1105,-5.556,14.8168,-0.11301,0.04116,0.08084,0.0019,0.00182,0.002,0.00145,0.00155,0.0014,0.036,0.0385,0.0405,passive,2
0.5805,rehab,danger_fast_jerk,147.3046027558,-667.6987131213,155.1829487617,-177.3863046556,0.1423335381,-149.9684788068,5.2269,-4.3319,-14.7055,-8407.8801,47.9353,19010.1252,74.4836735564,25.0903297725,79.2259731576,-17.9597383713,-89.2461131613,-43.9687698772,1.403570734,-0.5814088754,-2.3067035279,2.7565296922,0.2456208345,-0.702402419,14.1926,-5.2374,15.3476,-0.11232,0.04639,0.09005,0.0019,0.00182,0.002,0.00145,0.00155,0.0014,0.036,0.0385,0.0405,passive,2
0.6005,rehab,danger_fast_jerk,147.4770495209,-667.7716688379,154.4509369919,-177.3852106419,0.1356722219,-149.9790514761,-326.4644,-3.1521,759.5893,-7829.3336,12.5505,19104.8655,74.4796244558,25.0199020395,79.2285729079,-17.8867631514,-89.1939079829,-43.9303130814,35.2277506479,19.2843501164,26.3545435747,-40.9754535026,-0.9122725545,32.2590687754,24.5934,-6.6276,-4.0519,-0.04319,-0.09115,0.15224,0.0019,0.00182,0.002,0.00145,0.00155,0.0014,0.036,0.0385,0.0405,passive,2
0.6205,rehab,danger_fast_jerk,134.2460286667,-667.8247972228,185.566520609,-177.3734432071,0.1406397048,-149.9720950835,-307.9464,-3.8299,749.4891,9169.5632,-41.108,-20848.9165,75.8927835823,25.8617037771,80.2801549006,-19.5987565114,-89.2826040635,-42.6784071262,34.0701248007,19.7729849906,23.8304197273,-38.9597798068,-0.3810033499,30.6153866265,23.7195,-6.3927,-1.3929,-0.0534,-0.08182,0.1425,0.0019,0.00182,0.002,0.00145,0.00155,0.0014,0.036,0.0385,0.0405,passive,2
0.6405,rehab,danger_fast_jerk,135.1591930902,-667.9248628638,184.4305009576,-177.3760131894,0.1365075151,-149.9692464603,40.3182,-4.7964,-74.3674,8997.6138,24.315,-21651.7641,75.8424294478,25.8108214391,80.181789697,-19.4451543436,-89.2091481169,-42.7056976163,-0.4539385984,-3.5191709095,-5.9846687692,4.7316122939,0.9208572531,-3.5427617692,12.6393,-5.2639,17.3993,-0.11876,0.08011,0.08743,0.0019,0.00182,0.002,0.00145,0.00155,0.0014,0.036,0.0385,0.0405,passive,2
0.6605,rehab,danger_fast_jerk,135.8587556574,-668.0166540632,182.5918260108,-177.3862399577,0.1362206368,-149.9727695947,51.9581,-2.8573,-116.5815,737.1111,116.6834,-1927.7018,75.8746260384,25.7209369408,80.0407681498,-19.4094920197,-89.2457697734,-42.820117597,-3.8666616335,-4.1152569427,-4.5034398945,6.6740986471,0.9960132049,-5.0685181949,11.9006,-5.2841,17.2182,-0.12388,0.06771,0.07518,0.0019,0.00182,0.002,0.00145,0.00155,0.0014,0.036,0.0385,0.0405,passive,2
0.6805,rehab,danger_fast_jerk,137.2375187991,-668.0391529104,179.7672422874,-177.3775215094,0.1443833202,-149.9697122455,69.8026,-0.1291,-151.4754,708.5773,104.8157,-1558.338,75.6877629825,25.6462111614,80.0016521012,-19.1781903978,-89.1693075887,-42.9084383441,-10.5744671518,-2.7522464693,-3.6823564451,9.2911356561,2.0773964093,-3.5060853483,12.9708,-5.3312,16.8853,-0.12585,0.06165,0.08742,0.0019,0.00182,0.002,0.00145,0.00155,0.0014,0.036,0.0385,0.0405,passive,2
0.7005,rehab,danger_fast_jerk,138.6508604387,-668.0218174308,176.5328085932,-177.3772576575,0.1368648529,-149.9739150087,80.3012,1.3354,-178.915,313.0047,48.7548,-1404.5555,75.4516473523,25.610847082,79.893473892,-19.0378465934,-89.162673917,-42.9603610109,-9.7209557397,-2.9980890173,-4.640588913,10.0289435917,-1.3263606302,-7.2645785877,13.4048,-5.5269,17.9053,-0.14011,0.06266,0.08435,0.0019,0.00182,0.002,0.00145,0.00155,0.0014,0.036,0.0385,0.0405,passive,2
0.7205,rehab,danger_fast_jerk,140.4495682322,-667.9857378296,172.6106428665,-177.3807729074,0.1373899702,-149.9751614582,82.3228,1.8211,-207.6577,154.6764,-51.6904,-799.5968,75.2989247529,25.5262876007,79.8160285447,-18.7770326541,-89.2223620139,-43.1990214876,-7.9084125346,-7.3975987213,-5.5285803353,12.0345697326,-0.1806933472,-12.1468306829,13.981,-5.2372,17.3889,-0.12053,0.06306,0.08514,0.0019,0.00182,0.002,0.00145,0.00155,0.0014,0.036,0.0385,0.0405,passive,2
0.7405,rehab,danger_fast_jerk,141.943772701,-667.9489731707,168.226502421,-177.3819674947,0.1343691265,-149.9754712767,86.4883,-0.7322,-210.8989,99.2207,-49.6037,101.1525,75.1353108509,25.3149431331,79.6723306786,-18.5564638041,-89.1699016509,-43.4462342382,-8.7944589506,-6.2225933016,-7.490700762,7.1764033656,-0.0736854943,-9.1316967213,14.1558,-5.9541,17.5965,-0.13685,0.0596,0.10145,0.0019,0.00182,0.002,0.00145,0.00155,0.0014,0.036,0.0385,0.0405,passive,2
0.7605,rehab,danger_fast_jerk,143.9090998923,-668.0150273188,164.1746885082,-177.3782321433,0.1418128159,-149.9682207393,86.2916,-0.163,-203.6116,-261.6944,114.6662,359.1377,74.9471463949,25.2773838686,79.5164005142,-18.4899765195,-89.2253094337,-43.5642893565,-11.4637516674,-5.1420860017,-7.0171772455,4.8034782159,-1.548786048,-9.5263468088,14.6801,-5.8717,17.3698,-0.12416,0.06066,0.09986,0.0019,0.00182,0.002,0.00145,0.00155,0.0014,0.036,0.0385,0.0405,passive,2
0.7805,rehab,danger_fast_jerk,145.3954380823,-667.9554947955,160.08204029,-177.3771492802,0.1397120408,-149.9725202256,76.0205,3.8544,-196.5333,4339.5072,134.9026,-15706.9705,74.6767607842,25.1092596931,79.3916435888,-18.3643246755,-89.2318530928,-43.8272881106,-9.1718812975,-2.860558211,-7.8319611331,11.0949192705,0.8159393464,-8.5259197332,15.1716,-5.3151,17.5524,-0.12233,0.06901,0.0988,0.0019,0.00182,0.002,0.00145,0.00155,0.0014,0.036,0.0385,0.0405,passive,2
0.8005,rehab,danger_fast_jerk,146.9499204572,-667.8608508847,156.3133545476,-177.3787267917,0.1402972061,-149.9726896713,259.8719,5.2331,-831.8904,3799.5164,-13.2317,-13754.6339,74.580271143,25.1629615402,79.2031220689,-18.0461797486,-89.1926718598,-43.9053261458,-36.9275873013,-19.964628904,-25.7149105425,44.848361766,3.0720621619,-34.3731634347,17.2777,-6.8165,19.4165,-0.13766,0.06152,0.11624,0.0019,0.00182,0.002,0.00145,0.00155,0.0014,0.036,0.0385,0.0405,passive,2
0.8205,rehab,danger_fast_jerk,155.7903149874,-667.7461722027,126.8064252869,-177.3761562628,0.1388207051,-149.972973849,228.0012,3.3251,-746.7187,-6607.1217,-43.5777,21174.8207,73.1996572921,24.3106745369,78.3630471671,-16.5703902048,-89.1089706064,-45.2022146479,-35.2583732446,-21.4011424498,-22.6162559142,37.7744545095,0.6663995634,-33.8968257291,19.802,-6.7934,18.2061,-0.14284,0.04794,0.12449,0.0019,0.00182,0.002,0.00145,0.00155,0.0014,0.036,0.0385,0.0405,passive,2
0.8405,rehab,danger_fast_jerk,156.069967206,-667.7278452044,126.4446063899,-177.38022821,0.138636379,-149.9683933645,-4.4129,3.49,15.1025,-6275.4549,81.2684,20668.8223,73.1699362132,24.3069158422,78.2984718323,-16.5352015683,-89.1660158773,-45.261199175,1.4547726595,0.2932635923,0.1658203953,0.2007402648,-1.7960612158,2.1718871541,21.999,-5.7393,-5.7989,-0.04379,-0.10013,0.12968,0.0019,0.00182,0.002,0.00145,0.00155,0.0014,0.036,0.0385,0.0405,passive,2
0.8605,rehab,danger_fast_jerk,155.6137971467,-667.6065739379,127.4105234585,-177.3762700361,0.1367335001,-149.9761912736,-23.017,6.5759,80.0342,-786.0847,87.5398,3378.5979,73.2578481985,24.3224050806,78.3696799829,-16.5623605943,-89.180813055,-45.1153391618,4.2479946118,2.878167141,3.2928997031,-5.7315993774,-2.142426122,4.6492956485,22.8318,-5.6604,-6.2413,-0.02516,-0.10343,0.13837,0.0019,0.00182,0.002,0.00145,0.00155,0.0014,0.036,0.0385,0.0405,passive,2
0.8805,rehab,danger_fast_jerk,155.1492861111,-667.4648101205,129.6459739878,-177.3759340109,0.1378451244,-149.9731366287,-35.8563,6.9915,150.2464,-1061.5048,-5.9797,3717.6666,73.3398559977,24.4220425278,78.4301878204,-16.7644655434,-89.2517129221,-45.075227349,6.0467232466,4.7904403628,6.0055630875,-7.0768763161,1.4104218491,4.3846959141,24.0882,-6.3498,-5.6335,-0.04323,-0.10614,0.14017,0.0019,0.00182,0.002,0.00145,0.00155,0.0014,0.036,0.0385,0.0405,passive,2
0.9005,rehab,danger_fast_jerk,154.1795437193,-667.3269120045,133.4203782975,-177.3705950469,0.136750264,-149.9746940984,-65.4772,6.3367,228.7409,-1421.4809,-39.0807,4003.372,73.4997171284,24.5140226951,78.6099025064,-16.8454356469,-89.124396181,-44.9399513252,12.8523454184,6.005529266,8.9896513486,-10.254046889,3.2136719213,9.6617958645,24.2841,6.1528,-5.8033,0.08174,-0.11405,0.09325,0.0019,0.00182,0.002,0.00145,0.00155,0.0014,0.036,0.0385,0.0405,passive,2
0.9205,rehab,danger_fast_jerk,152.5301972829,-667.2113426261,138.7956081511,-177.3769232469,0.1369533506,-149.9726063241,-92.7156,5.4283,310.3813,-1565.7001,21.5333,4114.5827,73.8539498144,24.6622636985,78.7897738744,-17.1746274189,-89.1231660453,-44.6887555145,13.6931245864,7.4381802909,7.0481587212,-17.0392348099,-0.283841375,14.0882290731,25.4025,6.5134,-5.31,0.07565,-0.10733,0.10734,0.0019,0.00182,0.002,0.00145,0.00155,0.0014,0.036,0.0385,0.0405,passive,2
0.9405,rehab,danger_fast_jerk,150.4709208645,-667.1097792181,145.835628314,-177.3765864462,0.1339165409,-149.9780151712,-128.1052,7.198,393.3242,-1967.0497,71.4645,4051.6419,74.0474421118,24.8115499067,78.8918288553,-17.5270050393,-89.135749836,-44.3764221623,15.8554924208,9.2301051157,8.555664136,-21.1823608765,0.525695874,15.2012505915,26.2258,6.017,-5.0916,0.06984,-0.10872,0.10708,0.0019,0.00182,0.002,0.00145,0.00155,0.0014,0.036,0.0385,0.0405,passive,2
0.9605,rehab,danger_fast_jerk,147.4059883583,-666.923421856,154.528574714,-177.3751194797,0.1354223217,-149.9829202583,-171.3976,8.2869,472.4469,-2181.4213,5.564,3692.665,74.4881695112,25.0314679031,79.1320004398,-18.021921854,-89.1021382103,-44.0807054908,23.6700261844,10.4066226617,15.7167571334,-26.4600464202,1.6384902697,18.9623632834,25.5263,6.2266,-4.055,0.0864,-0.09529,0.10801,0.0019,0.00182,0.002,0.00145,0.00155,0.0014,0.036,0.0385,0.0405,passive,2
0.9805,rehab,danger_fast_jerk,143.6150184435,-666.7783032826,164.7335053712,-177.3772063558,0.1352294564,-149.9759773308,-215.3621,7.4206,541.0308,-4119.3518,-7.4865,6315.3273,74.9942431592,25.2278148132,79.5204991406,-18.5854068961,-89.0702102252,-43.617927631,24.9857993048,12.2381227464,18.3983733007,-26.8388565252,-1.2927828179,24.1402485989,24.6041,6.6614,-3.0984,0.0653,-0.08477,0.08985,0.0019,0.00182,0.002,0.00145,0.00155,0.0014,0.036,0.0385,0.0405,passive,2
1.0005,rehab,danger_fast_jerk,138.7915053141,-666.626598678,176.1698053342,-177.3762098129,0.1347827341,-149.9681316494,-336.1716,7.9874,725.06,-4065.0702,-11.4303,4701.893,75.4876014834,25.520992813,79.8679353718,-19.095476115,-89.153849523,-43.1150955468,33.3012943634,21.1144425811,24.0344315466,-35.2284045319,-3.3621561488,32.8596025137,23.2876,6.3328,-2.0118,0.08322,-0.07888,0.08855,0.0019,0.00182,0.002,0.00145,0.00155,0.0014,0.036,0.0385,0.0405,passive,2
1.0205,rehab,danger_fast_jerk,130.1681531052,-666.4588057672,193.7359060608,-177.378403477,0.1356781322,-149.9752671319,-377.9649,6.9634,729.1065,-345.6971,-34.4593,-3131.6287,76.3262949338,26.0723925165,80.4818764025,-19.9945430774,-89.2046964712,-42.3035435304,36.8444737712,18.7985935946,24.0722387269,-39.5710413417,1.8959910132,30.864654018,23.5507,5.601,0.1428,0.05504,-0.06883,0.08899,0.0019,0.00182,0.002,0.00145,0.00155,0.0014,0.036,0.0385,0.0405,passive,2
1.0405,rehab,danger_fast_jerk,123.6729098964,-666.3480640492,205.3340647985,-177.3781311935,0.1370686295,-149.9672317198,-349.9995,6.6091,599.7949,-684.0794,10.849,-2552.028,76.9613804343,26.2729365568,80.8308249209,-20.6783177687,-89.0780098825,-41.8805093861,30.0602652405,13.9668221733,20.5994513681,-31.7245612779,2.4719249083,25.4476540024,23.3795,6.0228,0.8471,0.05144,-0.05562,0.0884,0.0019,0.00182,0.002,0.00145,0.00155,0.0014,0.036,0.0385,0.0405,passive,2
1.0605,rehab,danger_fast_jerk,116.1681723361,-666.1944431145,217.7277007608,-177.3831192421,0.1320109673,-149.9737924974,-405.3281,7.3973,627.0254,-2873.5658,-3.6771,700.0794,77.5287055434,26.6310654034,81.3058544572,-21.2635255285,-89.1058194749,-41.2856373703,32.1661855558,18.4423478328,23.8509885895,-34.9726691012,2.222165725,30.6048879957,21.5183,6.2381,1.6029,0.05408,-0.05014,0.07592,0.0019,0.00182,0.002,0.00145,0.00155,0.0014,0.036,0.0385,0.0405,passive,2
1.0805,rehab,danger_fast_jerk,107.4597874456,-666.0521709797,230.4150795291,-177.3832569831,0.1327053829,-149.9770265562,-464.9422,6.462,627.798,-2736.6665,27.5103,-185.8401,78.2480278565,27.0106304701,81.7848644645,-22.0772245327,-88.9891232535,-40.6563138663,34.4382590421,17.530746216,22.7814679322,-37.3296659106,0.5632165309,32.9613780812,21.4905,5.3862,2.5204,0.03466,-0.04862,0.10145,0.0019,0.00182,0.002,0.00145,0.00155,0.0014,0.036,0.0385,0.0405,passive,2
1.1005,rehab,danger_fast_jerk,97.5704862607,-665.9359638375,242.8396225478,-177.3780803391,0.1287869137,-149.9716280179,-514.7947,8.4977,619.5918,-1917.277,9.6735,-592.3378,78.9062359051,27.332295252,82.2171131745,-22.7567121649,-89.0832908136,-39.9671822471,35.9395932123,17.774860166,24.0061573427,-39.5895071354,-1.4740610132,31.8869315207,20.2275,5.6172,3.854,0.03609,-0.02472,0.07611,0.0019,0.00182,0.002,0.00145,0.00155,0.0014,0.036,0.0385,0.0405,passive,2
1.1205,rehab,danger_fast_jerk,86.8679986719,-665.7122614159,255.1987500281,-177.3803298907,0.1331312294,-149.9705980982,-541.6332,6.8489,604.1045,-1359.9475,-116.1105,-1208.848,79.685611585,27.7216248767,82.7451107582,-23.6608048181,-89.048085694,-39.3808366055,37.9597843854,18.3756550142,26.5834206339,-40.2761686952,3.0408566134,29.7961702116,18.7571,5.0126,4.0735,0.02692,-0.03111,0.08666,0.0019,0.00182,0.002,0.00145,0.00155,0.0014,0.036,0.0385,0.0405,passive,2
1.1405,rehab,danger_fast_jerk,75.9051569826,-665.6620069465,267.0038037881,-177.3772217626,0.1373005233,-149.9717808282,-569.1926,3.8533,571.2378,-1321.5796,-74.8822,-2103.5759,80.4246272805,28.0673214526,83.2804499998,-24.3677589127,-88.9616565491,-38.7753354386,35.0118259725,18.9309402743,25.1514190418,-37.3532615206,1.4877898026,30.8641539646,18.8333,4.603,5.193,0.01952,-0.0166,0.07366,0.0019,0.00182,0.002,0.00145,0.00155,0.0014,0.036,0.0385,0.0405,passive,2
1.1605,rehab,danger_fast_jerk,64.1002939113,-665.5581286591,278.04826374,-177.3793522032,0.1320305892,-149.9795724824,-594.4964,3.8536,519.9615,-182.2505,30.8746,-2894.576,81.0860846239,28.4788624877,83.7511675199,-25.1549352789,-88.9885741019,-38.1462704469,31.544247892,19.8696383912,22.827856478,-37.6370654474,-1.3827592995,33.8075481122,17.9938,5.1448,6.7625,0.02759,-0.02228,0.076,0.0019,0.00182,0.002,0.00145,0.00155,0.0014,0.036,0.0385,0.0405,passive,2
1.1805,rehab,danger_fast_jerk,52.1253003919,-665.5078616147,287.8022635177,-177.3840327305,0.1312861567,-149.9684495623,-576.4826,5.0883,455.4548,1201.851,21.9719,-3129.8064,81.6863971962,28.8621069882,84.1935642589,-25.8732415306,-89.0169669211,-37.4230335141,31.1504423708,16.8250991602,21.3045322569,-32.8012442437,1.3069272111,27.8608840052,18.4759,4.9818,7.7724,0.01705,-0.01838,0.06842,0.0019,0.00182,0.002,0.00145,0.00155,0.0014,0.036,0.0385,0.0405,passive,2
1.2005,rehab,danger_fast_jerk,41.0409883653,-665.3545965882,296.2664558227,-177.3745164512,0.132046801,-149.9782411898,-546.4224,4.7325,394.7692,1706.3116,-80.9907,-3116.9904,82.3321023187,29.1518664541,84.6033488102,-26.4669850487,-88.9362970135,-37.0318350867,30.7640465532,13.8960262141,18.7863247674,-35.2506496729,2.0393334224,20.6948540953,19.3353,5.6564,8.9921,0.01808,-0.00395,0.07048,0.0019,0.00182,0.002,0.00145,0.00155,0.0014,0.036,0.0385,0.0405,passive,2
1.2205,rehab,danger_fast_jerk,30.2684054476,-665.3185612605,303.5930330596,-177.3778444568,0.1363855367,-149.9772724532,-508.2302,1.8487,330.7752,2523.1658,-97.1878,-3004.471,82.9169590583,29.4179480368,84.9450172496,-27.2832675175,-88.9353935842,-36.5952393503,25.8111488516,13.2166616888,17.7753662287,-29.8548040823,1.7156480242,26.9920559827,20.0501,6.1962,9.9076,0.0123,-0.01528,0.0699,0.0019,0.00182,0.002,0.00145,0.00155,0.0014,0.036,0.0385,0.0405,passive,2
1.2405,rehab,danger_fast_jerk,20.7117813751,-665.2806495817,309.4974632482,-177.3762992894,0.1339778348,-149.9697135851,-445.4957,0.845,274.5904,3281.9725,-26.3002,-2563.8213,83.3645482728,29.6805329216,85.3143634593,-27.661177212,-88.8676710925,-35.9521528474,23.722885165,12.2332379334,16.7607855591,-23.0318854173,1.6740982689,23.8901406391,19.4935,5.8444,11.423,0.0113,0.012,0.0837,0.0019,0.00182,0.002,0.00145,0.00155,0.0014,0.036,0.0385,0.0405,passive,2
1.2605,rehab,danger_fast_jerk,12.4485757564,-665.2847613958,314.5766490731,-177.3784562863,0.1334613181,-149.9727439757,-376.9513,0.7967,228.2223,3081.8886,-23.6111,-2747.1292,83.8658744649,29.9072775541,85.615448672,-28.2045429342,-88.8684296534,-35.6396337247,20.8072366577,10.7344529655,15.6161246054,-23.9344789481,-0.2454533866,15.2310202237,19.8912,6.4488,12.588,0.01863,0.01706,0.06896,0.0019,0.00182,0.002,0.00145,0.00155,0.0014,0.036,0.0385,0.0405,passive,2
1.2805,rehab,danger_fast_jerk,5.6337304489,-665.2487828922,318.6263565909,-177.3813315042,0.132387628,-149.9758695366,-322.2202,-0.0994,164.7052,3155.2656,9.2993,-2784.9747,84.1968377391,30.1099110403,85.9390084435,-28.6185563699,-88.877489228,-35.3429120384,16.8864220828,7.7787721855,12.9126688521,-13.2718001862,-0.9619549748,14.5006345586,21.0348,6.2701,13.3767,0.01332,0.00884,0.0794,0.0019,0.00182,0.002,0.00145,0.00155,0.0014,0.036,0.0385,0.0405,passive,2
1.3005,rehab,danger_fast_jerk,-0.4402321642,-665.2887392408,321.1648584085,-177.3780116822,0.1316854266,-149.9708996019,-250.7406,1.1686,116.8233,3831.232,-11.9918,-1910.4791,84.5413313482,30.2184284416,86.1319554261,-28.7354149417,-88.9069078524,-35.0596083424,12.3139873648,4.5979963062,6.8976720239,-10.9958201845,-1.3004974267,10.0336662249,18.9831,6.0545,13.2216,0.00064,0.02588,0.07639,0.0019,0.00182,0.002,0.00145,0.00155,0.0014,0.036,0.0385,0.0405,passive,2
1.3205,rehab,danger_fast_jerk,-4.3958954943,-665.2020372607,323.2992904447,-177.3755282778,0.1266188321,-149.9739345372,-168.9709,-0.5791,88.2861,3587.2971,-143.8089,-1657.3442,84.6893972337,30.2938308925,86.2149153245,-29.0583891773,-88.9295091251,-34.9415653894,5.6067488128,4.505631936,1.7207789848,-12.050898966,0.6434822281,6.4683950701,18.8696,5.5324,13.2481,0.00378,0.02107,0.08341,0.0019,0.00182,0.002,0.00145,0.00155,0.0014,0.036,0.0385,0.0405,passive,2
1.3405,rehab,danger_fast_jerk,-7.1990688243,-665.3119039564,324.696301236,-177.3710341628,0.1305958846,-149.9769570543,-107.2488,-4.5837,50.5296,3053.0304,-74.3467,-1630.2185,84.7656013007,30.398653719,86.2007865855,-29.2174509003,-88.8811685633,-34.8008725396,5.0573139489,4.9053030849,1.4198382952,-4.423473166,3.5281540335,4.6490992079,17.4809,5.2812,12.6804,0.00131,0.02118,0.05928,0.0019,0.00182,0.002,0.00145,0.00155,0.0014,0.036,0.0385,0.0405,passive,2
1.3605,rehab,danger_fast_jerk,-8.6858461172,-665.3853858863,325.3204735992,-177.3792060462,0.1319483765,-149.9748902841,-46.8497,-3.553,23.0773,-7974.7953,102.3683,3320.6578,84.8916897917,30.4900430159,86.2717088563,-29.2353281039,-88.7883829637,-34.7556014211,5.401122257,4.4324991999,1.6331285135,-1.659985302,-0.5644339473,1.3464982847,15.4395,4.9268,11.49,0.00211,0.02027,0.0616,0.0019,0.00182,0.002,0.00145,0.00155,0.0014,0.036,0.0385,0.0405,passive,2
1.3805,rehab,danger_fast_jerk,-9.0730568165,-665.4540233318,325.6193943956,-177.3762591413,0.1340598792,-149.9729138387,-426.2406,-0.489,183.3559,-9800.1469,25.0674,3914.4211,84.981646191,30.575953687,86.266111726,-29.2838503124,-88.9037459212,-34.7470126082,20.5652369153,10.7117202578,17.2677032743,-21.5930391559,-0.8895568349,18.3691024844,20.2946,6.4978,14.9891,0.00449,0.03088,0.07015,0.0019,0.00182,0.002,0.00145,0.00155,0.0014,0.036,0.0385,0.0405,passive,2
1.4005,rehab,danger_fast_jerk,-25.7354691671,-665.4049453092,332.6547093004,-177.3818192599,0.1304440913,-149.9695142185,-438.8556,-2.5503,179.6542,10011.6725,-201.6334,-4447.4857,85.7142992683,30.9185118262,86.9624169873,-30.0990496702,-88.8239652371,-34.0208373217,17.5051578625,8.9342727024,16.9596307356,-22.0566839145,3.3348137879,18.898878236,19.6512,6.1255,16.7116,-0.01248,0.04119,0.07961,0.0019,0.00182,0.002,0.00145,0.00155,0.0014,0.036,0.0385,0.0405,passive,2
1.4205,rehab,danger_fast_jerk,-26.6272798572,-665.5560349172,332.8055612677,-177.3774796304,0.1274083655,-149.9745893238,-25.7737,-8.5543,5.4565,11136.6052,-98.6797,-4597.2471,85.6818525055,30.9333245951,86.9444969554,-30.166117669,-88.7703533697,-33.9910574788,-2.3366940895,1.4835645163,-0.8483012096,-4.3215773637,0.01023539,1.5213180189,16.42,5.0499,13.6507,-0.00565,0.02641,0.06379,0.0019,0.00182,0.002,0.00145,0.00155,0.0014,0.036,0.0385,0.0405,passive,2
1.4405,rehab,danger_fast_jerk,-26.7664162568,-665.7471181356,332.8729679183,-177.3771262439,0.1301899645,-149.9726006969,6.6086,-6.4975,-4.2357,1234.5681,77.4075,-264.4646,85.6208315047,30.9778544069,86.9284849389,-30.2719127647,-88.8235558215,-33.959984601,1.0693168907,-1.4276897272,-1.3960557959,-0.7018584783,-2.0424068848,0.089125861,-3.0265,5.4319,20.6482,-0.02606,0.13056,-0.02339,0.0019,0.00182,0.002,0.00145,0.00155,0.0014,0.036,0.0385,0.0405,passive,2
1.4605,rehab,danger_fast_jerk,-26.3629346298,-665.8159340852,332.636132827,-177.3773463798,0.1290985183,-149.9763757535,23.609,-5.458,-5.1221,439.6322,-1.7775,43.3445,85.7246251811,30.876217006,86.8886547236,-30.1941920081,-88.852049645,-33.9874924443,2.6633130575,-1.202394104,-1.8530315771,2.3987193776,0.3673168117,-2.0545708071,-3.0675,5.3716,20.5806,-0.02543,0.14076,-0.02741,0.0019,0.00182,0.002,0.00145,0.00155,0.0014,0.036,0.0385,0.0405,passive,2
1.4805,rehab,danger_fast_jerk,-25.8220544358,-665.9654388977,332.6680831415,-177.3744614259,0.1270755616,-149.9766215981,24.1939,-6.5686,-2.5019,-133.3797,-59.7807,-137.5561,85.727364027,30.9297586427,86.8543636758,-30.1759639896,-88.808863149,-34.0421674333,0.2181493914,0.6272749297,-1.8963139762,0.651610981,3.0715558408,-0.3025466489,-2.4393,5.2344,20.4582,-0.03155,0.13246,-0.03561,0.0019,0.00182,0.002,0.00145,0.00155,0.0014,0.036,0.0385,0.0405,passive,2
1.5005,rehab,danger_fast_jerk,-25.3951778158,-666.078677253,332.5360555924,-177.3755092267,0.1317214717,-149.9805407612,18.2739,-7.8492,-10.6244,-415.3597,-65.3012,41.275,85.7333511568,30.9013080032,86.8128021646,-30.1681275689,-88.7291874114,-33.9995943103,-3.3624470162,-1.2714809751,-0.727134704,1.9276056206,-1.5449572694,0.0176929511,-2.3479,5.2352,20.056,-0.02715,0.12888,-0.03274,0.0019,0.00182,0.002,0.00145,0.00155,0.0014,0.036,0.0385,0.0405,passive,2
1.5205,rehab,danger_fast_jerk,-25.0911000905,-666.2794087826,332.243108609,-177.3795350617,0.1273080749,-149.9779731743,7.5795,-9.1806,-0.8509,-728.4832,72.8769,485.4136,85.5928661463,30.8788994037,86.8252782876,-30.0988597648,-88.8706614398,-34.0414597152,-1.5357658359,-0.8040613999,0.8350618777,0.3988536789,-0.3429938969,-0.6111576724,-3.1262,5.0424,20.6002,-0.03858,0.12957,-0.04016,0.0019,0.00182,0.002,0.00145,0.00155,0.0014,0.036,0.0385,0.0405,passive,2
1.5405,rehab,danger_fast_jerk,-25.0919964955,-666.4459022788,332.5020183579,-177.3770628232,0.1260777311,-149.977359932,-10.8655,-4.9342,8.7922,-1147.3424,68.3687,195.7257,85.6719205233,30.8691455472,86.8462046397,-30.1521734217,-88.7429071673,-34.0240406172,0.3048772921,1.9616477182,1.9532580224,-1.3169790901,3.203923611,-1.6079699519,16.3048,5.8064,13.5668,0.00609,0.03453,0.06011,0.0019,0.00182,0.002,0.00145,0.00155,0.0014,0.036,0.0385,0.0405,passive,2
1.5605,rehab,danger_fast_jerk,-25.5257188612,-666.4767755603,332.5947958486,-177.3773173987,0.128826703,-149.9815706884,-38.3142,-6.4459,6.9781,18811.1022,-145.5271,-8735.3442,85.605061238,30.9573653124,86.9034086085,-30.1515389284,-88.7425044954,-34.1057785133,2.7516433964,0.522306035,0.354516342,1.7196241948,-0.4694072212,-0.2208680055,15.7466,5.3049,13.3951,-0.0043,0.02965,0.05281,0.0019,0.00182,0.002,0.00145,0.00155,0.0014,0.036,0.0385,0.0405,passive,2
1.5805,rehab,danger_fast_jerk,-26.6245629492,-666.7037373276,332.7811422439,-177.3806190148,0.1284330544,-149.9775852657,741.5786,-10.7553,-340.6216,19255.1448,-31.616,-8099.2989,85.7819862592,30.8900377886,86.8603852933,-30.0833884539,-88.7616834561,-34.0328753374,-33.6349793955,-20.2086417344,-27.0823157527,39.1090318423,-0.5643196558,-32.8051424716,-3.4598,6.8682,25.3513,-0.03391,0.16977,-0.04076,0.0019,0.00182,0.002,0.00145,0.00155,0.0014,0.036,0.0385,0.0405,passive,2
1.6005,rehab,danger_fast_jerk,4.1374258388,-666.906985678,318.969932334,-177.3846538604,0.127337153,-149.981776817,731.8916,-7.7105,-316.9939,-21022.2905,131.3001,9925.446,84.2596620622,30.1490196431,85.8201159784,-28.5871776547,-88.7650772816,-35.4179842122,-35.995035396,-17.9745453595,-23.7603122268,34.1592824066,-0.8654866643,-31.0647186428,-0.7575,6.4709,23.7812,-0.02498,0.14586,-0.02984,0.0019,0.00182,0.002,0.00145,0.00155,0.0014,0.036,0.0385,0.0405,passive,2
1.6205,rehab,danger_fast_jerk,2.6511023399,-667.0121579785,320.1013878752,-177.3784275502,0.1283574863,-149.9731969146,-99.313,-5.5032,56.3963,-21660.6696,-39.9805,9335.7793,84.3421848433,30.1710559742,85.9099728043,-28.7170171577,-88.7963029227,-35.2754640831,3.946047971,2.0818899101,1.7398486614,-4.3128877837,1.1424394619,7.4001601165,17.9674,5.5553,12.0135,0.00077,0.02034,0.06795,0.0019,0.00182,0.002,0.00145,0.00155,0.0014,0.036,0.0385,0.0405,passive,2
1.6405,rehab,danger_fast_jerk,0.1649057229,-667.1271156377,321.2257823733,-177.3818436089,0.1298095549,-149.9801253678,-134.5352,-9.3097,56.4373,-1727.7614,-63.0229,431.9427,84.4175039811,30.2322952395,85.8897099249,-28.759693166,-88.7193797031,-35.1219778075,6.0405078542,4.7159569042,5.3042499846,-4.8716042757,0.1003672504,6.8762275865,16.9442,-5.1657,11.4438,-0.10871,0.02327,0.10077,0.0019,0.00182,0.002,0.00145,0.00155,0.0014,0.036,0.0385,0.0405,passive,2
1.6605,rehab,danger_fast_jerk,-2.730303799,-667.3845474568,322.3588803676,-177.3805533357,0.126102458,-149.9780540341,-168.4235,-8.0242,73.674,-1518.4627,125.8808,1010.7274,84.5838051575,30.3596942504,86.1221428037,-28.9118813287,-88.7922882327,-35.0004149797,8.7261226856,5.1277655064,5.0940823423,-9.4231183914,-1.5292378723,6.8364977416,17.7933,-5.7764,12.6834,-0.11747,0.02034,0.10644,0.0019,0.00182,0.002,0.00145,0.00155,0.0014,0.036,0.0385,0.0405,passive,2
1.6805,rehab,danger_fast_jerk,-6.5720326973,-667.4480822041,324.1727407434,-177.3824223557,0.128234079,-149.9830090608,-195.2737,-4.2745,96.8664,-881.7757,52.2334,544.3681,84.7665488885,30.4374058597,86.0934732186,-29.1366179017,-88.780549218,-34.8485178978,9.6699992975,3.7251328723,4.4570267973,-9.2937367828,-0.5993067783,6.1287489124,19.1921,-6.059,13.505,-0.1135,0.03248,0.12145,0.0019,0.00182,0.002,0.00145,0.00155,0.0014,0.036,0.0385,0.0405,passive,2
1.7005,rehab,danger_fast_jerk,-10.5412503364,-667.5555276531,326.2335366203,-177.3801566972,0.1245333728,-149.9831413974,-203.6945,-5.9348,95.4487,-251.2159,-51.5527,-235.7435,84.9706051294,30.5086995653,86.3004238755,-29.2836308,-88.8162605038,-34.7552650232,10.3677826783,5.3536831258,9.3946678496,-9.1334912563,-0.4251675423,9.3040820367,19.537,-6.4004,14.5686,-0.11357,0.02726,0.12354,0.0019,0.00182,0.002,0.00145,0.00155,0.0014,0.036,0.0385,0.0405,passive,2
1.7205,rehab,danger_fast_jerk,-14.7198122719,-667.6854753803,327.9906881417,-177.3807656079,0.1287366038,-149.9837101674,-205.3223,-6.3366,87.4367,87.4073,72.8034,-160.1855,85.1812601956,30.6515531847,86.4692599325,-29.501957552,-88.7975559197,-34.4763546164,7.2568820832,6.7582125408,5.7512512617,-11.6464106402,2.5264391255,12.1568216037,19.218,-6.6259,15.0424,-0.1352,0.03129,0.1195,0.0019,0.00182,0.002,0.00145,0.00155,0.0014,0.036,0.0385,0.0405,passive,2
1.7405,rehab,danger_fast_jerk,-18.7541422415,-667.8089922112,329.7310033017,-177.3744592262,0.1276874431,-149.9863467536,-200.1982,-3.0227,89.0413,-16309.2632,117.9112,5320.9885,85.2608804127,30.7790280669,86.530473926,-29.7494872256,-88.7152029388,-34.268992159,6.8170374285,4.2684511763,5.378530365,-10.675703109,-0.9735144595,8.3241932627,19.0922,-6.0327,15.6285,-0.12237,0.03114,0.11973,0.0019,0.00182,0.002,0.00145,0.00155,0.0014,0.036,0.0385,0.0405,passive,2
1.7605,rehab,danger_fast_jerk,-22.7277401743,-667.8063830877,331.5523387744,-177.3811576965,0.1253729068,-149.9805101044,-857.6928,-1.6202,300.2762,-14405.9258,-9.7997,4182.2203,85.4539416927,30.8222912318,86.6844011471,-29.9289856763,-88.8364964981,-34.1433868859,40.6912313437,18.0035835174,29.6557918257,-43.8689694364,-0.7880074614,34.9163422074,20.0948,-6.7571,15.9035,-0.12764,0.03021,0.12553,0.0019,0.00182,0.002,0.00145,0.00155,0.0014,0.036,0.0385,0.0405,passive,2
1.7805,rehab,danger_fast_jerk,-53.0618553012,-667.8737988362,341.7420516567,-177.3813506071,0.1232182629,-149.9829243247,-776.4352,-3.4147,256.3301,21323.9728,-26.466,-7492.4243,86.8885296665,31.4991714076,87.716705599,-31.5042460031,-88.7467232373,-32.8723384707,37.0905949663,17.863264357,26.7951129872,-39.5607469228,-0.3654491256,33.0067402165,19.8616,-7.278,19.9994,-0.15123,0.06444,0.13235,0.0019,0.00182,0.002,0.00145,0.00155,0.0014,0.036,0.0385,0.0405,passive,2
1.8005,rehab,danger_fast_jerk,-53.7851493514,-667.9429703103,341.8055418108,-177.376105414,0.1263986867,-149.9819228729,-4.7339,-2.6788,0.5792,20558.2253,31.3277,-6705.4242,86.9375654914,31.5368218061,87.7562056666,-31.5114155532,-88.8511144631,-32.8231172772,0.3474609192,0.9623661613,-2.1854029597,1.6393734833,-0.1413570565,-0.3585843673,15.3266,-5.6799,16.07,-0.12144,0.05582,0.09803,0.0019,0.00182,0.002,0.00145,0.00155,0.0014,0.036,0.0385,0.0405,passive,2
1.8205,rehab,danger_fast_jerk,-53.2512118655,-667.9809510019,341.7652211744,-177.3809211892,0.1238612061,-149.9778598997,45.8938,-2.1616,-11.8869,2944.8511,6.8714,-892.5953,86.9024281033,31.5376660541,87.6292894807,-31.4386710637,-88.7523775195,-32.8866818454,-1.6293131814,-0.3609974826,-2.6124666371,2.5730082088,-0.1872358086,-3.3222451988,-5.0594,-5.824,22.3442,-0.14648,0.13877,-0.00135,0.0019,0.00182,0.002,0.00145,0.00155,0.0014,0.036,0.0385,0.0405,passive,2
1.8405,rehab,danger_fast_jerk,-51.949398032,-668.029433224,341.330066172,-177.3813210737,0.1249823121,-149.9843886077,113.0601,-2.4039,-35.1246,4032.8721,60.5019,-1207.3967,86.8723929641,31.5223819068,87.6517070012,-31.4084952249,-88.8586038955,-32.9560070851,-5.8965595297,-0.9082463737,-2.2341684243,6.3560546972,-1.3283884244,-6.6119639703,-5.9621,-6.4987,24.5175,-0.16548,0.16547,0.01293,0.0019,0.00182,0.002,0.00145,0.00155,0.0014,0.036,0.0385,0.0405,passive,2
1.8605,rehab,danger_fast_jerk,-48.7288067427,-668.0771088505,340.3602382071,-177.3817188682,0.1291050452,-149.9874825263,207.2087,0.2585,-60.1828,4372.7309,131.3668,-1399.4207,86.6665657221,31.5013361991,87.5399227437,-31.1844288758,-88.8055130565,-33.1511604042,-9.112088473,-4.4455765229,-6.4126957818,11.0222644462,1.1856548971,-8.1870170874,-5.5897,-6.0095,24.792,-0.16061,0.1699,0.00538,0.0019,0.00182,0.002,0.00145,0.00155,0.0014,0.036,0.0385,0.0405,passive,2
1.8805,rehab,danger_fast_jerk,-43.6610513886,-668.0190931774,338.9227558293,-177.3795901627,0.1224632369,-149.985990093,287.9694,2.8507,-91.1014,3671.6845,13.4469,-1479.9826,86.5079094252,31.3445588459,87.3951991699,-30.967604647,-88.8111776996,-33.2834877686,-12.5846294625,-7.2286527039,-7.9528978789,12.2355042552,-1.0007668764,-9.7697512232,-5.4915,-7.1127,26.2401,-0.16918,0.18141,-0.00416,0.0019,0.00182,0.002,0.00145,0.00155,0.0014,0.036,0.0385,0.0405,passive,2
1.9005,rehab,danger_fast_jerk,-37.2100321986,-667.9630797406,336.7161821626,-177.3784840632,0.1274593894,-149.9816361978,354.076,0.7964,-119.3821,3690.3554,-45.2638,-1772.6452,86.1631805436,31.2121900909,87.2218068285,-30.6950087056,-88.8455437316,-33.5419504531,-16.6178753379,-7.3846704652,-15.3267149642,17.8259838831,0.2687644752,-15.136862056,-4.8675,-7.4449,27.7029,-0.19073,0.17664,0.01171,0.0019,0.00182,0.002,0.00145,0.00155,0.0014,0.036,0.0385,0.0405,passive,2
1.9205,rehab,danger_fast_jerk,-29.4980095962,-667.9872380503,334.147473326,-177.3817990598,0.128524629,-149.9850676141,435.5836,1.0402,-162.0072,4056.7668,54.8294,-2295.4044,85.8431944117,31.0491720272,86.7821305713,-30.2545652917,-88.8004271206,-33.8889622509,-19.8214038599,-10.6737203537,-14.8951787624,24.1631783708,-0.4080648828,-18.0922089173,-3.3257,-6.5807,26.4377,-0.16584,0.16984,0.00528,0.0019,0.00182,0.002,0.00145,0.00155,0.0014,0.036,0.0385,0.0405,passive,2
1.9405,rehab,danger_fast_jerk,-19.7866890344,-667.9214726834,330.2358937937,-177.3876210476,0.1237075709,-149.9795663548,516.3467,2.9896,-211.1982,6938.6604,75.404,-4419.4054,85.3703243892,30.7852412768,86.625999678,-29.7284815708,-88.8618663269,-34.2656388098,-24.3974754244,-15.2678613574,-15.0029417226,27.0663607628,-2.4989642241,-21.7450332106,-3.0251,-6.5926,25.7682,-0.16915,0.16163,0.00924,0.0019,0.00182,0.002,0.00145,0.00155,0.0014,0.036,0.0385,0.0405,passive,2
1.9605,rehab,danger_fast_jerk,-8.8441408983,-667.8676558158,325.6995437568,-177.38323873,0.1266803265,-149.9884323339,713.13,4.0563,-338.7834,5019.5924,146.1956,-4498.2729,84.8672953947,30.438457573,86.1820129024,-29.1719108612,-88.9003856895,-34.7587635793,-36.276521143,-18.5202856238,-25.6103318599,38.4043365813,-0.3160292655,-30.0588564242,-1.8779,-6.5403,27.1093,-0.1684,0.16689,0.01296,0.0019,0.00182,0.002,0.00145,0.00155,0.0014,0.036,0.0385,0.0405,passive,2
1.9805,rehab,danger_fast_jerk,8.7385107802,-667.7592192965,316.684556791,-177.3810854875,0.1251234453,-149.9872027568,717.1304,8.8374,-391.1292,-3541.1967,104.2409,-151.2759,83.9192635435,30.0444298518,85.6015864036,-28.1923081076,-88.8745074975,-35.4679930668,-37.3363285267,-17.4609190653,-24.1263068988,39.0491066262,-0.0116122504,-31.3343171616,-0.1838,-6.7881,25.3733,-0.17331,0.14731,0.03094,0.0019,0.00182,0.002,0.00145,0.00155,0.0014,0.036,0.0385,0.0405,passive,2
2.0005,rehab,danger_fast_jerk,19.8410756568,-667.5141606457,310.0543775379,-177.3828884685,0.1234424328,-149.9947705341,571.4821,8.226,-344.8345,-2863.8933,-99.3658,-222.1308,83.3738422537,29.7400208103,85.2169606265,-27.6099465961,-88.9008501796,-36.0121362658,-27.662391561,-17.8252350589,-18.0362734044,31.7571299896,-0.6322559959,-26.5929922417,1.1237,-6.5248,25.5439,-0.16714,0.15547,0.03824,0.0019,0.00182,0.002,0.00145,0.00155,0.0014,0.036,0.0385,0.0405,passive,2
2.0205,rehab,danger_fast_jerk,31.5977959359,-667.4301805128,302.8911783549,-177.3837616456,0.1300889892,-149.9854703445,602.5747,4.8627,-400.0144,1217.4777,-67.9158,-2858.5451,82.812767881,29.3314204495,84.8801354675,-26.922022908,-88.8997977373,-36.5317127565,-31.7405327374,-18.123118846,-20.1140204584,33.6234797713,-2.6905606442,-27.7956605276,1.8104,-5.7889,22.2105,-0.14297,0.12294,0.04112,0.0019,0.00182,0.002,0.00145,0.00155,0.0014,0.036,0.0385,0.0405,passive,2
2.0405,rehab,danger_fast_jerk,43.9440629187,-667.3196507321,294.053802069,-177.3878789274,0.1256968876,-149.9880802034,620.1812,5.5093,-459.1763,339.927,10.1444,-2657.7227,82.1042209442,29.0150960565,84.4123998081,-26.2650074053,-89.0084726053,-37.1239626869,-34.8863229156,-17.8070743035,-24.578500433,35.6770455577,-1.0385902347,-30.7235121607,3.3095,-5.7121,23.0699,-0.15596,0.13855,0.04586,0.0019,0.00182,0.002,0.00145,0.00155,0.0014,0.036,0.0385,0.0405,passive,2
2.0605,rehab,danger_fast_jerk,56.4050453957,-667.2098069854,284.524127777,-177.3839608995,0.1242488756,-149.9892057566,616.1718,5.2685,-506.3233,-631.499,35.1725,-2376.5814,81.4173149644,28.6191374774,83.8969954501,-25.4949410857,-88.9413413467,-37.7606532429,-35.0110445094,-17.5138034686,-26.0940147966,38.678659458,-1.1774887892,-31.7781212235,3.8317,-5.4132,22.297,-0.14646,0.13392,0.03674,0.0019,0.00182,0.002,0.00145,0.00155,0.0014,0.036,0.0385,0.0405,passive,2
2.0805,rehab,danger_fast_jerk,68.5909334403,-667.1089098317,273.8008703084,-177.384843853,0.1239782639,-149.9934661429,594.9213,6.9162,-554.2395,-1235.0644,50.026,-1949.3987,80.7037791638,28.3145439178,83.3686392163,-24.717861027,-89.0555721569,-38.3950875358,-38.3571121679,-16.3766127841,-26.091092611,39.9752965433,-1.9164681208,-32.3696373966,4.7561,-5.5725,20.7949,-0.14269,0.11045,0.05621,0.0019,0.00182,0.002,0.00145,0.00155,0.0014,0.036,0.0385,0.0405,passive,2
2.1005,rehab,danger_fast_jerk,80.2018964969,-666.9331573792,262.3545468952,-177.3824251684,0.1232766721,-149.9854360006,566.7692,7.2696,-584.2992,-1677.7005,34.7763,-1037.983,79.8830304777,27.964072966,82.8533517457,-23.8959292239,-89.0180000715,-39.0554387388,-36.4092302204,-16.4511525787,-25.2106519248,38.8193561868,2.0835072155,-32.75020169,5.9379,-5.2462,19.7873,-0.12843,0.1027,0.05315,0.0019,0.00182,0.002,0.00145,0.00155,0.0014,0.036,0.0385,0.0405,passive,2
2.1205,rehab,danger_fast_jerk,91.2617008965,-666.818127262,250.4289005724,-177.3837028952,0.1226373308,-149.9908167706,527.8133,8.3073,-595.7588,-2422.2607,50.0172,-520.2663,79.247409955,27.6564978146,82.3602131393,-23.1650867795,-88.9722318683,-39.7050956034,-31.0080279748,-18.6290055163,-24.2542015948,36.5842628022,-0.681478781,-29.3954646806,7.0442,-5.8166,20.0069,-0.13298,0.09583,0.06038,0.0019,0.00182,0.002,0.00145,0.00155,0.0014,0.036,0.0385,0.0405,passive,2
2.1405,rehab,danger_fast_jerk,101.3144268626,-666.6008656824,238.524193168,-177.3854788831,0.1224521198,-149.9920502166,469.8788,9.2703,-605.1099,-3043.8686,18.2614,694.2274,78.6427093587,27.2189127453,81.8831836819,-22.4325587118,-89.0452592228,-40.231257326,-33.9057035506,-18.3243875864,-23.4127169165,36.2776544876,-0.028901882,-27.9501171499,9.5637,-5.7629,21.2207,-0.14101,0.09017,0.06848,0.0019,0.00182,0.002,0.00145,0.00155,0.0014,0.036,0.0385,0.0405,passive,2
2.1605,rehab,danger_fast_jerk,110.0568513055,-666.4473171174,226.2245047015,-177.3850766986,0.1226013952,-149.9983294919,406.0585,9.0377,-567.9897,-3174.5417,-42.4558,2170.2144,77.8911818129,26.9235223112,81.4237044626,-21.7139806,-88.9733879436,-40.8231002894,-31.7414426993,-15.6178576811,-19.6570308237,34.9586312008,1.2823394077,-30.485985095,10.1162,-5.6385,19.632,-0.13356,0.07493,0.07766,0.0019,0.00182,0.002,0.00145,0.00155,0.0014,0.036,0.0385,0.0405,passive,2
2.1805,rehab,danger_fast_jerk,117.5567675188,-666.2393556994,215.8046033356,-177.3831327657,0.1231373958,-149.9954496126,342.8971,7.572,-518.3013,-3179.7381,-113.0781,2060.5352,77.3730516507,26.5941984381,81.096902449,-21.0342134638,-88.9939656465,-41.4506967298,-26.1011426569,-15.6539364108,-17.031905721,28.2144610526,-2.6230828214,-24.793496853,11.1292,-6.0695,20.6306,-0.14188,0.10042,0.07074,0.0019,0.00182,0.002,0.00145,0.00155,0.0014,0.036,0.0385,0.0405,passive,2
2.2005,rehab,danger_fast_jerk,123.7727349917,-666.144436308,205.4924519264,-177.3911909728,0.121333676,-149.9879363184,278.869,4.5146,-485.5683,-2881.7977,-26.7588,2492.8927,76.8471361067,26.2973648547,80.7424282338,-20.5854021579,-89.0783112564,-41.8148401635,-24.7883563306,-13.5369882589,-18.0780373438,25.1035654672,-2.2326296221,-19.9130290529,12.5826,-6.5501,21.0407,-0.14706,0.09128,0.08903,0.0019,0.00182,0.002,0.00145,0.00155,0.0014,0.036,0.0385,0.0405,passive,2
2.2205,rehab,danger_fast_jerk,128.7115271725,-666.058770647,196.3818698317,-177.3874564302,0.122554545,-149.9867297829,227.6252,6.5017,-418.5856,-2423.4721,41.7085,3471.0951,76.3815173975,26.0527189077,80.3737809552,-20.0300708451,-89.0832708314,-42.2472178919,-21.2534315455,-10.5949580742,-13.3617448876,23.7764346086,-0.5785926171,-20.435621931,12.723,-5.8401,20.2281,-0.13425,0.07923,0.09272,0.0019,0.00182,0.002,0.00145,0.00155,0.0014,0.036,0.0385,0.0405,passive,2
2.2405,rehab,danger_fast_jerk,132.8777423832,-665.8843696414,188.7490274005,-177.38403232,0.1233077639,-149.9898929522,181.9301,6.183,-346.7245,-2373.0898,-48.0595,3420.034,75.9969988448,25.8735665318,80.2079584383,-19.6343447735,-89.1014549611,-42.6322650408,-18.4215696125,-7.4939339081,-10.9801881418,19.2805557547,-0.5261272514,-13.9554640756,13.9412,-6.1995,20.9446,-0.13693,0.09073,0.09257,0.0019,0.00182,0.002,0.00145,0.00155,0.0014,0.036,0.0385,0.0405,passive,2
2.2605,rehab,danger_fast_jerk,135.9887314335,-665.8114520067,182.5128884891,-177.3924896112,0.1234882789,-149.987849928,132.7016,4.5793,-281.7843,-2286.6554,19.5807,3513.213,75.644654613,25.7529615514,79.9345734295,-19.2588486149,-89.1043159214,-42.8054364549,-15.4533754336,-7.7863270251,-11.7219028976,15.0133749469,-0.2624102631,-10.0665541063,15.1025,-6.3362,20.7101,-0.15355,0.07181,0.10099,0.0019,0.00182,0.002,0.00145,0.00155,0.0014,0.036,0.0385,0.0405,passive,2
2.2805,rehab,danger_fast_jerk,138.1858060738,-665.7011981368,177.477657334,-177.3849308936,0.1254806557,-149.9913099902,90.4639,6.9662,-206.196,-1986.9862,51.1459,3801.8224,75.3788638275,25.5621134507,79.7390823224,-19.0338097757,-89.1119513716,-43.034927205,-9.9758911664,-7.999548786,-8.3405999383,9.7199513113,0.3296297028,-7.9452330973,14.527,-6.0753,19.3316,-0.12837,0.07497,0.10044,0.0019,0.00182,0.002,0.00145,0.00155,0.0014,0.036,0.0385,0.0405,passive,2
2.3005,rehab,danger_fast_jerk,139.6072871122,-665.5328042965,174.2650479815,-177.3913562404,0.1222042436,-149.9955042597,53.2221,6.6251,-129.7114,-1569.9703,-56.5226,3488.8824,75.2456189663,25.4329796,79.600949432,-18.8700505625,-89.0911307333,-43.1232457788,-5.0733264948,-4.7183562987,-3.8861591725,8.3222693346,-2.1445638834,-5.0957954346,14.2582,-5.4551,17.6014,-0.12919,0.04895,0.09624,0.0019,0.00182,0.002,0.00145,0.00155,0.0014,0.036,0.0385,0.0405,passive,2
2.3205,rehab,danger_fast_jerk,140.3146918533,-665.4361932579,172.2892030472,-177.388609987,0.1196429435,-149.9943093713,27.6651,4.7053,-66.6407,3011.7863,-88.1173,-7528.8459,75.1759307677,25.3733791988,79.5836359555,-18.7009190023,-89.197733927,-43.2387590224,-3.4835577306,-1.0389926725,-0.469431418,4.5267976413,-1.3918650128,-5.3090047774,12.6147,-5.3457,17.5267,-0.12959,0.05993,0.08182,0.0019,0.00182,0.002,0.00145,0.00155,0.0014,0.036,0.0385,0.0405,passive,2
2.3405,rehab,danger_fast_jerk,140.7138902999,-665.3445927032,171.5994193675,-177.3908132773,0.1237284366,-149.9962621547,173.6936,3.1004,-430.8652,3574.5382,-49.5202,-9184.8812,75.1062766571,25.3914198931,79.5821721753,-18.6889786568,-89.1468053338,-43.3356059699,-20.2317652121,-7.2403255293,-14.4855404265,19.9599101967,-1.1895311644,-18.1959965176,15.3273,-6.3064,20.3658,-0.13755,0.0744,0.09963,0.0019,0.00182,0.002,0.00145,0.00155,0.0014,0.036,0.0385,0.0405,passive,2
2.3605,rehab,danger_fast_jerk,147.2624356396,-665.3121760658,155.0545953482,-177.3858285867,0.1241782384,-149.9957352499,170.6466,2.7245,-434.036,-3983.7653,-31.416,10073.6072,74.3666601592,25.0837661776,79.0042143384,-17.9025225944,-89.2453151735,-43.9665988831,-19.8596276091,-11.5834315871,-13.7204747227,22.8293497503,-1.0345131152,-15.3883538797,17.4689,-6.6871,19.3554,-0.14556,0.0612,0.10732,0.0019,0.00182,0.002,0.00145,0.00155,0.0014,0.036,0.0385,0.0405,passive,2
2.3805,rehab,danger_fast_jerk,147.5397545737,-665.2356134563,154.2379807671,-177.3860678754,0.1205439891,-149.9935891815,14.343,1.8438,-27.9209,-4186.2666,-43.8609,10623.2873,74.3118915527,24.9280826296,79.0333531864,-17.7758046668,-89.1881858584,-43.9511401251,-2.8905517457,0.4365916893,-0.2810712717,4.9835616304,1.7396655281,-1.3042490757,15.5485,5.5692,16.82,-0.00515,0.03524,0.05803,0.0019,0.00182,0.002,0.00145,0.00155,0.0014,0.036,0.0385,0.0405,passive,2
2.4005,rehab,danger_fast_jerk,147.8361549885,-665.2384245434,153.9377592322,-177.3898658511,0.1257593715,-149.9950542602,3.1959,0.97,-9.1045,-585.4565,-79.225,1088.4386,74.2510380894,25.1012298452,78.9929714875,-17.7031801292,-89.1757285524,-44.0187688461,0.0568090496,1.0906067195,-2.2263700824,-1.0426365798,-1.7113167511,-1.4219426763,15.1977,6.0371,16.9716,-0.00794,0.05609,0.05224,0.0019,0.00182,0.002,0.00145,0.00155,0.0014,0.036,0.0385,0.0405,passive,2
2.4205,rehab,danger_fast_jerk,147.6675922684,-665.1968115909,153.8738019067,-177.3850329889,0.1184743761,-149.9945669314,-9.0753,-1.3252,15.6166,-247.8633,-43.5166,877.6447,74.3141639147,24.9717068984,78.9442983831,-17.81751013,-89.2566385285,-44.0080178322,1.1230749808,-3.9388881037,1.3886050519,-2.4007350615,-1.0701384188,1.8955840924,21.7028,5.9771,-3.2597,0.07533,-0.0823,0.07844,0.0019,0.00182,0.002,0.00145,0.00155,0.0014,0.036,0.0385,0.0405,passive,2
2.4405,rehab,danger_fast_jerk,147.4731439626,-665.2914330869,154.5624248279,-177.3916262236,0.122031487,-150.0022147471,-6.7186,-0.7706,26.0013,128.0633,-22.1025,70.8991,74.2959610886,24.9436743211,79.0485156896,-17.7992095317,-89.2185340892,-43.9429454825,-0.3169223893,1.7273890918,2.4885159593,0.6768312536,1.0983938871,1.1063396878,21.4069,5.6982,-3.1945,0.07668,-0.08197,0.07844,0.0019,0.00182,0.002,0.00145,0.00155,0.0014,0.036,0.0385,0.0405,passive,2
2.4605,rehab,danger_fast_jerk,147.39884867,-665.2276362239,154.9138545825,-177.3946754483,0.1225195855,-150.0010327277,-3.9527,-2.2093,18.4526,82.8985,-55.2931,-592.6673,74.3014870192,25.040802462,79.0438390214,-17.7904368799,-89.212702773,-43.9637642446,2.0648195667,2.1937116749,0.7488284121,-2.2952135059,1.2394276272,-2.0705796534,20.3089,5.9594,-3.2456,0.06878,-0.08236,0.07623,0.0019,0.00182,0.002,0.00145,0.00155,0.0014,0.036,0.0385,0.0405,passive,2
2.4805,rehab,danger_fast_jerk,147.3150342642,-665.3798056889,155.3005290314,-177.3911475193,0.1227980455,-150.0038665682,-3.4027,-2.9823,2.2946,12.2945,-7.4986,-743.8992,74.3785538713,25.031422788,79.0784688261,-17.8910180719,-89.1689569841,-44.0257686686,1.0883090005,-0.1605756286,0.9240741334,-1.4120154008,-1.9609980697,0.6909321403,20.9517,4.7013,-3.0334,0.05768,-0.08264,0.08686,0.0019,0.00182,0.002,0.00145,0.00155,0.0014,0.036,0.0385,0.0405,passive,2
2.5005,rehab,danger_fast_jerk,147.2627426233,-665.3469297629,155.0056395554,-177.3908352381,0.1216363826,-150.0000048444,-3.461,-2.5093,-11.3034,216.6867,-7.2143,-448.2412,74.3450193792,25.0343794369,79.0808019868,-17.8469174959,-89.2911426958,-43.936126959,-1.6805338708,1.736379194,-1.8660799012,0.0373526137,-1.5317741054,1.1835312663,13.0102,4.9065,14.9055,-0.00562,0.05271,0.03985,0.0019,0.00182,0.002,0.00145,0.00155,0.0014,0.036,0.0385,0.0405,passive,2
2.5205,rehab,danger_fast_jerk,147.1765958012,-665.480176083,154.8483945086,-177.3916255805,0.1233826524,-149.9957414101,5.2648,-3.2709,-15.635,-7846.8372,-10.9131,19315.1937,74.3113325165,25.1008779558,79.00382563,-17.8895239674,-89.2302279483,-43.9784274179,-0.843119357,-0.4666079848,0.2604537966,0.8658923806,1.9735990294,-1.373091178,13.6095,5.6698,16.0528,-0.00734,0.05646,0.03548,0.0019,0.00182,0.002,0.00145,0.00155,0.0014,0.036,0.0385,0.0405,passive,2
2.5405,rehab,danger_fast_jerk,147.4733353159,-665.4777661943,154.3802385767,-177.3919964379,0.1191832724,-149.9987883857,-317.3344,-2.9458,761.3044,-7877.7532,-54.6187,18913.9705,74.3112946049,25.0157151175,79.0912201386,-17.8122818007,-89.2121987346,-43.9910506062,36.5521681978,19.532391721,26.4689006199,-39.1937803726,2.3789282576,36.9271189459,26.5969,7.0159,-4.5845,0.09055,-0.09443,0.11087,0.0019,0.00182,0.002,0.00145,0.00155,0.0014,0.036,0.0385,0.0405,passive,2
2.5605,rehab,danger_fast_jerk,134.4832178768,-665.5980073898,185.3005698789,-177.3980128101,0.124004409,-150.0013955309,-309.8453,-5.4557,740.9238,9023.6219,-94.8285,-21168.881,75.7734192444,25.8821736246,80.0625816548,-19.4572751823,-89.135070818,-42.5013426601,34.6679698803,20.4569496677,24.1048144395,-39.00577183,-0.4369177216,29.8179553189,25.9029,7.0036,-1.237,0.06993,-0.08265,0.10379,0.0019,0.00182,0.002,0.00145,0.00155,0.0014,0.036,0.0385,0.0405,passive,2
2.5805,rehab,danger_fast_jerk,135.0795229144,-665.6959925746,184.0171904511,-177.3947797787,0.1228966614,-150.0022917111,43.6104,-6.7389,-85.4509,9316.0734,-15.654,-21725.9022,75.6980134001,25.8339931042,80.0554127162,-19.3725126739,-89.2296754435,-42.7983323934,-5.1919676827,-3.0374292988,-1.4922702408,5.3270282472,-2.0468786611,-6.8439351224,11.6196,5.1439,16.3127,-0.00335,0.06472,0.03218,0.0019,0.00182,0.002,0.00145,0.00155,0.0014,0.036,0.0385,0.0405,passive,2
2.6005,rehab,danger_fast_jerk,136.2276350266,-665.8675642296,181.882535666,-177.3932835583,0.1236857919,-149.9985899953,62.7976,-6.0818,-128.1123,684.1253,32.7033,-1878.8967,75.5657405371,25.7606764527,80.0028908452,-19.2441940524,-89.2169459644,-42.775100065,-7.2051823149,-4.73149552,-2.2942934707,6.7852564454,0.7365667695,-1.9897826165,12.6155,5.3585,18.8412,-0.02308,0.07144,0.04796,0.0019,0.00182,0.002,0.00145,0.00155,0.0014,0.036,0.0385,0.0405,passive,2
2.6205,rehab,danger_fast_jerk,137.5914279199,-665.9392654242,178.8926987492,-177.3936837187,0.1241404472,-149.9969508865,70.9754,-5.4308,-160.6067,380.8767,-72.7731,-1328.3252,75.4098061075,25.6447332834,79.9636409774,-19.1011024161,-89.2002127727,-42.8779236981,-6.7282521099,-3.9869950273,-6.9971862031,6.6595899009,0.9687185359,-7.8642033478,13.6888,6.136,18.2474,-0.0152,0.05102,0.04483,0.0019,0.00182,0.002,0.00145,0.00155,0.0014,0.036,0.0385,0.0405,passive,2
2.6405,rehab,danger_fast_jerk,139.0666526156,-666.0847958176,175.4582666882,-177.3918979795,0.1230630579,-150.0025313862,78.0327,-8.9927,-181.2453,381.4367,-87.2221,-909.6541,75.2966104527,25.6011966516,79.7230033971,-18.9778104563,-89.178197223,-43.0896681989,-6.6281317617,-2.2665405029,-6.9931542978,12.6269167717,-0.6387805648,-8.6466442509,13.1972,5.9443,17.4886,-0.00175,0.0734,0.0437,0.0019,0.00182,0.002,0.00145,0.00155,0.0014,0.036,0.0385,0.0405,passive,2
2.6605,rehab,danger_fast_jerk,140.7127355667,-666.2989752511,171.6428867628,-177.3903058896,0.1242476295,-149.9956232368,86.2329,-8.9197,-196.9929,255.007,36.3171,-658.2562,75.144680837,25.5540716633,79.6839148055,-18.5960257452,-89.2257639953,-43.2237894681,-7.8934940116,-3.5441979043,-8.7229391957,12.6663188116,-2.6415265465,-7.5818130676,14.9151,6.6023,19.2419,-0.01424,0.06702,0.04819,0.0019,0.00182,0.002,0.00145,0.00155,0.0014,0.036,0.0385,0.0405,passive,2
2.6805,rehab,danger_fast_jerk,142.5159688592,-666.4415828223,167.5785511318,-177.3920148785,0.1226849627,-150.001647665,88.233,-7.5401,-207.5755,-163.7107,13.6002,-433.323,74.9808706922,25.4594287354,79.3740858293,-18.4711577039,-89.2838582849,-43.3929407216,-10.4786893562,-7.6937488522,-7.6554674127,8.6227017159,0.7536429163,-8.4429433784,15.7516,6.2638,19.2551,-0.02728,0.0638,0.04687,0.0019,0.00182,0.002,0.00145,0.00155,0.0014,0.036,0.0385,0.0405,passive,2
2.7005,rehab,danger_fast_jerk,144.2420543481,-666.6005777148,163.3398648245,-177.3976086435,0.121270296,-149.9988741398,79.6845,-8.3757,-214.3258,-406.3778,9.3919,341.6065,74.7255332628,25.2463217092,79.377696109,-18.2511176766,-89.1956182786,-43.5615072032,-12.0969756547,-7.1560775717,-1.9380630194,10.6430402914,2.1639970193,-7.8237125177,14.9998,6.4475,17.9893,-0.01274,0.05596,0.04947,0.0019,0.00182,0.002,0.00145,0.00155,0.0014,0.036,0.0385,0.0405,passive,2
2.7205,rehab,danger_fast_jerk,145.70334806,-666.7766095295,159.005518778,-177.3941069751,0.124878146,-149.996388738,71.9779,-7.1644,-193.9113,4337.053,36.9416,-14988.4886,74.496991666,25.1731856326,79.2965633085,-18.0454360922,-89.1972984041,-43.7058892223,-11.4259861031,-3.8331431753,-6.3425584158,9.8457269139,-1.2959737037,-10.5399325857,15.1635,5.7269,17.2435,-0.01157,0.0538,0.06745,0.0019,0.00182,0.002,0.00145,0.00155,0.0014,0.036,0.0385,0.0405,passive,2
2.7405,rehab,danger_fast_jerk,147.1211685756,-666.8871530623,155.5834133412,-177.3926196777,0.124197877,-149.9985096612,253.1666,-6.898,-813.8654,3778.2706,4.4997,-13278.6208,74.2684938187,25.0929959822,79.1239937723,-17.8572886,-89.2474572268,-43.9831045067,-39.0439420842,-18.3509035438,-25.7783076043,39.285691461,0.1783698388,-36.4107021178,16.3949,6.6092,18.3776,-0.00402,0.06822,0.05959,0.0019,0.00182,0.002,0.00145,0.00155,0.0014,0.036,0.0385,0.0405,passive,2
2.7605,rehab,danger_fast_jerk,155.8300120775,-667.0525296654,126.4509046791,-177.3942350173,0.1235115048,-149.9971252764,223.1087,-6.9844,-725.0561,-6415.067,-29.9236,21127.1011,72.9352339827,24.4391494908,78.2654310043,-16.4740084338,-89.1901636105,-45.162317307,-32.548072523,-17.8257980451,-24.0925642906,35.7173202766,0.1774227273,-30.6063302274,19.6763,6.6132,17.6146,-0.00073,0.0427,0.0778,0.0019,0.00182,0.002,0.00145,0.00155,0.0014,0.036,0.0385,0.0405,passive,2
2.7805,rehab,danger_fast_jerk,156.0455157376,-667.1665289289,126.581168575,-177.3951141832,0.1267060836,-149.9999301154,-3.4361,-8.0949,31.2187,-6180.4764,-17.4203,20460.3721,72.9665709178,24.3799640604,78.1602912007,-16.4285957889,-89.2403603177,-45.2073577158,2.7624387848,0.33460085,-2.2104613443,-1.5344007273,0.1589985124,0.7690039358,22.9068,5.6913,-5.6743,0.08757,-0.10227,0.09864,0.0019,0.00182,0.002,0.00145,0.00155,0.0014,0.036,0.0385,0.0405,passive,2
2.8005,rehab,danger_fast_jerk,155.6925689638,-667.376327606,127.6996523698,-177.3949754374,0.1217190745,-149.9990542599,-24.1104,-7.6812,93.3588,-1088.2003,92.8875,3480.3417,73.0457315341,24.4525335248,78.1770125505,-16.5353844629,-89.18380367,-45.1315571496,6.3329288793,4.8452651192,5.9861658163,-5.0375584445,0.2927279396,3.9433345607,22.8729,6.0389,-6.4357,0.0884,-0.10475,0.08301,0.0019,0.00182,0.002,0.00145,0.00155,0.0014,0.036,0.0385,0.0405,passive,2
2.8205,rehab,danger_fast_jerk,155.0811006723,-667.4737772,130.3155191475,-177.3874254983,0.123738124,-149.9985361126,-46.9641,-4.3794,170.4324,-1233.8126,70.6748,3943.4685,73.2198880729,24.5737746652,78.3997378334,-16.6300981267,-89.2286512001,-45.0496243333,6.8320986329,2.2689160591,7.1765365604,-6.4027661526,-0.3363147976,6.3215030952,23.0459,6.0368,-5.4229,0.09941,-0.11499,0.08351,0.0019,0.00182,0.002,0.00145,0.00155,0.0014,0.036,0.0385,0.0405,passive,2
2.8405,rehab,danger_fast_jerk,153.8140053262,-667.5515055088,134.5169467236,-177.3949695297,0.1225488816,-150.0019872833,-73.4629,-4.8542,251.0975,-1377.289,-7.5473,4077.2527,73.3190154794,24.5432901672,78.4640740129,-16.791495109,-89.1972562619,-44.8786970258,10.5033748893,4.0678179098,5.7335082912,-12.8383769104,1.9540309949,12.4523868347,23.9174,6.468,-5.7943,0.08719,-0.10721,0.08612,0.0019,0.00182,0.002,0.00145,0.00155,0.0014,0.036,0.0385,0.0405,passive,2
2.8605,rehab,danger_fast_jerk,152.142585477,-667.6679457147,140.3594193487,-177.3968377484,0.1261026292,-149.9998620971,-102.0557,-4.6813,333.5225,-1454.1645,-14.2893,4049.388,73.6400230685,24.7364873816,78.629078165,-17.1436332031,-89.1504899603,-44.5515288599,16.172797309,9.3374613077,9.8149732802,-18.2050879836,1.0945005368,17.0473776046,27.705,7.113,-5.5915,0.09768,-0.11446,0.10816,0.0019,0.00182,0.002,0.00145,0.00155,0.0014,0.036,0.0385,0.0405,passive,2
2.8805,rehab,danger_fast_jerk,149.7317792887,-667.7387590571,147.8578453381,-177.3972142979,0.1219565273,-149.9981461037,-131.6295,-5.4258,413.073,-1938.1813,10.7519,3636.0267,73.9659273717,24.9167886195,78.8566729442,-17.5196986283,-89.1534762405,-44.1968019216,19.8704705119,8.7215846082,16.6334866824,-20.8491622355,1.7048605478,16.6209855352,26.1916,6.7738,-4.5245,0.0809,-0.1127,0.09752,0.0019,0.00182,0.002,0.00145,0.00155,0.0014,0.036,0.0385,0.0405,passive,2
2.9005,rehab,danger_fast_jerk,146.8774071411,-667.8849770797,156.8823403215,-177.3992966047,0.1255317176,-149.998423636,-179.5829,-4.2513,478.9635,-4576.4113,73.6784,7579.9318,74.434841889,25.0853507659,79.2944176323,-17.9775996925,-89.0822955384,-43.8866894385,23.2915201508,11.8462224306,17.6252280731,-25.4974167505,1.5243582014,18.5049187772,25.7353,6.7012,-4.163,0.094,-0.10732,0.09742,0.0019,0.00182,0.002,0.00145,0.00155,0.0014,0.036,0.0385,0.0405,passive,2
2.9205,rehab,danger_fast_jerk,142.5484631278,-667.9088095038,167.0163866879,-177.4007778301,0.1261394835,-149.9981004761,-314.6859,-2.4786,716.2703,-4002.6068,12.9814,6467.0042,74.8975881778,25.3906375167,79.5616820671,-18.5395952983,-89.0925019124,-43.4566051705,30.9070165033,19.272827875,20.6105269918,-35.8029316166,-0.8019648303,32.1956027414,24.5787,6.5108,-3.607,0.0658,-0.0958,0.09458,0.0019,0.00182,0.002,0.00145,0.00155,0.0014,0.036,0.0385,0.0405,passive,2
2.9405,rehab,danger_fast_jerk,134.2899707908,-667.9841229508,185.5331520956,-177.3933546815,0.1242579846,-149.9991070002,-339.6872,-3.732,737.6437,204.1796,35.9809,-3786.3433,75.6711225491,25.8562638809,80.118838712,-19.4097169572,-89.1143741316,-42.5988653289,35.9149603701,17.3553143673,23.9821303776,-36.2758281661,-0.7194108108,33.4100766504,24.607,6.1432,-1.3294,0.05991,-0.0889,0.09861,0.0019,0.00182,0.002,0.00145,0.00155,0.0014,0.036,0.0385,0.0405,passive,2
2.9605,rehab,danger_fast_jerk,128.9609761217,-668.058089671,196.5221346886,-177.3939202428,0.1249424372,-150.0007310247,-306.5187,-1.0394,564.8166,-550.6459,97.3907,-3558.6242,76.3341865926,26.0848500914,80.5209672822,-19.990628425,-89.1212783448,-42.1202021045,29.1733368424,13.4429480553,21.5380150886,-35.0891717381,1.3540088669,23.4475878808,22.3049,5.9106,0.1005,0.05806,-0.06107,0.08113,0.0019,0.00182,0.002,0.00145,0.00155,0.0014,0.036,0.0385,0.0405,passive,2
2.9805,rehab,danger_fast_jerk,122.0292218368,-668.0256993158,208.1258145747,-177.3907150894,0.1240940784,-150.003669347,-361.713,0.1636,595.2987,-2867.1768,37.9641,1420.5981,76.8380560228,26.3939818031,80.9803593155,-20.8132838267,-89.0602137769,-41.6609618136,28.6286299524,16.8126928609,23.7577872423,-35.4587974119,2.6376697767,25.0066649083,22.8547,6.3641,0.9522,0.06824,-0.06661,0.09153,0.0019,0.00182,0.002,0.00145,0.00155,0.0014,0.036,0.0385,0.0405,passive,2
3.0005,rehab,danger_fast_jerk,114.4924557103,-668.0515447919,220.3340840162,-177.396527512,0.1241739213,-149.9971056809,-421.2058,0.4792,621.6405,-2896.6397,42.4459,966.5778,77.4793317907,26.7573578058,81.4712787719,-21.4089803215,-89.0157715538,-41.1199355082,35.6782606913,19.7191902022,23.7517482331,-33.950604602,1.288048981,30.4165295405,21.6112,5.417,1.8172,0.03884,-0.06168,0.09452,0.0019,0.00182,0.002,0.00145,0.00155,0.0014,0.036,0.0385,0.0405,passive,2
3.0205,rehab,danger_fast_jerk,105.1809900793,-668.0065330533,232.9914339588,-177.3972223187,0.1241133519,-150.0021666943,-477.5786,1.8615,633.9618,-2327.1209,24.0329,-15.9578,78.2651864505,27.1827494112,81.9304292449,-22.1713080108,-89.0086918177,-40.444300632,35.9555810895,19.0157690121,23.7627937192,-39.1414055273,-0.973359727,30.8020899987,20.1484,5.8191,3.1687,0.04532,-0.03198,0.06593,0.0019,0.00182,0.002,0.00145,0.00155,0.0014,0.036,0.0385,0.0405,passive,2
3.0405,rehab,danger_fast_jerk,95.3893117874,-667.9770865428,245.6925578629,-177.3979200156,0.1218132698,-149.9991508189,-514.2906,1.4405,621.0022,-2048.2996,68.9123,-873.4855,78.9175550342,27.5179885663,82.4217905206,-22.9746365425,-89.0547059429,-39.8878519082,34.0088575973,19.3474141186,25.4925760629,-37.9668200852,-1.193114603,31.0703362383,18.2038,4.7092,4.0296,0.03191,-0.02573,0.07115,0.0019,0.00182,0.002,0.00145,0.00155,0.0014,0.036,0.0385,0.0405,passive,2
3.0605,rehab,danger_fast_jerk,84.6093648855,-667.9489141978,257.8315208276,-177.4039352181,0.1243193698,-149.9954057154,-559.5106,4.6179,599.0224,-1763.2069,79.908,-1470.5623,79.6255407543,27.9566459759,82.9501322874,-23.6899808142,-89.0564164018,-39.2014871825,36.351902719,18.3052432707,24.622545665,-35.9086949904,0.5272788413,33.137159143,18.0871,5.2475,4.339,0.03836,-0.02439,0.07232,0.0019,0.00182,0.002,0.00145,0.00155,0.0014,0.036,0.0385,0.0405,passive,2
3.0805,rehab,danger_fast_jerk,73.008888457,-667.7923686556,269.6534549418,-177.3961113095,0.1295079565,-150.0074975056,-584.8189,4.6368,562.1797,-797.3894,-49.8151,-2178.9667,80.371631143,28.2501982971,83.4066923472,-24.4109843422,-89.0336147892,-38.5623655425,35.6387297159,18.9300179,24.5146692682,-39.7262612564,0.5974616172,31.1770179203,18.0121,4.7498,5.7063,0.02872,-0.01406,0.07642,0.0019,0.00182,0.002,0.00145,0.00155,0.0014,0.036,0.0385,0.0405,passive,2
3.1005,rehab,danger_fast_jerk,61.2166085724,-667.7634425909,280.3187079852,-177.3953950311,0.12572959,-150.001966908,-591.4062,2.6253,511.8638,544.7908,0.4484,-2983.5989,81.051089943,28.7138466919,83.9307190581,-25.2790312645,-89.0325179371,-37.9544064657,34.0247629955,19.4363582843,24.6176758297,-37.7758182291,3.5549756121,31.2575002429,18.4388,4.8984,7.4645,0.0171,-0.01387,0.06527,0.0019,0.00182,0.002,0.00145,0.00155,0.0014,0.036,0.0385,0.0405,passive,2
3.1205,rehab,danger_fast_jerk,49.3526421338,-667.6873549073,290.1280052835,-177.4006338861,0.1230364948,-149.9996953631,-563.0273,4.6547,442.8357,1550.1216,40.497,-3395.5099,81.7326216628,29.0276526285,84.3913993804,-25.9220170713,-88.8914157647,-37.3120655328,30.8682772068,14.6316009512,20.3273332546,-34.16748782,1.1015992929,28.8628149383,18.8765,-5.2935,8.0012,-0.08967,-0.00726,0.10825,0.0019,0.00182,0.002,0.00145,0.00155,0.0014,0.036,0.0385,0.0405,passive,2
3.1405,rehab,danger_fast_jerk,38.6955174867,-667.5772535938,298.0321369671,-177.4007170844,0.1296975082,-149.9974243876,-529.4013,4.2452,376.0434,1728.5047,30.7042,-2877.0576,82.2858210313,29.29911073,84.7438123883,-26.6457307773,-88.9884539654,-36.7998938681,27.0302375445,15.4867494341,19.9429040012,-31.7218368926,-1.6392895947,25.547660658,19.3285,-5.9776,9.7769,-0.09626,0.00706,0.11759,0.0019,0.00182,0.002,0.00145,0.00155,0.0014,0.036,0.0385,0.0405,passive,2
3.1605,rehab,danger_fast_jerk,28.1765904212,-667.5175459852,305.1697397196,-177.4042929251,0.1277763615,-149.9972418524,-493.8871,5.8829,327.7534,2271.3278,96.5621,-2940.149,82.8138311646,29.6471226059,85.1891155405,-27.190890547,-88.9569873485,-36.2901591065,24.9831599741,14.1287467631,18.8101931033,-28.5724736725,1.6735058293,22.1554552719,20.5043,-6.0143,10.8814,-0.09205,-0.00053,0.12676,0.0019,0.00182,0.002,0.00145,0.00155,0.0014,0.036,0.0385,0.0405,passive,2
3.1805,rehab,danger_fast_jerk,18.940033893,-667.3419378523,311.1422738393,-177.3934306822,0.1289617548,-150.0014705238,-438.5482,8.1077,258.4374,2886.638,20.2735,-3128.3968,83.2851474302,29.8642606005,85.4962201124,-27.7886297242,-88.9215137322,-35.9136756573,23.8216949056,11.2532261127,16.0091356394,-24.929272652,2.7728313771,17.2914123403,20.0309,-5.5789,11.6056,-0.09338,0.01019,0.12637,0.0019,0.00182,0.002,0.00145,0.00155,0.0014,0.036,0.0385,0.0405,passive,2
3.2005,rehab,danger_fast_jerk,10.6346631906,-667.1932376739,315.5072358073,-177.3989274331,0.1297248287,-149.9990053407,-378.4216,6.6938,202.6176,3450.5661,-24.9326,-2503.4134,83.7666989608,30.0972516504,85.8294809661,-28.1880614531,-88.8460740934,-35.5985026128,20.305881969,9.9919459778,12.8726793088,-17.1490345096,0.6082616272,18.4465098817,19.429,-5.8327,12.7775,-0.11102,0.02286,0.12445,0.0019,0.00182,0.002,0.00145,0.00155,0.0014,0.036,0.0385,0.0405,passive,2
3.2205,rehab,danger_fast_jerk,3.8031711741,-667.0741844727,319.2469758502,-177.3950743139,0.128422638,-150.0024241315,-300.5255,7.1104,158.3009,3783.9759,33.1849,-2201.8289,84.097382709,30.2639384396,86.0111272848,-28.4745911046,-88.8971832671,-35.175815262,15.2364060141,10.6014752611,10.5784932167,-16.2602861672,-0.3470870062,14.272826672,19.4116,-6.1464,13.1993,-0.11125,0.0248,0.12337,0.0019,0.00182,0.002,0.00145,0.00155,0.0014,0.036,0.0385,0.0405,passive,2
3.2405,rehab,danger_fast_jerk,-1.3863583019,-666.9088214824,321.8392704355,-177.4033462249,0.1274529741,-149.998955854,-227.0625,8.0212,114.5444,3592.9405,3.1269,-1993.6032,84.3761552014,30.5213106608,86.2526206947,-28.8384728998,-88.8599575737,-35.027589546,10.2046053139,6.5157785682,5.7663866411,-13.7820748284,1.8788584897,8.7056108751,18.506,-5.9165,13.0217,-0.10921,0.01459,0.12966,0.0019,0.00182,0.002,0.00145,0.00155,0.0014,0.036,0.0385,0.0405,passive,2
3.2605,rehab,danger_fast_jerk,-5.2793301257,-666.7533353133,323.8287515914,-177.3959454414,0.1316087841,-149.9968609117,-156.8079,7.2355,78.5567,3416.4094,19.3074,-1895.0366,84.5055669215,30.5245695823,86.2417827504,-29.0258740977,-88.8220289275,-34.827590827,6.0939336553,0.9396591558,4.0305945012,-10.3764118475,0.8783825342,8.1857938538,17.4727,-5.9815,12.6705,-0.10796,0.01856,0.10459,0.0019,0.00182,0.002,0.00145,0.00155,0.0014,0.036,0.0385,0.0405,passive,2
3.2805,rehab,danger_fast_jerk,-7.6586750064,-666.6194022633,324.9815400054,-177.3989120472,0.1248308224,-149.998213027,-90.4062,8.7935,38.7429,3118.6152,21.9321,-1604.8473,84.6199125476,30.5588970271,86.4138444748,-29.2535293737,-88.8248222723,-34.7001577918,6.9481243215,0.5083093455,4.4203397401,-6.2473310674,0.8833524094,2.6896389786,16.7714,-5.6042,12.3833,-0.10817,0.02626,0.11016,0.0019,0.00182,0.002,0.00145,0.00155,0.0014,0.036,0.0385,0.0405,passive,2
3.3005,rehab,danger_fast_jerk,-8.8955763799,-666.4015943146,325.3784688193,-177.4004374633,0.1283312245,-149.9966546414,-32.0633,8.1128,14.3628,-8417.7952,-83.1498,3582.7692,84.7834918944,30.5449019562,86.41859634,-29.2757673404,-88.7866948312,-34.7200052679,3.7710739971,4.5644568486,0.6804508166,-1.5687696162,-0.3286387959,-0.763430686,16.7061,-5.0884,12.3718,-0.10224,0.0307,0.09586,0.0019,0.00182,0.002,0.00145,0.00155,0.0014,0.036,0.0385,0.0405,passive,2
3.3205,rehab,danger_fast_jerk,-8.9412074181,-666.2948916173,325.5560538262,-177.4018484134,0.1288297318,-150.0004630216,-427.118,5.4675,182.0537,-10208.4307,-43.6035,4302.8396,84.7707555075,30.741475301,86.4410625074,-29.3162801584,-88.8379678241,-34.7306950193,19.5198863041,13.716359067,16.3530985939,-21.7122167223,0.3703944827,20.8500990128,20.0977,-6.4559,15.2145,-0.12374,0.03672,0.12591,0.0019,0.00182,0.002,0.00145,0.00155,0.0014,0.036,0.0385,0.0405,passive,2
3.3405,rehab,danger_fast_jerk,-25.9802949394,-666.1828929608,332.6606167718,-177.3972652583,0.1313142505,-150.0016641744,-440.4005,6.3686,186.4764,10369.0,42.963,-4325.925,85.5642873466,31.0935563189,87.0727202838,-30.1442560093,-88.7718790519,-33.8860013073,20.4587324725,5.7962768412,14.8545899063,-21.6682661259,-0.1901275389,19.2980691843,18.9675,-6.5489,16.4689,-0.13234,0.04245,0.11831,0.0019,0.00182,0.002,0.00145,0.00155,0.0014,0.036,0.0385,0.0405,passive,2
3.3605,rehab,danger_fast_jerk,-26.5572290106,-666.0401465104,333.0151110728,-177.4058795418,0.1339181582,-149.9986709309,-12.358,7.1861,9.0167,11200.9511,-3.7975,-4776.371,85.5891048064,30.9733263747,87.0352461037,-30.1830108034,-88.8455729257,-33.9587722519,0.2676400043,-0.40232166,-1.2526956071,-0.9270386057,-0.6810444596,-2.0997774288,15.1452,-5.1127,12.9503,-0.09763,0.04856,0.08652,0.0019,0.00182,0.002,0.00145,0.00155,0.0014,0.036,0.0385,0.0405,passive,2
3.3805,rehab,danger_fast_jerk,-26.4746134627,-665.8954507632,333.0212846598,-177.404624878,0.1278498719,-149.9975334095,7.6375,6.2167,-4.5784,764.3647,-53.6309,-522.5223,85.5749929467,31.0774634525,87.0226124595,-30.1813375535,-88.7991208302,-33.9699924045,-0.2326183279,2.3737548874,-0.9394664937,1.8217538742,1.1835890546,-2.0270677545,-3.0444,-5.4065,20.2975,-0.1295,0.12902,0.01209,0.0019,0.00182,0.002,0.00145,0.00155,0.0014,0.036,0.0385,0.0405,passive,2
3.4005,rehab,danger_fast_jerk,-26.2517288216,-665.7914774367,332.8319747534,-177.4070476113,0.1309369799,-149.9926816458,18.2166,5.0408,-11.8842,431.2643,-1.2251,-127.1829,85.5798000733,31.0682765702,86.9976674439,-30.1101406484,-88.7982293635,-34.0398549621,-2.1201772903,0.2914400209,-0.1272266388,-0.4176546066,-1.6909337818,0.4506373218,-3.2367,-5.6801,22.2403,-0.14878,0.15329,0.01363,0.0019,0.00182,0.002,0.00145,0.00155,0.0014,0.036,0.0385,0.0405,passive,2
3.4205,rehab,danger_fast_jerk,-25.7459484147,-665.6938180335,332.5459169012,-177.4035024862,0.1287880212,-150.000437632,24.8881,6.1677,-9.6657,31.256,83.2913,228.5316,85.4901858551,31.0891210533,87.0175233939,-30.1980437378,-88.8667581815,-33.9519669116,-3.8611818022,-0.065521102,0.1514166593,-0.8542871405,-0.1208054433,1.7278710507,-2.8322,-5.4442,18.6057,-0.12447,0.11577,0.01863,0.0019,0.00182,0.002,0.00145,0.00155,0.0014,0.036,0.0385,0.0405,passive,2
3.4405,rehab,danger_fast_jerk,-25.2562057002,-665.5447684457,332.4453458204,-177.4026803027,0.1297115989,-149.9957335112,19.4669,8.3725,-2.7429,-584.3731,-40.8186,187.8079,85.4253528012,31.0656557261,87.0037241103,-30.144312134,-88.8030615812,-33.97074012,1.1745822543,-0.2930430904,-0.7239685286,3.0283948308,1.9570914525,-1.7495845024,-2.013,-4.6885,20.04,-0.12957,0.12736,0.00572,0.0019,0.00182,0.002,0.00145,0.00155,0.0014,0.036,0.0385,0.0405,passive,2
3.4605,rehab,danger_fast_jerk,-24.9672738062,-665.3589192248,332.4361997522,-177.3950201929,0.133572133,-149.9965763819,1.5132,4.535,-2.1534,-929.963,-176.482,123.7836,85.5371691453,31.0773993297,86.9885646528,-30.0769079445,-88.7884745234,-34.0219502917,3.6375492161,-0.1367376946,0.8255360052,1.6716872962,0.6905041765,-2.0723166555,-2.4527,-4.7718,19.3095,-0.12535,0.11948,0.00704,0.0019,0.00182,0.002,0.00145,0.00155,0.0014,0.036,0.0385,0.0405,passive,2
3.4805,rehab,danger_fast_jerk,-25.1956795822,-665.363369214,332.3592095876,-177.4027557031,0.1340424427,-149.9920534216,-17.7317,1.3132,2.2084,-1175.6187,-100.0242,503.0198,85.5708547698,31.0601862183,87.0367455505,-30.0774446422,-88.7754414142,-34.0536327863,0.1696206837,-1.9311861196,-0.1244619946,-1.9820361318,-0.3876524361,1.7889731805,15.217,-5.2133,12.2687,-0.107,0.03471,0.10244,0.0019,0.00182,0.002,0.00145,0.00155,0.0014,0.036,0.0385,0.0405,passive,2
3.5005,rehab,danger_fast_jerk,-25.676540021,-665.3063916693,332.5245364328,-177.4028299184,0.1297510293,-149.9928982647,-45.5116,0.534,17.9674,18797.6613,-17.4904,-8376.4053,85.5439539726,31.0001518849,86.983586173,-30.1561893898,-88.8039806209,-33.9503913645,1.7497261264,-0.6143404168,0.8682521864,-3.0381504413,1.1859202402,2.7494387551,16.6222,-6.1465,14.1968,-0.13086,0.03699,0.11786,0.0019,0.00182,0.002,0.00145,0.00155,0.0014,0.036,0.0385,0.0405,passive,2
3.5205,rehab,danger_fast_jerk,-27.0161433779,-665.3420086316,333.0779050464,-177.4000181534,0.1299402363,-149.9941325215,734.1748,0.6136,-332.8478,19189.3031,50.8974,-8443.652,85.6408438149,31.0356126016,87.071475638,-30.1989706598,-88.7280046046,-33.9436552361,-34.5066060265,-18.9664936649,-25.097421707,38.4119030484,0.8902227201,-33.258519071,-3.4495,-6.7339,27.2361,-0.17217,0.16735,0.00484,0.0019,0.00182,0.002,0.00145,0.00155,0.0014,0.036,0.0385,0.0405,passive,2
3.5405,rehab,danger_fast_jerk,3.6904518772,-665.2818488053,319.2106245674,-177.4036615602,0.1303557274,-149.9899347486,722.0605,2.5699,-319.7787,-21007.3275,8.2352,9831.7699,84.1636897316,30.2414921383,85.9796893047,-28.6197132679,-88.768371712,-35.2807321273,-35.0701458657,-17.1415642544,-23.2911493438,36.4174078489,-0.8438346208,-30.9263892446,-0.8422,-6.3844,23.6693,-0.15706,0.14319,0.02141,0.0019,0.00182,0.002,0.00145,0.00155,0.0014,0.036,0.0385,0.0405,passive,2
3.5605,rehab,danger_fast_jerk,1.8662778232,-665.2392121839,320.2867573472,-177.4047528991,0.1322086999,-149.9869793499,-106.1183,0.943,60.423,-21515.4384,-86.9445,9683.5036,84.2380379803,30.3499500314,86.1398296642,-28.7422743459,-88.7617579894,-35.1807108058,3.5731899858,3.1466952973,3.9637259121,-6.2619394997,0.503476678,5.2286408416,16.1764,-4.8412,11.1706,-0.09479,0.01556,0.08728,0.0019,0.00182,0.002,0.00145,0.00155,0.0014,0.036,0.0385,0.0405,passive,2
3.5805,rehab,danger_fast_jerk,-0.5542802703,-665.2441295985,321.6275445255,-177.4053926269,0.1308385577,-149.9929841328,-138.557,-0.9079,67.5615,-1734.754,-41.6191,475.4503,84.306617331,30.3673599502,86.1382383412,-28.8701908479,-88.7482326449,-35.0715864937,9.4175379048,2.2719267843,3.2690370619,-5.6313823773,-0.0185381838,4.2041925332,16.6672,-5.3544,12.0558,-0.10632,0.02487,0.10247,0.0019,0.00182,0.002,0.00145,0.00155,0.0014,0.036,0.0385,0.0405,passive,2
3.6005,rehab,danger_fast_jerk,-3.6760023849,-665.2755269343,322.9892153712,-177.3987393343,0.1349615854,-149.9908530768,-175.5085,-0.7218,79.441,-1338.9293,-95.1443,591.7933,84.6147394964,30.4408271028,86.2705911467,-28.967529641,-88.7624995168,-35.0125431045,10.50772744,5.1622743734,5.5864895045,-8.9751124664,-1.2885056261,6.6060784116,17.6722,-5.1576,12.4841,-0.0989,0.01291,0.11059,0.0019,0.00182,0.002,0.00145,0.00155,0.0014,0.036,0.0385,0.0405,passive,2
3.6205,rehab,danger_fast_jerk,-7.5746187651,-665.2730009647,324.8051849093,-177.4000178723,0.1380257171,-149.9925840014,-192.1142,-4.7136,91.2332,-584.5151,-102.7902,288.6485,84.7269264286,30.5738509251,86.3616979214,-29.2291953465,-88.79977287,-34.8073433572,6.8659136425,6.6155299065,7.4187249272,-9.7172456849,1.0142383626,8.2330483168,19.6338,-6.159,14.0598,-0.12921,0.02772,0.12462,0.0019,0.00182,0.002,0.00145,0.00155,0.0014,0.036,0.0385,0.0405,passive,2
3.6405,rehab,danger_fast_jerk,-11.3605694286,-665.4640725629,326.6385427162,-177.4016796553,0.1349620088,-149.9892934726,-198.8891,-4.8334,90.9869,-502.2343,55.0956,-150.7216,84.8893760421,30.7054482991,86.5673401438,-29.3562194684,-88.7219299823,-34.6832211718,8.3102387591,2.972674781,7.7225783801,-12.2264105899,-0.1352101441,9.3172296262,18.4421,-6.5357,14.2782,-0.11149,0.03399,0.12045,0.0019,0.00182,0.002,0.00145,0.00155,0.0014,0.036,0.0385,0.0405,passive,2
3.6605,rehab,danger_fast_jerk,-15.5301814079,-665.466336708,328.4446628421,-177.4086137315,0.1350030973,-149.9908175869,-212.2035,-2.5098,85.2043,-11.9025,9.9866,-228.563,85.059335979,30.6927579164,86.6706010566,-29.7182517701,-88.8051812757,-34.4346541722,10.6490918564,4.5152971949,5.4654054862,-10.8840665349,-2.2437117577,8.9495713797,17.9616,-6.3905,14.4624,-0.12573,0.03482,0.11889,0.0019,0.00182,0.002,0.00145,0.00155,0.0014,0.036,0.0385,0.0405,passive,2
3.6805,rehab,danger_fast_jerk,-19.8487114054,-665.5644652477,330.0467155557,-177.4053344725,0.1312966809,-149.9885325057,-199.3652,-4.4339,81.8444,-15585.8174,-54.343,5221.5725,85.3153397164,30.8860601869,86.7859563632,-29.7915821298,-88.8116784526,-34.3252383167,9.3186683493,5.9488165528,5.4116327735,-5.9922569791,-0.012391741,7.9486774493,18.9344,-6.2855,15.4489,-0.13579,0.03636,0.13106,0.0019,0.00182,0.002,0.00145,0.00155,0.0014,0.036,0.0385,0.0405,passive,2
3.7005,rehab,danger_fast_jerk,-23.5047880966,-665.6436938669,331.7184400257,-177.4033015178,0.1329317719,-149.9840231625,-835.6362,-4.6835,294.0672,-13850.7124,-31.2102,4306.2831,85.432082713,30.9307105785,86.8870663676,-29.9579420493,-88.8056769454,-34.1167070742,39.060196422,20.1225800802,27.3641142947,-44.7319697605,-0.5021653285,35.554918933,18.225,-5.6748,14.063,-0.11242,0.03855,0.09806,0.0019,0.00182,0.002,0.00145,0.00155,0.0014,0.036,0.0385,0.0405,passive,2
3.7205,rehab,danger_fast_jerk,-53.2741611516,-665.7518066908,341.8094044529,-177.3989020841,0.1337922706,-149.9851775657,-753.3937,-5.6823,254.0958,20952.8474,-91.7974,-7459.4999,86.8777475733,31.6909633901,87.880520935,-31.5808609202,-88.8317650657,-32.9030415593,36.8241241294,17.6538695031,24.981484333,-38.5220569351,1.1380877895,30.1796905892,19.1394,-6.5076,20.4476,-0.14567,0.06113,0.12389,0.0019,0.00182,0.002,0.00145,0.00155,0.0014,0.036,0.0385,0.0405,passive,2
3.7405,rehab,danger_fast_jerk,-53.6405346455,-665.8709873188,341.8822702463,-177.4009285599,0.1325599131,-149.9916750616,2.4777,-8.3554,-4.3128,20260.1874,-26.157,-6886.8804,86.9050476781,31.6368653586,87.8863257409,-31.4988243267,-88.7601534338,-32.9095194506,0.0738363803,-0.64362987,-0.4578980821,1.6331678425,3.5140655773,-1.1810817569,-5.0387,-5.7799,22.3142,-0.14899,0.1477,-0.00239,0.0019,0.00182,0.002,0.00145,0.00155,0.0014,0.036,0.0385,0.0405,passive,2
3.7605,rehab,danger_fast_jerk,-53.1750551301,-666.08602404,341.6368934487,-177.4028666262,0.1371841958,-149.9936501587,57.0138,-6.7286,-21.3795,3472.7203,83.4037,-860.95,86.8807010285,31.6652181953,87.8622050117,-31.5155342065,-88.6912024426,-32.9502848296,-3.9766785931,-1.2736750179,-2.15594845,1.0144303247,-0.2077809294,-0.3084638652,-4.8032,-5.3781,21.7835,-0.14802,0.14735,0.0055,0.0019,0.00182,0.002,0.00145,0.00155,0.0014,0.036,0.0385,0.0405,passive,2
3.7805,rehab,danger_fast_jerk,-51.3599813464,-666.1401319105,341.0270918781,-177.3987256697,0.1300935747,-149.9922398749,141.3865,-5.0193,-38.7508,4227.5775,0.4904,-988.1962,86.7459805344,31.5859183579,87.8000878029,-31.4582471137,-88.768464671,-32.9218580052,-8.3738247145,-2.5396169566,-5.8927426209,6.2006249541,-4.5923484577,-4.9545710433,-5.3551,-6.5925,22.9664,-0.16637,0.15564,-0.00037,0.0019,0.00182,0.002,0.00145,0.00155,0.0014,0.036,0.0385,0.0405,passive,2
3.8005,rehab,danger_fast_jerk,-47.5195966326,-666.2867955484,340.086862424,-177.400409493,0.1348667897,-149.9846938748,226.1169,-6.709,-60.9073,3930.6248,-67.8045,-1534.7901,86.5457480399,31.563633517,87.6264953069,-31.2675092083,-88.8748963809,-33.1484676713,-11.1682983788,-6.158636379,-9.483665429,10.401004496,-2.0401732413,-10.4926882771,-5.4519,-6.1129,23.636,-0.15621,0.17182,0.00337,0.0019,0.00182,0.002,0.00145,0.00155,0.0014,0.036,0.0385,0.0405,passive,2
3.8205,rehab,danger_fast_jerk,-42.3153040009,-666.408491922,338.5907996432,-177.4054882783,0.1361033896,-149.9877231101,298.6115,-7.7315,-100.1424,3692.1482,-51.9848,-1849.3069,86.2992485993,31.3395729027,87.4207411857,-31.0422069339,-88.8500716006,-33.3415655363,-11.8541455373,-7.2825103041,-7.3755067733,17.2063029201,1.3121131388,-10.9841112238,-4.771,-6.916,25.802,-0.16281,0.15665,-0.01193,0.0019,0.00182,0.002,0.00145,0.00155,0.0014,0.036,0.0385,0.0405,passive,2
3.8405,rehab,danger_fast_jerk,-35.575138438,-666.5960543018,336.0811671972,-177.40071655,0.137110748,-149.9860894038,373.8029,-8.7884,-134.8796,3852.4748,4.714,-1753.4717,86.0715822184,31.2723331049,87.331475036,-30.5792570915,-88.8224118554,-33.5878321203,-16.0459898932,-6.18542168,-8.767308983,19.3691696636,-0.1441116511,-15.7022547198,-4.2104,-6.1457,24.9164,-0.15969,0.15788,0.00174,0.0019,0.00182,0.002,0.00145,0.00155,0.0014,0.036,0.0385,0.0405,passive,2
3.8605,rehab,danger_fast_jerk,-27.3631895582,-666.7600276764,333.1956163735,-177.4000080144,0.1364724011,-149.9876893143,452.7104,-7.5429,-170.2812,3814.3848,38.4887,-2185.6332,85.6574090035,31.0921560355,87.0700488264,-30.2674401473,-88.8558360667,-33.9696557251,-21.2769925456,-13.253379429,-12.6059398321,19.7213701402,-1.4061383181,-18.0544842884,-3.6637,-6.6774,26.1882,-0.17777,0.16906,0.00632,0.0019,0.00182,0.002,0.00145,0.00155,0.0014,0.036,0.0385,0.0405,passive,2
3.8805,rehab,danger_fast_jerk,-17.466720528,-666.8977707191,329.2699172872,-177.395949561,0.140165129,-149.9857381798,526.3783,-7.2488,-222.3049,6614.0085,-65.6339,-4461.3298,85.2205025166,30.7421979277,86.8272374427,-29.7904022859,-88.8786573881,-34.3100114918,-23.1711534277,-13.7985530752,-19.83922634,27.5629231695,-0.0624054027,-21.5659819363,-2.8666,5.9466,25.3034,-0.04435,0.15561,-0.0329,0.0019,0.00182,0.002,0.00145,0.00155,0.0014,0.036,0.0385,0.0405,passive,2
3.9005,rehab,danger_fast_jerk,-6.3080593755,-667.0499814782,324.3034200635,-177.4036786799,0.1375344905,-149.9812421117,717.2708,-10.1683,-348.7344,4794.5981,8.3619,-4291.3143,84.7305628664,30.5402139125,86.2764797728,-29.1649232205,-88.8583322828,-34.8322950026,-34.599214438,-17.4132665601,-26.0609228531,40.3548660701,0.4697340319,-34.1502620314,-1.2067,6.118,24.8478,-0.04117,0.15676,-0.03707,0.0019,0.00182,0.002,0.00145,0.00155,0.0014,0.036,0.0385,0.0405,passive,2
3.9205,rehab,danger_fast_jerk,11.2241109868,-667.304501413,315.3205396981,-177.3990513811,0.1351558442,-149.9861232723,718.1622,-6.9144,-393.9575,-3526.5247,165.8496,-248.7387,83.8365339391,30.0456672653,85.7848005286,-28.1762076431,-88.8598680268,-35.6760219731,-36.2187368032,-20.4440305378,-24.7697896144,38.8766873975,-0.4251271701,-33.4033952243,0.1325,5.7051,23.3498,-0.04006,0.14311,-0.02473,0.0019,0.00182,0.002,0.00145,0.00155,0.0014,0.036,0.0385,0.0405,passive,2
3.9405,rehab,danger_fast_jerk,22.4184277239,-667.3265563169,308.5451208151,-177.4036682285,0.1366307314,-149.9805247507,576.2098,-3.5343,-358.684,-2724.34,-1.0391,-429.9602,83.2818133943,29.722452691,85.2856881882,-27.6098557246,-88.8753373696,-36.1684308115,-29.3228444037,-16.4905829448,-23.004580048,33.0172628928,-3.354826709,-26.3421086488,1.2787,5.3963,22.1992,-0.03955,0.13199,-0.01118,0.0019,0.00182,0.002,0.00145,0.00155,0.0014,0.036,0.0385,0.0405,passive,2
3.9605,rehab,danger_fast_jerk,34.2725030366,-667.4458728148,300.9731801134,-177.4021664959,0.1359134386,-149.9788268217,609.1886,-6.9559,-411.1559,973.6647,-69.3393,-2624.4484,82.6636201629,29.3860439475,84.8646173266,-26.8555171274,-88.9940610952,-36.729706319,-31.429261836,-16.4833281703,-23.1100561379,34.1056077935,-2.2406901862,-30.4454977863,1.9138,5.2615,21.3936,-0.03244,0.11896,-0.01727,0.0019,0.00182,0.002,0.00145,0.00155,0.0014,0.036,0.0385,0.0405,passive,2
3.9805,rehab,danger_fast_jerk,46.7859708457,-667.6047937576,292.0988852286,-177.4040959624,0.1397549716,-149.9871606123,615.1564,-6.3079,-463.6619,126.467,63.3752,-2771.9836,82.0246429208,29.0631195642,84.3612859427,-26.2456314129,-88.964964977,-37.386250723,-32.6513259284,-18.2423323184,-22.8987365995,35.7683192784,1.3450961072,-30.2772883376,3.849,5.6937,21.9898,-0.03895,0.11556,-0.00277,0.0019,0.00182,0.002,0.00145,0.00155,0.0014,0.036,0.0385,0.0405,passive,2
4.0005,rehab,danger_fast_jerk,58.8787586442,-667.6981871391,282.4267031533,-177.3987367936,0.1373999102,-149.985820543,614.2473,-4.4209,-522.0352,-455.808,23.714,-2718.1155,81.3575671258,28.6563506548,83.9486678627,-25.4247843563,-88.9402572509,-37.9407978525,-37.7898668021,-20.3257301129,-22.4573078956,41.0400180644,0.2222312442,-28.3388874138,3.6741,5.0491,19.7093,-0.02148,0.1068,0.00971,0.0019,0.00182,0.002,0.00145,0.00155,0.0014,0.036,0.0385,0.0405,passive,2
4.0205,rehab,danger_fast_jerk,71.3558611959,-667.7816308883,271.2174759138,-177.3972956879,0.1406122175,-149.9892171069,596.9241,-5.3593,-572.3865,-1402.4083,11.4164,-1594.6636,80.5130482488,28.2500903597,83.4629936269,-24.6040306903,-88.9560757273,-38.5198062195,-37.0243001253,-16.1718909439,-26.7372554629,39.275962905,-1.5504425623,-31.9857192819,4.8009,5.1252,19.7914,-0.03163,0.10324,0.00703,0.0019,0.00182,0.002,0.00145,0.00155,0.0014,0.036,0.0385,0.0405,passive,2
4.0405,rehab,danger_fast_jerk,82.7557214303,-667.9125590914,259.5312413661,-177.3970876336,0.1373476906,-149.9806627919,558.1509,-3.9643,-585.8218,-2001.6991,47.5046,-717.9278,79.8765951208,28.009475017,82.8791776441,-23.8537458401,-89.0022749534,-39.2202266238,-31.5595846444,-19.5324054608,-25.7767154939,38.3706196026,-1.8491938141,-35.1334509532,5.8138,4.8594,18.949,-0.03158,0.09626,0.02231,0.0019,0.00182,0.002,0.00145,0.00155,0.0014,0.036,0.0385,0.0405,passive,2
4.0605,rehab,danger_fast_jerk,93.6818982457,-667.9402017945,247.7846048676,-177.3993905317,0.1395667276,-149.9809677167,516.8561,-3.4591,-601.1037,-2432.3797,50.0929,-544.615,79.250664863,27.4687941412,82.4319250071,-23.0692059062,-89.0300434798,-39.9251442577,-35.6616040435,-22.9859190268,-23.375700966,37.4221661763,0.3219220713,-32.6172208709,6.6011,4.8286,18.3015,-0.03221,0.08896,0.01157,0.0019,0.00182,0.002,0.00145,0.00155,0.0014,0.036,0.0385,0.0405,passive,2
4.0805,rehab,danger_fast_jerk,103.4299656576,-668.0509236473,235.4870950824,-177.4011075392,0.1374944541,-149.9866692809,460.8557,-1.9606,-607.6064,-3290.5736,61.7763,1121.5958,78.450130959,27.0900382559,81.9441496055,-22.356859193,-88.9893980705,-40.5249154587,-34.2473753457,-14.8259708277,-23.2479529441,35.7542844049,-0.028043518,-29.7012231977,9.1341,5.5111,19.7093,-0.01508,0.0835,0.01934,0.0019,0.00182,0.002,0.00145,0.00155,0.0014,0.036,0.0385,0.0405,passive,2
4.1005,rehab,danger_fast_jerk,112.1161278272,-668.0186240896,223.4803497791,-177.4009143829,0.1402435692,-149.9820066197,385.2332,-0.9881,-556.2398,-3476.1128,18.8351,2608.9127,77.8807698492,26.8757553081,81.5020068894,-21.63903453,-89.0311652205,-41.1131931856,-26.0721556938,-15.7304875332,-20.1938821762,33.2922034292,-0.8961731268,-25.5440131581,10.2633,5.3507,19.8893,-0.02215,0.09598,0.02792,0.0019,0.00182,0.002,0.00145,0.00155,0.0014,0.036,0.0385,0.0405,passive,2
4.1205,rehab,danger_fast_jerk,118.839292154,-668.0904460458,213.2375020131,-177.4022307362,0.137375445,-149.9809437113,321.8112,-1.2072,-503.2499,-2795.1226,69.0206,2298.1873,77.4072447313,26.4608187546,81.1363943185,-21.0251710558,-89.0252449956,-41.546675985,-29.1809068509,-16.3958548465,-19.7219231495,29.8599250641,-0.6402290266,-23.0909116857,10.2969,5.0315,19.0231,-0.02669,0.0887,0.03925,0.0019,0.00182,0.002,0.00145,0.00155,0.0014,0.036,0.0385,0.0405,passive,2
4.1405,rehab,danger_fast_jerk,124.9885770008,-668.0669101907,203.3503550429,-177.3986272069,0.1370399304,-149.9872370598,273.4283,1.7728,-464.3123,-2685.0029,68.803,2425.8047,76.7135335751,26.2199211143,80.7131299634,-20.4446375275,-89.0567743816,-42.036829653,-26.4890171046,-8.9794952697,-17.6358336141,24.9568364875,-0.9994208025,-21.7459973334,12.6388,5.9672,20.1114,-0.02789,0.07381,0.0341,0.0019,0.00182,0.002,0.00145,0.00155,0.0014,0.036,0.0385,0.0405,passive,2
4.1605,rehab,danger_fast_jerk,129.7764224701,-668.0195354687,194.6650086458,-177.3981626813,0.1386873428,-149.9841447281,214.4111,1.545,-406.2177,-2720.6156,37.1048,3240.3661,76.3476840471,26.1016389438,80.4309609739,-20.0268975963,-89.0652218277,-42.4165158783,-18.244934919,-11.3387129347,-15.130920938,20.0492358067,-1.1650226979,-17.8963155774,13.2199,5.7395,20.0458,-0.02226,0.0803,0.04457,0.0019,0.00182,0.002,0.00145,0.00155,0.0014,0.036,0.0385,0.0405,passive,2
4.1805,rehab,danger_fast_jerk,133.5650214824,-668.0051114668,187.101647861,-177.3974663037,0.1415655602,-149.9835652379,164.6036,3.257,-334.6977,-2308.7339,42.4642,3684.3131,75.9837361784,25.7663725969,80.1078931259,-19.6426680952,-89.1033752895,-42.7526822761,-16.9591042041,-9.6811131589,-10.8677732574,19.0503265424,-1.1500415815,-13.3412605245,14.0515,6.1521,20.2867,-0.01704,0.07454,0.05002,0.0019,0.00182,0.002,0.00145,0.00155,0.0014,0.036,0.0385,0.0405,passive,2
4.2005,rehab,danger_fast_jerk,136.3605679045,-667.8892572321,181.2771010978,-177.3994000883,0.1398248394,-149.9797015934,122.0618,3.2435,-258.8452,-1845.0677,-32.9083,3566.3012,75.6693198789,25.7143944175,79.9962500436,-19.2648845346,-89.111223491,-42.9501662993,-11.3709695302,-6.793127328,-6.6689215105,14.5722502521,-0.2156382528,-10.6252216419,13.7255,6.0271,18.6945,-0.01595,0.06587,0.05539,0.0019,0.00182,0.002,0.00145,0.00155,0.0014,0.036,0.0385,0.0405,passive,2
4.2205,rehab,danger_fast_jerk,138.4474917445,-667.8753700327,176.7478416482,-177.3979161741,0.1390201677,-149.9831126924,90.8009,1.9406,-192.0456,-1725.2486,15.1494,3671.9391,75.5288973972,25.4946475038,79.8411362654,-19.0597780851,-89.1120008196,-43.1776911418,-8.7176700633,-5.5602424103,-6.6598983139,9.3986177638,-0.922215344,-8.3119838761,13.7558,5.6381,19.2473,-0.01571,0.07018,0.05955,0.0019,0.00182,0.002,0.00145,0.00155,0.0014,0.036,0.0385,0.0405,passive,2
4.2405,rehab,danger_fast_jerk,139.9926050559,-667.8116322187,173.595275465,-177.4007323546,0.1396179829,-149.9819414591,53.0518,3.8495,-111.9676,-1812.1921,90.1527,3509.3226,75.3206130764,25.4919847211,79.729854111,-18.8889398241,-89.1481121047,-43.2826456543,-5.2169731309,-0.5319936814,-5.2514871316,5.0933978982,-1.1199663853,-3.853000603,12.7796,4.7706,16.4057,-0.01747,0.06068,0.04768,0.0019,0.00182,0.002,0.00145,0.00155,0.0014,0.036,0.0385,0.0405,passive,2
4.2605,rehab,danger_fast_jerk,140.5695642084,-667.7213895643,172.2691379567,-177.3998548776,0.1442538314,-149.9827010101,18.3132,5.5467,-51.6727,2924.6452,49.7966,-8193.0925,75.3202184719,25.4733677565,79.6310767802,-18.8560421692,-89.1567994751,-43.3318111659,-0.9748289735,-3.7122546376,-4.9527255228,4.8095781721,-0.0357270225,-1.7588182711,13.2363,5.4587,16.4233,-0.0079,0.05644,0.04571,0.0019,0.00182,0.002,0.00145,0.00155,0.0014,0.036,0.0385,0.0405,passive,2
4.2805,rehab,danger_fast_jerk,140.725134924,-667.5897628624,171.5283659711,-177.4011361716,0.1418636158,-149.970096163,170.0376,5.8414,-439.6913,3845.5666,4.5894,-9725.3353,75.2816199175,25.3434945355,79.5317450901,-18.6965566972,-89.1495411856,-43.3529983852,-20.478084856,-10.4236225029,-14.8584772724,23.3880529571,-2.7181953594,-19.9682741712,16.488,6.8714,20.038,-0.00778,0.06665,0.06196,0.0019,0.00182,0.002,0.00145,0.00155,0.0014,0.036,0.0385,0.0405,passive,2
4.3005,rehab,danger_fast_jerk,147.3710689858,-667.4877345622,154.6814863115,-177.3987069061,0.1390977456,-149.9764084084,172.1359,5.7303,-440.6862,-4021.0626,52.8189,10482.3102,74.5010950777,25.0564228564,79.0367376893,-17.9205200509,-89.2655272894,-44.1305421327,-19.4870544929,-9.3493988744,-12.0437980259,20.3548328024,0.4850791132,-18.2123083315,17.5223,7.042,20.3144,-0.01324,0.07177,0.06305,0.0019,0.00182,0.002,0.00145,0.00155,0.0014,0.036,0.0385,0.0405,passive,2
4.3205,rehab,danger_fast_jerk,147.610571323,-667.3605504621,153.9009199595,-177.4049557932,0.142559726,-149.9792632163,9.1951,7.9541,-20.3989,-4331.3266,15.1499,11102.0935,74.5021377378,24.9695185806,79.0499931691,-17.8823633851,-89.1301380211,-44.0814907184,-2.4262625651,-1.2032921035,1.8901027644,0.8137233727,3.5414596358,1.2936190111,14.8491,5.6247,16.0669,-0.02074,0.05082,0.04713,0.0019,0.00182,0.002,0.00145,0.00155,0.0014,0.036,0.0385,0.0405,passive,2
4.3405,rehab,danger_fast_jerk,147.7388735474,-667.1695693011,153.8655310171,-177.4014285815,0.1405636509,-149.9776807385,-1.1172,6.3363,3.3976,-458.3629,-64.9814,967.0197,74.4040445751,25.0082911723,79.1123417998,-17.887971116,-89.123868904,-44.0787973723,-1.2428576744,-0.5302022601,-1.4662412016,0.7604084455,-2.5207789111,0.5245702381,19.5633,4.7666,-3.2523,0.05903,-0.07772,0.08125,0.0019,0.00182,0.002,0.00145,0.00155,0.0014,0.036,0.0385,0.0405,passive,2
4.3605,rehab,danger_fast_jerk,147.5658852114,-667.1070982923,154.0368235074,-177.3985364537,0.1417392761,-149.9735344051,-9.1394,5.3549,18.2819,-79.4293,48.2016,633.306,74.4524234308,24.9483104902,78.991343521,-17.8519470473,-89.2309691775,-44.0605079089,0.4984740395,-1.0205878892,-0.8502658428,-0.241090189,-3.5413758363,1.5547076714,20.2691,5.2953,-3.5612,0.06901,-0.07503,0.09739,0.0019,0.00182,0.002,0.00145,0.00155,0.0014,0.036,0.0385,0.0405,passive,2
4.3805,rehab,danger_fast_jerk,147.3732974546,-666.9553742074,154.5968072244,-177.3986099565,0.1417861602,-149.977592166,-4.2943,8.2644,28.7298,110.525,65.5398,-40.493,74.4239835367,24.9674676567,79.0783311661,-17.8976147235,-89.2655239374,-44.0166090654,2.1826832914,0.6284507647,-0.7964763494,-0.716219414,-0.9233338742,-0.058965132,22.2058,5.7633,-3.9919,0.07002,-0.0868,0.08872,0.0019,0.00182,0.002,0.00145,0.00155,0.0014,0.036,0.0385,0.0405,passive,2
4.4005,rehab,danger_fast_jerk,147.3941121594,-666.776523575,155.186016735,-177.394759476,0.1435060088,-149.9815416891,-4.7184,7.9765,16.6622,-186.5143,-15.2498,-661.0819,74.5397307624,24.9734485208,78.9594844671,-17.8805958239,-89.2679025325,-44.0628665142,1.2525244026,0.8056677456,0.9411014955,-0.40377864,-0.185445862,2.0601973858,20.6967,5.6225,-3.3792,0.06411,-0.07728,0.0765,0.0019,0.00182,0.002,0.00145,0.00155,0.0014,0.036,0.0385,0.0405,passive,2
4.4205,rehab,danger_fast_jerk,147.1845613903,-666.6363154077,155.263294676,-177.3963074598,0.1446044334,-149.9780826622,-11.7549,7.6544,2.2866,200.11,18.0932,-679.0177,74.4740845128,24.9996943665,79.115975226,-17.9137658691,-89.2729417719,-43.93420117,-0.4380697433,1.7622594649,1.6517090232,-0.6085811952,1.6491031261,2.3163566051,19.9959,5.0367,-3.3075,0.06614,-0.07099,0.09064,0.0019,0.00182,0.002,0.00145,0.00155,0.0014,0.036,0.0385,0.0405,passive,2
4.4405,rehab,danger_fast_jerk,146.9239162764,-666.4703485714,155.2774789646,-177.3966197305,0.1432973309,-149.9806719085,3.286,8.7002,-10.4985,687.5171,-6.4761,-875.1033,74.5222079727,25.0439388994,79.025552828,-17.9049390717,-89.2019384075,-43.97021225,-1.3075531676,0.8122327273,-3.6323207342,-0.741789954,-0.4559330542,-1.6189248347,13.1174,5.5926,14.9501,-0.00462,0.03967,0.03649,0.0019,0.00182,0.002,0.00145,0.00155,0.0014,0.036,0.0385,0.0405,passive,2
4.4605,rehab,danger_fast_jerk,147.3160013572,-666.2883075477,154.8433538532,-177.3970661292,0.1445980837,-149.9786509867,15.7458,7.3953,-32.7176,-8033.1213,-44.9253,19241.5389,74.421782386,25.0321836756,78.9706823966,-17.9434374673,-89.2911790941,-43.9989581634,-2.5175781076,-1.5132326381,-0.6323714091,0.5766284707,-2.9923425305,-1.2140309327,13.3506,5.7438,15.107,-0.00901,0.03827,0.04007,0.0019,0.00182,0.002,0.00145,0.00155,0.0014,0.036,0.0385,0.0405,passive,2
4.4805,rehab,danger_fast_jerk,147.5537476878,-666.1745353858,153.9687759427,-177.3933082017,0.1427175761,-149.9741744485,-318.0389,6.9032,759.163,-7988.3635,17.9343,19336.2273,74.4215048484,24.9834095938,79.0002579716,-17.8818739328,-89.3216321087,-44.0187734873,40.32570941,18.1639441702,26.6051291491,-38.8306873802,3.6503381969,31.432093813,24.31,5.9676,-4.0885,0.08372,-0.10079,0.09738,0.0019,0.00182,0.002,0.00145,0.00155,0.0014,0.036,0.0385,0.0405,passive,2
4.5005,rehab,danger_fast_jerk,134.5944473048,-666.0121801692,185.2098752029,-177.3888854214,0.1442357043,-149.9764559591,-303.7888,8.1127,740.7315,9086.8644,-24.6496,-21411.986,76.0348107625,25.7587414424,80.0348875625,-19.4966649625,-89.1451655662,-42.7416744109,36.1237455151,17.579924734,24.4711921603,-37.4318529796,2.0302340359,32.045765658,24.308,5.8733,-1.3401,0.05946,-0.08276,0.10421,0.0019,0.00182,0.002,0.00145,0.00155,0.0014,0.036,0.0385,0.0405,passive,2
4.5205,rehab,danger_fast_jerk,135.402197496,-665.8500273795,183.5980365445,-177.399327867,0.1402266471,-149.9791829438,45.4357,5.9172,-97.3164,9131.7112,-89.2653,-21896.3203,75.866454669,25.6866065832,79.979105658,-19.379148052,-89.2404227472,-42.736942861,-7.4321812749,-3.4228044542,-6.721805079,7.1793171715,-3.1117760845,-4.3094318381,12.7494,5.6864,17.5347,-0.00921,0.07439,0.03788,0.0019,0.00182,0.002,0.00145,0.00155,0.0014,0.036,0.0385,0.0405,passive,2
4.5405,rehab,danger_fast_jerk,136.4118762655,-665.7754921501,181.3172190235,-177.3886241093,0.1420962422,-149.9697571599,61.4797,4.5421,-135.1213,764.0628,-19.7066,-1668.5309,75.7375235115,25.6218292642,79.7660153594,-19.2094922757,-89.2696366096,-42.9140516844,-7.9847429514,-1.2437605564,-4.250683499,7.1950046563,0.1152543811,-8.0036796592,12.6269,4.8073,16.3045,-0.02453,0.06022,0.03802,0.0019,0.00182,0.002,0.00145,0.00155,0.0014,0.036,0.0385,0.0405,passive,2
4.5605,rehab,danger_fast_jerk,137.8613851852,-665.6683437908,178.1931847312,-177.3973616411,0.1435234678,-149.9718993637,75.9982,5.1289,-164.0576,459.9085,0.881,-1188.6974,75.5470649509,25.6368561609,79.8090783181,-19.0913478658,-89.235812572,-43.0570900474,-7.1841786335,-0.4417044141,-4.5184896544,7.1339257019,1.9304237077,-5.5484411154,13.5101,5.9572,18.4413,-0.00526,0.06812,0.04376,0.0019,0.00182,0.002,0.00145,0.00155,0.0014,0.036,0.0385,0.0405,passive,2
4.5805,rehab,danger_fast_jerk,139.4518057342,-665.5703347428,174.7549134713,-177.3961388273,0.1439997103,-149.9748712755,79.876,4.5773,-182.6692,316.1473,24.5366,-1008.719,75.4501563661,25.6041610877,79.5852757732,-18.9241352476,-89.1924196613,-43.135989329,-7.2985649803,-7.1370613027,-6.7710741032,10.3427686284,-2.495686649,-5.636488485,14.3738,6.2665,18.4987,-0.00748,0.06055,0.05071,0.0019,0.00182,0.002,0.00145,0.00155,0.0014,0.036,0.0385,0.0405,passive,2
4.6005,rehab,danger_fast_jerk,141.056426477,-665.4852505727,170.8864171405,-177.3908147846,0.1411417301,-149.9754071614,88.6441,6.1104,-204.4064,272.2274,-63.7477,-859.431,75.2551223517,25.3513737088,79.5382353539,-18.6776371206,-89.335640038,-43.2825495868,-10.3601928607,-10.5678376484,-6.14523241,10.4282765121,-1.0996640602,-10.5105045414,15.5142,6.8838,20.3496,-0.01443,0.07467,0.05489,0.0019,0.00182,0.002,0.00145,0.00155,0.0014,0.036,0.0385,0.0405,passive,2
4.6205,rehab,danger_fast_jerk,142.9975709184,-665.3259188447,166.5786575256,-177.397781534,0.14195983,-149.9718990365,90.7651,2.0274,-217.0464,-255.5332,-135.7084,-82.8198,75.0357486517,25.1814475817,79.3394664768,-18.5070041871,-89.2364062237,-43.5564095107,-10.4024928474,-4.6490754412,-8.8625360667,10.1407176068,2.9588871833,-10.0703572107,15.4176,-6.5439,18.6991,-0.1351,0.07167,0.10596,0.0019,0.00182,0.002,0.00145,0.00155,0.0014,0.036,0.0385,0.0405,passive,2
4.6405,rehab,danger_fast_jerk,144.6870316239,-665.4041537045,162.2045600236,-177.389472487,0.1486344375,-149.9758789459,78.4228,0.6821,-207.7192,-429.2435,37.5558,850.6839,74.8390226378,25.1654106912,79.1837339113,-18.2720084164,-89.2172845506,-43.6853638752,-7.8514060978,-1.9098321697,-5.700908361,12.1763848758,-0.8961109862,-7.9452054127,15.0287,-5.976,18.2129,-0.11778,0.05759,0.10415,0.0019,0.00182,0.002,0.00145,0.00155,0.0014,0.036,0.0385,0.0405,passive,2
4.6605,rehab,danger_fast_jerk,146.1344829555,-665.2986363331,158.2698899727,-177.3940705895,0.1432829021,-149.9742982364,73.5954,3.5297,-183.0191,4186.7077,73.8885,-14761.6952,74.7216924078,25.105054295,79.1114301424,-18.0199487921,-89.2722506632,-43.8742177272,-8.7018509079,-3.7752065466,-5.2007512629,11.5651360849,-1.8026256698,-6.6364295634,16.7902,-6.3171,18.9981,-0.14762,0.06815,0.11436,0.0019,0.00182,0.002,0.00145,0.00155,0.0014,0.036,0.0385,0.0405,passive,2
4.6805,rehab,danger_fast_jerk,147.6308472438,-665.2629675243,154.8837972072,-177.3967883403,0.1442870719,-149.9699484529,245.8911,3.6376,-798.187,3387.2366,-94.3824,-13131.5506,74.4909486015,25.0144024293,78.9757038608,-17.809402973,-89.2893895774,-43.9508210577,-37.2543047011,-19.646555927,-24.0174614703,38.4815107921,0.6842089136,-32.6757793685,18.2625,-6.9912,20.6063,-0.15971,0.05911,0.11682,0.0019,0.00182,0.002,0.00145,0.00155,0.0014,0.036,0.0385,0.0405,passive,2
4.7005,rehab,danger_fast_jerk,155.9701272822,-665.1531322549,126.3424100455,-177.3926778556,0.1421053065,-149.9740681247,209.0849,-0.2456,-708.2811,-6423.251,-151.9047,21073.4582,73.2315202197,24.3191920579,78.1507316836,-16.4806883604,-89.2448823066,-45.1812489019,-33.8529054953,-18.5929372889,-23.1476143042,34.6672623311,1.3521301237,-30.4002765667,20.8025,-7.1419,19.2065,-0.15018,0.05303,0.13423,0.0019,0.00182,0.002,0.00145,0.00155,0.0014,0.036,0.0385,0.0405,passive,2
4.7205,rehab,danger_fast_jerk,155.9942414628,-665.272793181,126.5525535094,-177.3921980287,0.1421173371,-149.9696245356,-11.0389,-2.4386,44.7513,-5979.599,-55.5477,20538.9204,73.1368323817,24.2706849378,78.0497992886,-16.4227124797,-89.2353043725,-45.1668321204,1.522372557,-0.6418980118,-1.1718422499,-1.4844342656,1.4734024663,3.5236380858,24.0644,-6.228,-6.3159,-0.0552,-0.11559,0.14611,0.0019,0.00182,0.002,0.00145,0.00155,0.0014,0.036,0.0385,0.0405,passive,2
4.7405,rehab,danger_fast_jerk,155.5285699321,-665.2506757224,128.1324631736,-177.3900445544,0.1429759285,-149.9703050339,-30.0991,-2.4676,113.2757,-981.6435,-10.9262,3605.2022,73.292415122,24.2935161374,78.1038579936,-16.540065731,-89.185946208,-45.0403033785,6.3850379742,0.8502718571,5.0476234846,-5.4184874915,1.5111179296,5.7466228206,24.4537,-6.2391,-6.7151,-0.0344,-0.10774,0.1492,0.0019,0.00182,0.002,0.00145,0.00155,0.0014,0.036,0.0385,0.0405,passive,2
4.7605,rehab,danger_fast_jerk,154.7902772435,-665.3714952287,131.0835824966,-177.3910391486,0.144822334,-149.9734968691,-50.3047,-2.8756,188.9594,-1204.4577,30.4495,3945.7142,73.3922339007,24.304695812,78.251704228,-16.6394519794,-89.1748596553,-44.9369672076,7.0037159882,4.7236819436,7.0809164086,-8.9643596414,1.4057146858,7.3677388655,25.0993,-6.2677,-6.5037,-0.04035,-0.10973,0.14605,0.0019,0.00182,0.002,0.00145,0.00155,0.0014,0.036,0.0385,0.0405,passive,2
4.7805,rehab,danger_fast_jerk,153.5163829694,-665.3657010984,135.6908398933,-177.3903410542,0.1424004178,-149.9721342621,-78.2774,-1.2496,271.1043,-1520.2523,1.2681,4008.1684,73.5725637615,24.4824634152,78.3870946499,-16.8986401167,-89.1297176205,-44.7455938239,13.2595954258,9.4155691089,7.7424677966,-14.2394481253,-0.0156375358,10.4619275029,25.8577,-6.875,-5.8199,-0.04078,-0.12357,0.1506,0.0019,0.00182,0.002,0.00145,0.00155,0.0014,0.036,0.0385,0.0405,passive,2
4.8005,rehab,danger_fast_jerk,151.6591806777,-665.4214780478,141.9277541325,-177.3907854266,0.1424423963,-149.9663443679,-111.1148,-2.8249,349.2862,-1667.146,-88.4262,3983.1276,73.9226177177,24.6813185764,78.5614029399,-17.2090299044,-89.1754851567,-44.5184901074,18.200179375,9.5158892444,9.243071545,-16.5067412778,-0.374727467,13.9754493653,27.7417,-7.0743,-5.6778,-0.03828,-0.11643,0.16243,0.0019,0.00182,0.002,0.00145,0.00155,0.0014,0.036,0.0385,0.0405,passive,2
4.8205,rehab,danger_fast_jerk,149.0717923409,-665.4786974954,149.6622859875,-177.3872898539,0.1423875665,-149.9698452854,-144.9633,-4.7866,430.4294,-1909.8984,-101.4237,3802.7356,74.3005709365,24.8630989849,78.7568175117,-17.5589097678,-89.1447067192,-44.1865758492,19.7092342188,11.0784092313,14.0770444255,-21.2100887089,2.9791656499,17.9590323741,27.1973,-6.5986,-4.7812,-0.05184,-0.10585,0.15829,0.0019,0.00182,0.002,0.00145,0.00155,0.0014,0.036,0.0385,0.0405,passive,2
4.8405,rehab,danger_fast_jerk,145.8606504696,-665.6129427525,159.1449299772,-177.3935518192,0.1397217721,-149.9737014145,-187.5107,-6.8819,501.3956,-4228.083,-29.6324,7111.3187,74.7109870865,25.1244549456,79.1244847169,-18.0574334528,-89.0563185307,-43.8001288125,21.0398001703,9.6520480838,17.699502516,-25.7482398469,0.9438583501,20.7102040899,26.6095,-6.497,-3.9478,-0.04263,-0.09859,0.16407,0.0019,0.00182,0.002,0.00145,0.00155,0.0014,0.036,0.0385,0.0405,passive,2
4.8605,rehab,danger_fast_jerk,141.5713642718,-665.7539718646,169.7181090922,-177.3897631816,0.1429055529,-149.9698727323,-314.0866,-5.9719,714.8821,-4179.9513,14.5796,5720.007,75.1421629434,25.2491809083,79.4647976123,-18.5888393616,-89.1069523852,-43.3581676857,34.4475941356,16.1674952274,23.80520679,-36.6536937701,-0.3909253363,30.9689443366,26.0204,-6.5631,-2.6599,-0.06827,-0.10065,0.1586,0.0019,0.00182,0.002,0.00145,0.00155,0.0014,0.036,0.0385,0.0405,passive,2
4.8805,rehab,danger_fast_jerk,133.2971873855,-665.8518192674,187.7402156733,-177.3901446168,0.1441631167,-149.9730833951,-354.7088,-6.2987,730.1959,-99.3321,-53.4965,-3391.6205,76.0888908519,25.7711547547,80.0766929885,-19.5235812036,-89.0719555442,-42.561371039,34.1581328836,21.3218345823,25.4390671111,-38.6280861116,1.5612957425,32.809393761,25.4928,-6.5989,-0.7949,-0.06242,-0.084,0.14708,0.0019,0.00182,0.002,0.00145,0.00155,0.0014,0.036,0.0385,0.0405,passive,2
4.9005,rehab,danger_fast_jerk,127.3830141417,-666.0059188741,198.9259434624,-177.3870042573,0.1450284901,-149.9790884815,-318.0599,-8.1118,579.2173,-627.7167,-32.9762,-3015.4562,76.5084882587,26.1020542916,80.4823602968,-20.1339628061,-89.0445005555,-42.0457919352,28.7546305394,15.3984981348,20.5504748063,-32.0930965186,1.7823493923,26.7152335576,25.2782,-6.3761,0.7361,-0.06422,-0.06324,0.1532,0.0019,0.00182,0.002,0.00145,0.00155,0.0014,0.036,0.0385,0.0405,passive,2
4.9205,rehab,danger_fast_jerk,120.574792952,-666.1762902168,210.9089085089,-177.3884383512,0.143144364,-149.9738324167,-379.8174,-7.6177,609.5776,-2948.7346,-36.8796,1171.6433,77.2390760735,26.3870946801,80.8987119807,-20.8073050643,-89.0006615685,-41.4927616967,32.8334241497,15.879279963,21.8924260075,-36.7612097517,-0.2381057094,28.8569554756,24.1101,-5.9352,0.837,-0.07052,-0.06657,0.13646,0.0019,0.00182,0.002,0.00145,0.00155,0.0014,0.036,0.0385,0.0405,passive,2
4.9405,rehab,danger_fast_jerk,112.1903173449,-666.3106278303,223.3090479012,-177.3886495293,0.145204359,-149.972296864,-436.0092,-9.587,626.0831,-2541.2108,-39.4157,515.1162,77.8218252247,26.7372254901,81.3580573371,-21.6044111962,-89.0540247839,-40.8915137162,33.9961323103,18.3453379581,23.6530095304,-35.5842451595,-1.8027005046,29.3018089445,22.2907,-6.1617,2.9936,-0.07192,-0.05823,0.13708,0.0019,0.00182,0.002,0.00145,0.00155,0.0014,0.036,0.0385,0.0405,passive,2
4.9605,rehab,danger_fast_jerk,103.1344231476,-666.5597684768,235.9522306749,-177.3829222651,0.1420623152,-149.9708263821,-481.4659,-9.1944,630.1823,-2333.0981,105.5925,-199.0462,78.5989213659,27.1209081985,81.8448323619,-22.2306748707,-89.0727695887,-40.3206893389,35.2097011613,18.828636916,24.3334108583,-34.0519169215,1.3197782851,29.8328356792,22.3029,-6.0269,3.6348,-0.07889,-0.05011,0.13946,0.0019,0.00182,0.002,0.00145,0.00155,0.0014,0.036,0.0385,0.0405,passive,2
4.9805,rehab,danger_fast_jerk,92.9316832749,-666.6784018656,248.516338206,-177.3828817041,0.1419750511,-149.968690518,-529.3332,-5.3633,618.1212,-2024.9112,70.3748,-1071.3349,79.2302132711,27.4903709667,82.3313937714,-22.966487873,-89.0012336525,-39.698200289,34.3314611747,19.2037591697,22.2761335211,-39.037440108,2.2297554055,32.9225167478,21.5686,-5.3088,4.6934,-0.06736,-0.02588,0.12489,0.0019,0.00182,0.002,0.00145,0.00155,0.0014,0.036,0.0385,0.0405,passive,2
5.0005,rehab,danger_fast_jerk,81.9610964304,-666.7742986771,260.6770789262,-177.3820109941,0.1435303833,-149.9714582657,-562.4623,-6.3794,587.3289,-1427.6737,-25.4611,-1683.6027,79.9721798129,27.8890585652,82.7358777028,-23.792172475,-88.9835793724,-39.003788669,39.6167399191,18.0083558326,23.7412610617,-41.0134098766,-0.1425246893,33.6224208183,19.2788,-5.1819,5.312,-0.06784,-0.02954,0.11482,0.0019,0.00182,0.002,0.00145,0.00155,0.0014,0.036,0.0385,0.0405,passive,2
5.0205,rehab,danger_fast_jerk,70.4331913437,-666.9335762887,272.009492621,-177.3855870927,0.1432500872,-149.969457934,-586.4401,-6.3817,550.7771,-739.3217,50.1415,-2134.4269,80.8148828679,28.2107052,83.2810442139,-24.6070242681,-89.00693464,-38.3533034563,35.1079079872,17.3034359617,26.5599584619,-40.2520971864,0.1905661146,32.863626008,18.9684,-4.8603,6.1521,-0.06891,-0.02362,0.11547,0.0019,0.00182,0.002,0.00145,0.00155,0.0014,0.036,0.0385,0.0405,passive,2
5.0405,rehab,danger_fast_jerk,58.5034917685,-667.0295665877,282.7081629048,-177.3793880495,0.143986699,-149.979359558,-592.0352,-4.3737,501.9518,605.1917,56.6558,-3079.0326,81.3764961324,28.5811960037,83.7982760413,-25.4022563625,-88.9759567279,-37.6892436287,29.7348137295,17.9012103398,23.2162575752,-35.3889242092,-0.4257899601,29.9593460915,19.0751,-5.2533,7.5853,-0.09895,-0.0173,0.1125,0.0019,0.00182,0.002,0.00145,0.00155,0.0014,0.036,0.0385,0.0405,passive,2
5.0605,rehab,danger_fast_jerk,46.7517846777,-667.1085243249,292.0875640121,-177.3855998222,0.1440588377,-149.9771222757,-562.2324,-4.1155,427.6158,1944.2927,-102.9942,-3487.6934,82.0042754171,28.9267536136,84.2096945169,-26.0225812365,-89.0239662384,-37.1549296126,29.9788982507,18.0133141036,21.4488282666,-32.7614828897,1.9412141768,25.0327268239,21.095,-6.0906,9.5027,-0.09676,-0.00372,0.13004,0.0019,0.00182,0.002,0.00145,0.00155,0.0014,0.036,0.0385,0.0405,passive,2
5.0805,rehab,danger_fast_jerk,36.0141938693,-667.1941851636,299.8127947272,-177.3854424725,0.1425359682,-149.9753756239,-514.2635,-8.4935,362.444,2144.0311,-108.3149,-3044.6709,82.5756520624,29.3017285679,84.6562291719,-26.712715678,-88.8983081608,-36.6879345557,29.1950200566,14.7410704205,21.1317514308,-30.0379271561,2.5321014339,24.6251953615,19.6731,-5.4922,9.6488,-0.09152,0.00769,0.12226,0.0019,0.00182,0.002,0.00145,0.00155,0.0014,0.036,0.0385,0.0405,passive,2
5.1005,rehab,danger_fast_jerk,26.1812463213,-667.4482630761,306.5853259214,-177.389030861,0.1459078973,-149.9672724665,-476.4712,-8.4481,305.829,2175.0187,82.7361,-2840.9322,83.1720762193,29.5163964304,85.0549645741,-27.2240983227,-88.9226821811,-36.1699217982,26.4624836939,11.6867241272,16.7956590782,-26.5896347709,-0.3635692321,24.8896198533,20.9449,-5.8396,12.0714,-0.10953,0.00422,0.1288,0.0019,0.00182,0.002,0.00145,0.00155,0.0014,0.036,0.0385,0.0405,passive,2
5.1205,rehab,danger_fast_jerk,16.9553457567,-667.5321076013,312.0459530884,-177.387277003,0.138932072,-149.9704572494,-427.2627,-5.184,248.8068,3062.3915,51.9579,-2813.1082,83.6341514101,29.769197533,85.3280555351,-27.7763010689,-88.9128509301,-35.6923497616,22.493795483,10.6290793093,16.3103547565,-22.4581915629,1.0690306587,20.3969049828,21.5461,-6.3706,13.0279,-0.11487,0.02006,0.12524,0.0019,0.00182,0.002,0.00145,0.00155,0.0014,0.036,0.0385,0.0405,passive,2
