t,trajectory_type,trajectory_variant,x,y,z,rx,ry,rz,vx,vy,vz,ax,ay,az,j1,j2,j3,j4,j5,j6,dj1,dj2,dj3,dj4,dj5,dj6,fx,fy,fz,tx,ty,tz,Mx,My,Mz,Bx,By,Bz,Kx,Ky,Kz,mode,comfort
0.0012,rehab,safe_midrange_fast,80.21023542704785,-666.6361074900034,262.4729693450893,-177.67221198028315,0.3042756385179173,-149.77758646637216,0.8168,0.1937,-0.5003,-26.6987,-7.0628,17.3626,84.42730743106048,30.066330409286046,85.67872906675433,-27.486512925889755,-89.11293877495659,-35.89181688096788,-0.0,-0.0,-0.007593891408183787,-0.027364095052083332,0.06785074869791667,-0.0,3.5429,2.4185,1.6565,0.00453,0.01628,-0.05456,0.0011708819074556231,0.0010010027326643467,0.0011417509522289038,0.00044762957259081304,0.000502525654155761,0.0004279237473383546,0.008696045726537704,0.009902416728436947,0.011168004013597965,passive,0
0.0217,rehab,safe_midrange_fast,80.21021809736736,-666.6361117723106,262.4732224165228,-177.67215366566327,0.3042755680563384,-149.77760082315214,0.5521,0.1235,-0.3489,-24.0998,-5.9987,16.248,84.42730063259012,30.066310013874922,85.67873586522471,-27.486546834309895,-89.11290486653645,-35.891808403862846,-0.0,-0.0,-0.018988127755646657,-0.030356513129340276,0.06785074869791667,-0.0,3.3833,2.4633,1.3267,0.00569,0.0076,-0.05385,0.0011708819074556231,0.0010010027326643467,0.0011417509522289038,0.00044762957259081304,0.000502525654155761,0.0004279237473383546,0.008696045726537704,0.009902416728436947,0.011168004013597965,passive,0
0.0416,rehab,safe_midrange_fast,80.21032770465293,-666.6361097494716,262.4735437003663,-177.67212308347277,0.30427510194125806,-149.77761022460797,0.0548,0.0026,-0.0401,-19.3075,-3.9513,14.3317,84.42730743106048,30.0662896184638,85.67872226828396,-27.48653835720486,-89.11288791232639,-35.89179144965278,-0.0,-0.0,0.02546027155205755,0.030644734700520832,-0.06785074869791667,-0.0,3.1834,2.4172,1.8884,-0.00857,0.01524,-0.05673,0.0011708819074556231,0.0010010027326643467,0.0011417509522289038,0.00044762957259081304,0.000502525654155761,0.0004279237473383546,0.008696045726537704,0.009902416728436947,0.011168004013597965,passive,0
0.0616,rehab,safe_midrange_fast,80.21039203017408,-666.6360772531519,262.4739523355035,-177.67205369504904,0.3042667344982505,-149.7776092631972,-0.3996,-0.0846,0.2934,-15.596,-2.0733,13.3144,84.42730743106048,30.06625562611193,85.67872906675433,-27.486572265625,-89.11285400390625,-35.89179144965278,-0.0,0.05441495687654703,-0.00015636481861076732,0.016242133246527776,-0.0,-0.0,3.2491,2.2923,1.7792,0.01006,0.01667,-0.04998,0.0011708819074556231,0.0010010027326643467,0.0011417509522289038,0.00044762957259081304,0.000502525654155761,0.0004279237473383546,0.008696045726537704,0.009902416728436947,0.011168004013597965,passive,0
0.0814,rehab,safe_midrange_fast,80.20989225075529,-666.6359031609816,262.4754657290408,-177.67194031759047,0.3042059194622134,-149.77765573039696,-0.7835,-0.1323,0.6328,-13.346,-0.5055,13.3817,84.42725984176786,30.066126455174814,85.67872226828396,-27.486563788519966,-89.11283704969618,-35.89179144965278,-0.0,-0.0,0.002753380501624381,0.027126736111111112,0.06785074869791667,-0.0,3.2557,2.2715,2.4294,0.02151,0.01501,-0.05288,0.0011708819074556231,0.0010010027326643467,0.0011417509522289038,0.00044762957259081304,0.000502525654155761,0.0004279237473383546,0.008696045726537704,0.009902416728436947,0.011168004013597965,passive,0
0.1014,rehab,safe_midrange_fast,80.20563147819112,-666.6356399986546,262.48228111988226,-177.67147179776842,0.3038793481994898,-149.77803509396603,-0.9909,-0.1234,0.9779,-11.9969,0.615,13.5858,84.42688592589728,30.065582577544863,85.67862708969872,-27.486495971679688,-89.11282857259114,-35.891782972547745,-0.05441495687654703,-0.05441495687654703,-0.010483241317295793,0.0003136528862847222,-0.06785074869791667,-0.0,3.3463,2.0825,2.3837,0.03504,0.00794,-0.05923,0.0011708819074556231,0.0010010027326643467,0.0011417509522289038,0.00044762957259081304,0.000502525654155761,0.0004279237473383546,0.008696045726537704,0.009902416728436947,0.011168004013597965,passive,0
0.1213,rehab,safe_midrange_fast,80.18565527513664,-666.6379273522159,262.5021859823327,-177.67002475186823,0.30285875705155896,-149.77972102075142,-1.1582,-0.0627,1.2887,-11.1171,1.7839,14.8428,84.42516591289255,30.064250077351485,85.67796083960202,-27.48626708984375,-89.11281161838107,-35.891808403862846,-0.16324487062964108,-0.10882991375309406,-0.08667369880298577,0.0003475613064236111,-0.0,-0.0,3.4918,2.1091,3.1612,0.04012,0.00648,-0.06523,0.0011708819074556231,0.0010010027326643467,0.0011417509522289038,0.00044762957259081304,0.000502525654155761,0.0004279237473383546,0.008696045726537704,0.009902416728436947,0.011168004013597965,passive,0
0.1416,rehab,safe_midrange_fast,80.11961021868352,-666.6465539497838,262.5511604791378,-177.66748541745147,0.30114389872615854,-149.7847016002405,-1.352,-0.0019,1.4476,-12.9389,2.9721,19.5603,84.4194755931892,30.061211161094135,85.67543860709313,-27.483749389648438,-89.11270989312065,-35.89247809516059,-0.2176666259765625,-0.10882991375309406,-0.10255492559754022,0.13570149739583334,-0.0,-0.13570149739583334,2.4374,1.7316,1.5213,-0.00463,0.01568,-0.04289,0.0011708819074556231,0.0010010027326643467,0.0011417509522289038,0.00044762957259081304,0.000502525654155761,0.0004279237473383546,0.008696045726537704,0.009902416728436947,0.011168004013597965,passive,0
0.1617,rehab,safe_midrange_fast,80.08046967959402,-666.6490903226254,262.59460551238544,-177.66625191764976,0.300406149772174,-149.78544100795756,-1.7311,0.0435,1.8718,-20.591,3.3549,28.3107,84.41659984022084,30.058994859752087,85.67360302009205,-27.480799357096352,-89.11257425944011,-35.89442782931857,-0.16324487062964108,-0.16324487062964108,-0.14116343885365099,0.2569495307074653,-0.0,-0.20355224609375,2.0721,1.1973,-0.0698,-0.02069,0.00836,-0.03555,0.0011708819074556231,0.0010010027326643467,0.0011417509522289038,0.00044762957259081304,0.000502525654155761,0.0004279237473383546,0.008696045726537704,0.009902416728436947,0.011168004013597965,passive,0
0.1814,rehab,safe_midrange_fast,80.06127955932189,-666.6422510495623,262.64466142349283,-177.6662238602308,0.3005112402821077,-149.78276447791865,-2.1494,0.0834,2.428,-32.8235,2.8154,39.2916,84.41428156182317,30.054276721312267,85.67080205029781,-27.473373413085938,-89.11231146918402,-35.89948018391927,-0.05441495687654703,-0.16324487062964108,-0.08968542117883663,0.4043663872612847,0.06785074869791667,-0.2714114718967014,1.7806,0.9413,0.1124,-0.01439,0.00721,-0.03239,0.0011708819074556231,0.0010010027326643467,0.0011417509522289038,0.00044762957259081304,0.000502525654155761,0.0004279237473383546,0.008696045726537704,0.009902416728436947,0.011168004013597965,passive,0
0.2017,rehab,safe_midrange_fast,80.04039066618195,-666.6339648220472,262.674384141612,-177.66831717767423,0.3020856533607239,-149.78000802314756,-2.7701,0.1461,3.2829,-48.5822,1.6268,53.4439,84.41235079623685,30.051475751518023,85.66916361893757,-27.46618482801649,-89.11214192708333,-35.90409172905816,-0.16324487062964108,-0.16324487062964108,-0.10068534624458539,0.5079735649956597,-0.0,-0.4071129692925347,1.4606,1.001,0.7693,-0.012,0.01436,-0.02781,0.0011708819074556231,0.0010010027326643467,0.0011417509522289038,0.00044762957259081304,0.000502525654155761,0.0004279237473383546,0.008696045726537704,0.009902416728436947,0.011168004013597965,passive,0
0.2214,rehab,safe_midrange_fast,79.96504958861873,-666.6293175357192,262.7361434529568,-177.67193809190567,0.30476205681103896,-149.77738184665827,-3.9384,0.2131,4.706,-63.6881,0.4708,67.6865,84.40568149679959,30.046648837552212,85.66445907743851,-27.451892428927952,-89.11186218261719,-35.913238525390625,-0.32649653972965653,-0.32649653972965653,-0.31580934430112934,0.6813897026909722,-0.0,-0.4749637179904514,1.1311,0.648,-0.3703,-0.02882,0.01287,-0.022,0.0011708819074556231,0.0010010027326643467,0.0011417509522289038,0.00044762957259081304,0.000502525654155761,0.0004279237473383546,0.008696045726537704,0.009902416728436947,0.011168004013597965,passive,0
0.2419,rehab,safe_midrange_fast,79.88732667524145,-666.6309699081971,262.8214667036373,-177.6722744351769,0.30502386725894215,-149.77601542077912,-5.4313,0.2156,6.2201,-80.3353,-0.6118,81.5527,84.39887622795483,30.040822548441366,85.65874836232402,-27.43970235188802,-89.11165025499132,-35.92127482096354,-0.489748208829672,-0.489748208829672,-0.4341435196376083,0.8548821343315972,-0.0,-0.6106736924913194,0.8795,0.5912,-0.3603,-0.03288,0.00987,-0.01504,0.0011708819074556231,0.0010010027326643467,0.0011417509522289038,0.00044762957259081304,0.000502525654155761,0.0004279237473383546,0.008696045726537704,0.009902416728436947,0.011168004013597965,passive,0
0.2615,rehab,safe_midrange_fast,79.73356449739855,-666.6291041872252,263.0092975634165,-177.67125457908782,0.30423121215253623,-149.77416731570605,-7.3813,0.1621,7.973,-94.8093,-1.5964,90.8936,84.38538806273205,30.02737517404084,85.6480611668955,-27.416432698567707,-89.111328125,-35.93634711371528,-0.7618297916827815,-0.6529998779296875,-0.5157523580116801,1.1477491590711806,0.06785074869791667,-0.678524441189236,0.364,0.7609,-1.0419,-0.03237,0.02402,0.00748,0.0011708819074556231,0.0010010027326643467,0.0011417509522289038,0.00044762957259081304,0.000502525654155761,0.0004279237473383546,0.008696045726537704,0.009902416728436947,0.011168004013597965,passive,0
0.2817,rehab,safe_midrange_fast,79.59751981354121,-666.6264686558148,263.158706192579,-177.6709971370013,0.3040563142342768,-149.77345730728842,-9.4513,0.0864,9.8935,-105.9844,-2.6233,96.3707,84.37344315028426,30.016409241326965,85.63973983915726,-27.39710489908854,-89.11101447211371,-35.948783026801216,-0.8162515470297029,-0.7074148348062346,-0.5497719037650836,1.3174184163411458,-0.0,-0.8820851643880208,-0.1799,0.9849,-0.3801,-0.04648,0.00644,0.0132,0.0011708819074556231,0.0010010027326643467,0.0011417509522289038,0.00044762957259081304,0.000502525654155761,0.0004279237473383546,0.008696045726537704,0.009902416728436947,0.011168004013597965,passive,0
0.3014,rehab,safe_midrange_fast,79.34308115382584,-666.620049193092,263.438254410588,-177.67007839941155,0.3033424484667134,-149.7726873923239,-11.5947,0.0299,11.9648,-116.7834,-3.2307,103.5119,84.35110337663404,29.995680705155475,85.62474241351137,-27.36189948187934,-89.11049736870659,-35.97149319118923,-1.0339181730062654,-0.9250814607827971,-0.7071225005801361,1.6249169243706596,-0.0,-1.0177951388888888,-0.2754,1.228,0.5924,-0.01752,-0.01382,0.01687,0.0011708819074556231,0.0010010027326643467,0.0011417509522289038,0.00044762957259081304,0.000502525654155761,0.0004279237473383546,0.008696045726537704,0.009902416728436947,0.011168004013597965,passive,0
0.3215,rehab,safe_midrange_fast,79.0889320046906,-666.6191553073043,263.6847736380523,-177.67143226090414,0.30424178619645575,-149.77188909630146,-13.9824,-0.0104,14.1155,-126.9444,-2.8139,113.9124,84.32883838615795,29.977834720422727,85.6097925771581,-27.326838175455727,-89.11000569661458,-35.99416944715712,-1.251584798982828,-0.87066650390625,-0.7760929825282333,1.872651841905382,-0.0,-1.2213473849826388,-0.2412,0.8995,0.1641,-0.01324,0.00246,0.01691,0.0011708819074556231,0.0010010027326643467,0.0011417509522289038,0.00044762957259081304,0.000502525654155761,0.0004279237473383546,0.008696045726537704,0.009902416728436947,0.011168004013597965,passive,0
0.3412,rehab,safe_midrange_fast,78.85141200830095,-666.6206265316434,263.90724100502325,-177.67284985995005,0.30522693790360356,-149.77156388852853,-16.4772,-0.0572,16.1724,-132.6581,-1.5979,122.8942,84.3080486637531,29.961939896687422,85.59585571289062,-27.294692993164062,-89.10953097873264,-36.014929877387154,-1.4148296696124691,-1.1427480867593596,-0.9356122913927135,2.1902974446614585,-0.0,-1.357057359483507,-0.0301,0.4833,0.7899,-0.02176,-0.00788,0.00092,0.0011708819074556231,0.0010010027326643467,0.0011417509522289038,0.00044762957259081304,0.000502525654155761,0.0004279237473383546,0.008696045726537704,0.009902416728436947,0.011168004013597965,passive,0
0.3615,rehab,safe_midrange_fast,78.42615499267012,-666.6229656664786,264.3194007918546,-177.67357478589764,0.3056590929102793,-149.7717426733158,-19.0573,-0.0988,18.4175,-134.9454,-0.2678,127.865,84.27083383692373,29.93249572149598,85.57092572202777,-27.23844740125868,-89.10871717664931,-36.051339043511284,-1.686918050935953,-1.305999755859375,-1.2019559652498453,2.5085279676649304,-0.0,-1.5606180826822915,0.1452,0.1833,0.8554,-0.00121,-0.00406,-0.00668,0.0011708819074556231,0.0010010027326643467,0.0011417509522289038,0.00044762957259081304,0.000502525654155761,0.0004279237473383546,0.008696045726537704,0.009902416728436947,0.011168004013597965,passive,0
0.3817,rehab,safe_midrange_fast,78.09763891727047,-666.630868917597,264.64282481944434,-177.67311790669564,0.30529246614175143,-149.77225440677395,-21.9084,-0.1219,21.1454,-138.3167,0.6498,130.7812,84.24213749347346,29.910149149375385,85.55057790019724,-27.195553249782986,-89.10807291666667,-36.079042222764755,-1.9589996337890625,-1.5236663818359375,-1.317842691251547,2.78061760796441,-0.0,-1.832029554578993,0.1231,0.1954,0.6719,-0.03295,0.01879,-0.01031,0.0011708819074556231,0.0010010027326643467,0.0011417509522289038,0.00044762957259081304,0.000502525654155761,0.0004279237473383546,0.008696045726537704,0.009902416728436947,0.011168004013597965,passive,0
0.4013,rehab,safe_midrange_fast,77.52617312691449,-666.6307499006822,265.2048355895955,-177.67202966929062,0.30439647513698315,-149.7736935928005,-25.2801,-0.0861,24.5,-138.9854,1.0634,128.6333,84.19210754998839,29.86967105676632,85.5181084056892,-27.12265862358941,-89.10698784722221,-36.126810709635414,-2.176666259765625,-1.7413330078125,-1.448074189743193,3.2953898111979165,0.06785074869791667,-2.171291775173611,0.0505,0.3195,-0.0928,-0.02822,-0.00557,-0.00456,0.0011708819074556231,0.0010010027326643467,0.0011417509522289038,0.00044762957259081304,0.000502525654155761,0.0004279237473383546,0.008696045726537704,0.009902416728436947,0.011168004013597965,passive,0
0.4214,rehab,safe_midrange_fast,77.09675802317375,-666.6321053544234,265.6140772573214,-177.6718063636137,0.304216562596749,-149.77487278952665,-27.6062,-0.0075,26.9163,-134.7465,1.1533,120.0305,84.15451880728844,29.84034245557124,85.49394664197865,-27.068439059787327,-89.10612318250868,-36.162609524197045,-2.3943328857421875,-2.0134145906656093,-1.5901214297455135,3.557908799913194,-0.0,-2.307001749674479,-0.2171,0.4245,-0.7328,-0.03819,0.01206,0.00705,0.0011708819074556231,0.0010010027326643467,0.0011417509522289038,0.00044762957259081304,0.000502525654155761,0.0004279237473383546,0.008696045726537704,0.009902416728436947,0.011168004013597965,passive,0
0.4416,rehab,safe_midrange_fast,76.3968528855429,-666.6288507887274,266.27645531227745,-177.67192408941168,0.30432444082434673,-149.77552703847087,-30.232,0.0324,29.2526,-129.0154,1.0429,107.7605,84.09318980604115,29.792352053198485,85.45546729965966,-26.980116102430554,-89.10463121202257,-36.222288343641495,-2.8296661376953125,-2.067836346012531,-1.660988684928063,3.8478936089409723,0.06785074869791667,-2.6462639702690973,-0.4101,0.699,-0.2783,-0.04126,0.00448,0.01238,0.0011708819074556231,0.0010010027326643467,0.0011417509522289038,0.00044762957259081304,0.000502525654155761,0.0004279237473383546,0.008696045726537704,0.009902416728436947,0.011168004013597965,passive,0
0.4613,rehab,safe_midrange_fast,75.90407813009445,-666.6291509539751,266.76315182224243,-177.67077430979054,0.303502220559435,-149.77463918253187,-32.4967,0.0364,30.8743,-122.1061,0.7465,93.4293,84.0500263176342,29.757707048170637,85.42675056079827,-26.91693623860677,-89.10354614257812,-36.265623304578995,-2.7752511808187657,-2.2310880151125465,-1.8562815449025372,4.0648142496744795,0.06785074869791667,-2.8498246934678817,-0.5001,0.7569,-0.3405,-0.04782,0.01595,0.01159,0.0011708819074556231,0.0010010027326643467,0.0011417509522289038,0.00044762957259081304,0.000502525654155761,0.0004279237473383546,0.008696045726537704,0.009902416728436947,0.011168004013597965,passive,0
0.4816,rehab,safe_midrange_fast,75.1133275471095,-666.6273049877348,267.5258711960111,-177.67025875783776,0.3031508886733323,-149.7725537352644,-35.0209,0.0123,32.4798,-112.2929,0.189,77.1742,83.98073630757851,29.703237703531094,85.38144555422339,-26.815787421332466,-89.1017829047309,-36.335856119791664,-2.884087893042234,-2.448754641089109,-2.0108991566270884,4.354146321614583,0.13570149739583334,-3.2569376627604165,-0.3133,0.5227,-0.6033,-0.03073,0.00455,0.01153,0.0011708819074556231,0.0010010027326643467,0.0011417509522289038,0.00044762957259081304,0.000502525654155761,0.0004279237473383546,0.008696045726537704,0.009902416728436947,0.011168004013597965,passive,0
0.5012,rehab,safe_midrange_fast,74.39942748869802,-666.6250380038028,268.19304841768553,-177.67043532748636,0.3033164351751602,-149.7711945756348,-37.5549,-0.0119,34.1712,-105.744,-0.3625,67.5996,83.91817678319346,29.65549884456219,85.34168130100363,-26.726252237955727,-89.10018920898438,-36.39876471625434,-3.2105844327718907,-2.3943328857421875,-2.054137428208153,4.710634019639757,0.06785074869791667,-3.392647637261285,-0.0423,0.358,0.0353,-0.01896,0.00752,0.00495,0.0011708819074556231,0.0010010027326643467,0.0011417509522289038,0.00044762957259081304,0.000502525654155761,0.0004279237473383546,0.008696045726537704,0.009902416728436947,0.011168004013597965,passive,0
0.5212,rehab,safe_midrange_fast,73.78339851996722,-666.6270229804928,268.7461388010178,-177.67081140945194,0.30358495774158684,-149.77121818764695,-39.2372,-0.0125,35.1839,-104.1324,-0.3712,67.1224,83.86424451771349,29.616258073561262,85.3080696634727,-26.651424831814236,-89.098875257704,-36.4518313937717,-3.319421144995359,-2.448754641089109,-2.13909111400642,4.722340901692708,0.06785074869791667,-3.596208360460069,0.015,0.084,0.3555,-0.01696,0.00479,-0.0056,0.0011708819074556231,0.0010010027326643467,0.0011417509522289038,0.00044762957259081304,0.000502525654155761,0.0004279237473383546,0.008696045726537704,0.009902416728436947,0.011168004013597965,passive,0
0.5413,rehab,safe_midrange_fast,72.79655430798778,-666.6325906026917,269.59500464356256,-177.67215057621453,0.3045522457455681,-149.77262979187532,-41.1656,0.003,36.486,-94.9497,0.0036,62.5631,83.77788354854772,29.55617319239248,85.25590500029007,-26.535135904947914,-89.09680684407552,-36.53547498914931,-3.8635911091719524,-2.503169597965656,-2.238763488165223,5.030161539713542,0.06785074869791667,-3.7319098578559027,0.2163,0.1465,0.5028,0.00479,-0.01203,-0.00302,0.0011708819074556231,0.0010010027326643467,0.0011417509522289038,0.00044762957259081304,0.000502525654155761,0.0004279237473383546,0.008696045726537704,0.009902416728436947,0.011168004013597965,passive,0
0.5614,rehab,safe_midrange_fast,72.1021144604669,-666.6313341076666,270.1886463466727,-177.6727125444561,0.3049675804278239,-149.77385617338115,-43.2399,0.0164,37.9106,-81.335,0.1714,52.412,83.71706443257851,29.513628364789604,85.2204713726988,-26.454781426323784,-89.09534030490451,-36.59416198730469,-3.809169353825031,-2.6664212670656715,-2.2873657528716738,5.054745144314236,0.13570149739583334,-3.7319098578559027,0.0965,0.0104,0.7198,-0.00374,-0.00298,-0.00744,0.0011708819074556231,0.0010010027326643467,0.0011417509522289038,0.00044762957259081304,0.000502525654155761,0.0004279237473383546,0.008696045726537704,0.009902416728436947,0.011168004013597965,passive,0
0.5812,rehab,safe_midrange_fast,71.03720410154992,-666.6290094602235,271.124082231061,-177.67199860621042,0.3044175960353652,-149.77530318815803,-44.15,0.0027,38.3742,-71.1584,0.0463,42.2653,83.62379621751238,29.44709853370591,85.16457434928063,-26.330668131510414,-89.09310234917534,-36.684578789605034,-3.918006066048499,-2.8296661376953125,-2.4015392643390316,5.184326171875,0.06785074869791667,-3.9354705810546875,-0.1541,0.0204,-0.2959,-0.01263,0.00947,0.00483,0.0011708819074556231,0.0010010027326643467,0.0011417509522289038,0.00044762957259081304,0.000502525654155761,0.0004279237473383546,0.008696045726537704,0.009902416728436947,0.011168004013597965,passive,0
0.6018,rehab,safe_midrange_fast,70.31680633744529,-666.6265633851981,271.770744402367,-177.6707182262143,0.3034607770390449,-149.77516280421005,-46.4605,0.0052,40.0678,-60.5582,-0.2458,30.2694,83.560686017027,29.401365223497447,85.12588425438003,-26.246058146158852,-89.091551038954,-36.74686855740017,-3.918006066048499,-3.047339562142249,-2.405611548093286,5.246268378363715,0.13570149739583334,-3.9354705810546875,-0.3075,0.0258,-0.4014,-0.03145,0.00275,0.00819,0.0011708819074556231,0.0010010027326643467,0.0011417509522289038,0.00044762957259081304,0.000502525654155761,0.0004279237473383546,0.008696045726537704,0.009902416728436947,0.011168004013597965,passive,0
0.6213,rehab,safe_midrange_fast,69.206452938539,-666.6251152907495,272.7465047935616,-177.6693481477209,0.30247664830540855,-149.7752109350685,-47.7331,0.0191,40.7821,-49.6236,-0.453,19.371,83.46343389832147,29.332795851301437,85.0665268095413,-26.11707051595052,-89.08912658691406,-36.84260898166232,-4.135672692025062,-2.7752511808187657,-2.5016671360129177,5.405841403537326,0.06785074869791667,-3.9354705810546875,-0.2416,0.1094,-0.179,-0.01116,0.00013,0.00746,0.0011708819074556231,0.0010010027326643467,0.0011417509522289038,0.00044762957259081304,0.000502525654155761,0.0004279237473383546,0.008696045726537704,0.009902416728436947,0.011168004013597965,passive,0
0.6416,rehab,safe_midrange_fast,68.4474390369047,-666.6264048602352,273.3882793656555,-177.6698269925064,0.30284438536306224,-149.7750071411849,-47.1759,-0.0063,39.7425,-40.5257,-0.382,12.0906,83.3969788504119,29.28804831929726,85.02627306645459,-26.029578314887154,-89.0874735514323,-36.90828111436632,-4.244502605778156,-2.884087893042234,-2.5533355108582145,5.5656178792317705,0.06785074869791667,-4.0033213297526045,-0.3554,-0.052,-0.4786,-0.02343,0.0017,0.00552,0.0011708819074556231,0.0010010027326643467,0.0011417509522289038,0.00044762957259081304,0.000502525654155761,0.0004279237473383546,0.008696045726537704,0.009902416728436947,0.011168004013597965,passive,0
0.6615,rehab,safe_midrange_fast,67.28213514191592,-666.6295215507783,274.34264640755686,-177.671682036893,0.3041840119477776,-149.7756843673547,-48.8329,-0.037,40.4167,-33.8049,-0.1591,7.0589,83.29498139938505,29.22174283773592,84.96552193518913,-25.89736090766059,-89.08501519097221,-37.008115980360245,-4.244502605778156,-2.7208362239422184,-2.6141002390644337,5.56304931640625,0.13570149739583334,-4.206882052951388,-0.3698,-0.0333,-0.1765,-0.02797,-0.00894,0.00706,0.0011708819074556231,0.0010010027326643467,0.0011417509522289038,0.00044762957259081304,0.000502525654155761,0.0004279237473383546,0.008696045726537704,0.009902416728436947,0.011168004013597965,passive,0
0.6812,rehab,safe_midrange_fast,66.49376555181203,-666.6324072678182,274.97947545105876,-177.67287433359695,0.30505267672694536,-149.77665439397262,-49.268,-0.0377,40.3192,-24.0811,-0.223,-1.4311,83.22599052202584,29.177736339002553,84.92462913588722,-25.80905490451389,-89.08336215549045,-37.07514444986979,-4.4077542748781715,-2.938502849918781,-2.5563132408821936,5.376247829861111,0.13570149739583334,-4.206882052951388,-0.3594,-0.115,-0.3938,-0.02159,0.00391,0.01056,0.0011708819074556231,0.0010010027326643467,0.0011417509522289038,0.00044762957259081304,0.000502525654155761,0.0004279237473383546,0.008696045726537704,0.009902416728436947,0.011168004013597965,passive,0
0.7014,rehab,safe_midrange_fast,65.30526232441785,-666.6295040472178,275.9447698809545,-177.67414856791535,0.3060226636518558,-149.77663396196337,-49.2866,-0.0297,40.0473,-19.6925,-0.4785,-6.7443,83.12189914212368,29.110560653233293,84.86366725204014,-25.676354302300346,-89.08078511555989,-37.1777598063151,-4.462176030225093,-2.884087893042234,-2.5222053150139234,5.491290622287326,0.13570149739583334,-4.342592027452257,-0.3256,0.0266,-0.586,-0.00377,-0.00536,0.01412,0.0011708819074556231,0.0010010027326643467,0.0011417509522289038,0.00044762957259081304,0.000502525654155761,0.0004279237473383546,0.008696045726537704,0.009902416728436947,0.011168004013597965,passive,0
0.7215,rehab,safe_midrange_fast,64.50254873839204,-666.6297475576035,276.5944083702771,-177.6742300427455,0.3061140860824548,-149.77706878446378,-50.3237,-0.0177,40.668,-17.2489,-0.3724,-10.5913,83.0516233538637,29.065779128877242,84.82231215675279,-25.58810763888889,-89.07903883192274,-37.246602376302086,-4.353339318001624,-2.8296661376953125,-2.5478151529142172,5.626678466796875,0.13570149739583334,-4.071180555555555,-0.317,-0.0057,-0.3882,-0.01751,-0.01819,0.01136,0.0011708819074556231,0.0010010027326643467,0.0011417509522289038,0.00044762957259081304,0.000502525654155761,0.0004279237473383546,0.008696045726537704,0.009902416728436947,0.011168004013597965,passive,0
0.7412,rehab,safe_midrange_fast,63.48629645959092,-666.6301991032403,277.40965480598976,-177.67346230742194,0.3055176284770695,-149.77840788316874,-50.6073,-0.0107,40.474,-5.0128,-0.0575,-25.0918,82.96267216748531,29.009705345229346,84.77064378190748,-25.478837754991318,-89.07688564724393,-37.33297559950087,-4.4077542748781715,-2.7208362239422184,-2.610490251295637,5.443929036458333,0.13570149739583334,-4.410442776150173,-0.5887,0.0224,-0.2889,-0.03175,0.00827,0.01303,0.0011708819074556231,0.0010010027326643467,0.0011417509522289038,0.00044762957259081304,0.000502525654155761,0.0004279237473383546,0.008696045726537704,0.009902416728436947,0.011168004013597965,passive,0
0.7613,rehab,safe_midrange_fast,62.289255197143625,-666.6298982865826,278.3863161091386,-177.6713165725196,0.30390154174425954,-149.77828409831673,-50.1929,-0.0404,39.3642,-0.5816,0.1054,-37.8761,82.85788054513459,28.94298515697517,84.70858734433014,-25.349748399522568,-89.07427469889323,-37.436421712239586,-4.4077542748781715,-2.6664212670656715,-2.4615561608040686,5.329979790581597,0.13570149739583334,-4.139031304253472,-0.509,0.0048,0.217,-0.01439,-0.01111,0.01401,0.0011708819074556231,0.0010010027326643467,0.0011417509522289038,0.00044762957259081304,0.000502525654155761,0.0004279237473383546,0.008696045726537704,0.009902416728436947,0.011168004013597965,passive,0
0.7815,rehab,safe_midrange_fast,61.4934980686383,-666.6309808138311,279.0181720846133,-177.67041237830148,0.3032536203290811,-149.77766370807544,-50.6078,-0.0753,38.6735,-5.5471,0.2625,-43.9607,82.78823021614906,28.90008001044245,84.6677829251431,-25.265138414171005,-89.07249450683594,-37.50573052300347,-4.625420900854734,-2.7208362239422184,-2.534911656143642,5.24748060438368,0.13570149739583334,-4.206882052951388,-0.6109,-0.0813,0.1456,-0.01761,-0.01678,0.01063,0.0011708819074556231,0.0010010027326643467,0.0011417509522289038,0.00044762957259081304,0.000502525654155761,0.0004279237473383546,0.008696045726537704,0.009902416728436947,0.011168004013597965,passive,0
0.8013,rehab,safe_midrange_fast,60.283364225328846,-666.6335600545193,279.921700988938,-177.67078979408927,0.303461577851438,-149.77802130288495,-50.3052,-0.0545,37.4757,-0.9979,0.5054,-53.3896,82.68235763700882,28.838655830609916,84.60879259770459,-25.141270955403645,-89.06992594401042,-37.60984632703993,-4.4077542748781715,-2.448754641089109,-2.44841471757039,5.091544257269965,0.06785074869791667,-4.206882052951388,-0.6987,-0.1175,0.0517,-0.0489,-0.01454,0.01362,0.0011708819074556231,0.0010010027326643467,0.0011417509522289038,0.00044762957259081304,0.000502525654155761,0.0004279237473383546,0.008696045726537704,0.009902416728436947,0.011168004013597965,passive,0
0.8213,rehab,safe_midrange_fast,59.470002962161765,-666.6346276731122,280.5018086090716,-177.671328684823,0.3038590480408721,-149.7789503853294,-49.6316,-0.0089,35.9064,3.6748,0.6641,-57.3819,82.61119804760017,28.799041143738396,84.5710542886564,-25.061230129665798,-89.06817966037326,-37.679172092013886,-4.462176030225093,-2.3943328857421875,-2.276664960502398,4.907870822482638,0.06785074869791667,-4.342592027452257,-0.6768,0.067,0.1387,-0.01562,-0.01085,0.01834,0.0011708819074556231,0.0010010027326643467,0.0011417509522289038,0.00044762957259081304,0.000502525654155761,0.0004279237473383546,0.008696045726537704,0.009902416728436947,0.011168004013597965,passive,0
0.8416,rehab,safe_midrange_fast,58.271969851984814,-666.6364045317727,281.33653124090813,-177.67223068988423,0.30451575516965873,-149.77900338994337,-50.3926,0.0131,35.068,0.3184,0.6784,-53.4236,82.5063928283087,28.742165140586323,84.51647616849087,-24.94564480251736,-89.06557718912761,-37.7826182047526,-4.4077542748781715,-2.3399179288656407,-2.1970412754776456,4.648047553168403,0.13570149739583334,-4.342592027452257,-0.6861,-0.009,0.0833,-0.02192,-0.01672,0.01799,0.0011708819074556231,0.0010010027326643467,0.0011417509522289038,0.00044762957259081304,0.000502525654155761,0.0004279237473383546,0.008696045726537704,0.009902416728436947,0.011168004013597965,passive,0
0.8616,rehab,safe_midrange_fast,57.485576671011955,-666.6375167546183,281.87845346350593,-177.67242818065,0.30469584152845636,-149.777759947711,-51.1413,0.021,34.6037,-0.0784,0.378,-51.7375,82.43759230811997,28.7053378265683,84.4810425408996,-24.871097140842014,-89.06378851996527,-37.85181681315104,-4.4077542748781715,-2.3943328857421875,-2.2056549374419863,4.58695305718316,0.13570149739583334,-4.274732801649305,-0.7412,-0.1539,-0.2094,-0.02266,-0.0151,0.01481,0.0011708819074556231,0.0010010027326643467,0.0011417509522289038,0.00044762957259081304,0.000502525654155761,0.0004279237473383546,0.008696045726537704,0.009902416728436947,0.011168004013597965,passive,0
0.8814,rehab,safe_midrange_fast,56.311677219927944,-666.6310512945498,282.68137307015166,-177.67196101541612,0.30441482498198,-149.77565616695577,-50.5174,0.0281,33.3656,1.8358,-0.2261,-49.839,82.33479943605933,28.649909897605973,84.43029195955484,-24.76242913140191,-89.06106736924913,-37.955474853515625,-4.298924361125077,-2.3399179288656407,-2.0686317670463334,4.560504489474826,0.06785074869791667,-4.274732801649305,-0.7956,-0.1632,-0.1679,-0.0238,-0.01566,0.01573,0.0011708819074556231,0.0010010027326643467,0.0011417509522289038,0.00044762957259081304,0.000502525654155761,0.0004279237473383546,0.008696045726537704,0.009902416728436947,0.011168004013597965,passive,0
0.9016,rehab,safe_midrange_fast,55.51688019358777,-666.6292154750957,283.20938521635253,-177.67088938361655,0.30358413062477246,-149.77466053998512,-49.7219,0.0136,32.0394,8.7504,-0.598,-47.9911,82.2652510841294,28.613653655099398,84.39695905930925,-24.692153930664062,-89.05927022298177,-38.025215996636284,-4.4077542748781715,-2.176666259765625,-2.116275447429997,4.46517096625434,0.06785074869791667,-4.410442776150173,-0.8587,-0.1617,0.1705,-0.02536,-0.01345,0.01566,0.0011708819074556231,0.0010010027326643467,0.0011417509522289038,0.00044762957259081304,0.000502525654155761,0.0004279237473383546,0.008696045726537704,0.009902416728436947,0.011168004013597965,passive,0
0.9217,rehab,safe_midrange_fast,54.11096626417404,-666.6309517361428,284.1028412729372,-177.66980015306086,0.3026905126005337,-149.77565666341818,-49.9284,-0.0163,31.3426,20.8121,-0.3698,-46.4764,82.14232114281985,28.55283453913018,84.33936921676786,-24.571617974175346,-89.0562015109592,-38.1457773844401,-4.516590987101639,-2.0134145906656093,-2.027045523766244,4.334403143988715,0.13570149739583334,-4.342592027452257,-0.8339,-0.1547,0.178,-0.01997,-0.0062,0.01857,0.0011708819074556231,0.0010010027326643467,0.0011417509522289038,0.00044762957259081304,0.000502525654155761,0.0004279237473383546,0.008696045726537704,0.009902416728436947,0.011168004013597965,passive,0
0.9415,rehab,safe_midrange_fast,53.3001330066751,-666.6342568598038,284.59346100626425,-177.67002382331924,0.3028088686816528,-149.7768401121883,-50.1633,-0.0359,30.6622,18.9425,0.1785,-34.495,82.07146748457805,28.519712391466197,84.30691331920058,-24.50376722547743,-89.05447218153212,-38.21467929416232,-4.353339318001624,-2.067836346012531,-1.9786404147006498,4.2658233642578125,0.06785074869791667,-4.342592027452257,-0.7823,-0.2277,0.056,-0.01818,-0.0071,0.01187,0.0011708819074556231,0.0010010027326643467,0.0011417509522289038,0.00044762957259081304,0.000502525654155761,0.0004279237473383546,0.008696045726537704,0.009902416728436947,0.011168004013597965,passive,0
0.9612,rehab,safe_midrange_fast,52.50152875325438,-666.6352223917702,285.0676511068427,-177.6711658873756,0.30381084661857355,-149.77700048150427,-49.3956,-0.0399,29.716,5.7829,0.5481,-14.2612,82.0016335968924,28.487589618947247,84.2752460441967,-24.43643358018663,-89.05261569552951,-38.283589680989586,-4.298924361125077,-2.0134145906656093,-1.9485503848236385,4.218334621853298,0.13570149739583334,-4.410442776150173,-0.865,-0.3208,-0.6792,-0.01559,0.00259,0.01667,0.0011708819074556231,0.0010010027326643467,0.0011417509522289038,0.00044762957259081304,0.000502525654155761,0.0004279237473383546,0.008696045726537704,0.009902416728436947,0.011168004013597965,passive,0
0.9814,rehab,safe_midrange_fast,51.31813883696745,-666.6354172784121,285.78041881112824,-177.67246371405002,0.30486206803918975,-149.7753449239646,-48.9134,-0.0066,29.3292,-4.3709,0.6169,4.3619,81.89815407932394,28.439592418104116,84.22741200664255,-24.33586968315972,-89.04991997612846,-38.38758680555556,-4.298924361125077,-1.9589996337890625,-1.9665595328453744,4.139133029513888,0.06785074869791667,-4.614003499348958,-0.799,-0.2558,-0.1552,-0.0037,0.00802,0.01991,0.0011708819074556231,0.0010010027326643467,0.0011417509522289038,0.00044762957259081304,0.000502525654155761,0.0004279237473383546,0.008696045726537704,0.009902416728436947,0.011168004013597965,passive,0
1.0012,rehab,safe_midrange_fast,50.525243900219245,-666.6368378342337,286.24992728023216,-177.67373658808947,0.30579950499868225,-149.77462850245956,-48.2008,0.0384,29.2109,-3.5241,0.4013,12.9978,81.82885727079788,28.408292260500463,84.19522124941986,-24.268756442599827,-89.04819912380643,-38.45684475368923,-4.190087648901609,-2.0134145906656093,-2.0263248859065595,4.271435207790798,0.13570149739583334,-4.139031304253472,-0.8338,-0.3734,-0.1705,-0.01281,-0.00924,0.01462,0.0011708819074556231,0.0010010027326643467,0.0011417509522289038,0.00044762957259081304,0.000502525654155761,0.0004279237473383546,0.008696045726537704,0.009902416728436947,0.011168004013597965,passive,0
1.0217,rehab,safe_midrange_fast,49.32688160035603,-666.6344733524668,286.9679204049514,-177.6750515935807,0.306881775024164,-149.77461410833118,-49.595,0.0638,30.6131,-2.6615,-0.1316,17.7707,81.72406564844717,28.36024067189434,84.14659179083192,-24.167310926649304,-89.04552035861545,-38.56050279405382,-4.516590987101639,-2.0134145906656093,-2.0705965249845297,4.207356770833333,0.13570149739583334,-4.410442776150173,-1.0337,-0.4884,0.282,-0.04004,-0.01129,0.00681,0.0011708819074556231,0.0010010027326643467,0.0011417509522289038,0.00044762957259081304,0.000502525654155761,0.0004279237473383546,0.008696045726537704,0.009902416728436947,0.011168004013597965,passive,0
1.0414,rehab,safe_midrange_fast,48.526373943720294,-666.6307707965158,287.4752936997011,-177.6742536393208,0.3063055713344704,-149.77470670463225,-50.5729,0.0486,31.6407,-9.9939,-0.6817,21.5193,81.65404140359104,28.326445475663288,84.11281019154161,-24.09867180718316,-89.04371473524306,-38.629650539822045,-4.462176030225093,-2.067836346012531,-2.0784623552076886,4.3096669514973955,0.06785074869791667,-4.47829352484809,-0.8853,-0.422,0.4309,-0.02325,-0.01336,0.00599,0.0011708819074556231,0.0010010027326643467,0.0011417509522289038,0.00044762957259081304,0.000502525654155761,0.0004279237473383546,0.008696045726537704,0.009902416728436947,0.011168004013597965,passive,0
1.0617,rehab,safe_midrange_fast,47.31206240400849,-666.6284807287573,288.2530219726582,-177.67220836438645,0.3046245689916305,-149.7759892229087,-50.117,-0.0065,31.6019,-16.9467,-1.0974,20.653,81.54789688563582,28.27542975397393,84.06021042625503,-23.994632297092014,-89.04112074110243,-38.7333255343967,-4.571005943978187,-2.176666259765625,-2.2721575746441833,4.429168701171875,0.13570149739583334,-4.342592027452257,-0.7777,-0.4391,-0.2378,-0.01122,-0.01821,0.00721,0.0011708819074556231,0.0010010027326643467,0.0011417509522289038,0.00044762957259081304,0.000502525654155761,0.0004279237473383546,0.008696045726537704,0.009902416728436947,0.011168004013597965,passive,0
1.0814,rehab,safe_midrange_fast,46.503417678822935,-666.6305179155605,288.77096700243663,-177.67085037583337,0.30352257136113026,-149.7761993756265,-50.1037,-0.0491,31.6503,-22.529,-1.1117,18.9014,81.47726077844601,28.242158039961712,84.0240493623337,-23.924882676866318,-89.03936598036024,-38.80295647515191,-4.462176030225093,-2.067836346012531,-2.3115615089340964,4.507344563802083,0.06785074869791667,-4.47829352484809,-0.9491,-0.4492,-0.3145,-0.01604,-0.0061,0.01454,0.0011708819074556231,0.0010010027326643467,0.0011417509522289038,0.00044762957259081304,0.000502525654155761,0.0004279237473383546,0.008696045726537704,0.009902416728436947,0.011168004013597965,passive,0
1.1015,rehab,safe_midrange_fast,45.292989360647105,-666.6331483973871,289.54697004082277,-177.66918861703195,0.3022825783084282,-149.77744842570596,-49.6428,-0.0746,31.3577,-24.7867,-0.5835,18.0808,81.37152416871325,28.19269236951771,83.96909052782719,-23.819461398654514,-89.03667873806424,-38.906241522894966,-4.4077542748781715,-2.0134145906656093,-2.3094539831180385,4.37178717719184,0.06785074869791667,-4.47829352484809,-0.9772,-0.3617,-0.2534,-0.0072,0.00229,0.02339,0.0011708819074556231,0.0010010027326643467,0.0011417509522289038,0.00044762957259081304,0.000502525654155761,0.0004279237473383546,0.008696045726537704,0.009902416728436947,0.011168004013597965,passive,0
1.1216,rehab,safe_midrange_fast,44.47806144771867,-666.6346945048736,290.05151895477076,-177.66930731847236,0.3023794547815627,-149.7784863226986,-50.8743,-0.0697,32.0363,-12.4543,0.2596,12.4193,81.30035098236387,28.1606919694655,83.9325487495649,-23.748703002929688,-89.03492397732205,-38.97557576497396,-4.462176030225093,-2.0134145906656093,-2.255712074808555,4.355460272894965,0.06785074869791667,-4.47829352484809,-1.0041,-0.3274,0.0826,-0.01674,-0.00634,0.02239,0.0011708819074556231,0.0010010027326643467,0.0011417509522289038,0.00044762957259081304,0.000502525654155761,0.0004279237473383546,0.008696045726537704,0.009902416728436947,0.011168004013597965,passive,0
1.1414,rehab,safe_midrange_fast,43.469766584132515,-666.6391810977101,290.6728253825243,-177.67006190416262,0.302949872554478,-149.7795430460453,-51.4256,-0.0383,32.4124,-5.697,1.1202,14.7653,81.22995962010752,28.129697743028697,83.89570104013575,-23.677825927734375,-89.03319464789496,-39.04445224338107,-4.353339318001624,-1.9045846769125154,-2.4342806976620515,4.491670396592882,0.13570149739583334,-4.342592027452257,-1.1086,-0.4005,0.0342,-0.01945,-0.01136,0.01645,0.0011708819074556231,0.0010010027326643467,0.0011417509522289038,0.00044762957259081304,0.000502525654155761,0.0004279237473383546,0.008696045726537704,0.009902416728436947,0.011168004013597965,passive,0
1.1616,rehab,safe_midrange_fast,42.280352996977825,-666.6396806014143,291.4185659033627,-177.67174234278525,0.30425408475045773,-149.77793364167778,-52.3272,-0.0042,33.3159,-25.0469,1.675,37.4367,81.1084505591062,28.075493538733756,83.83020457654897,-23.552415635850693,-89.03021070692274,-39.16581895616319,-4.298924361125077,-1.9045846769125154,-2.368879412660504,4.51674567328559,0.13570149739583334,-4.274732801649305,-1.2849,-0.5309,-0.8611,-0.03662,0.00111,0.02488,0.0011708819074556231,0.0010010027326643467,0.0011417509522289038,0.00044762957259081304,0.000502525654155761,0.0004279237473383546,0.008696045726537704,0.009902416728436947,0.011168004013597965,passive,0
1.1812,rehab,safe_midrange_fast,41.495402525875505,-666.635882647655,291.9204642677861,-177.673105804814,0.30539121724031193,-149.77711687915468,-52.6884,0.035,34.0952,-26.6085,1.647,45.3794,81.03983359761757,28.04410500101524,83.79260903537863,-23.479605780707466,-89.02847290039062,-39.23443264431423,-4.190087648901609,-1.9589996337890625,-2.4052376322226947,4.557393391927083,0.06785074869791667,-4.342592027452257,-1.2781,-0.4752,-0.7916,-0.01826,-0.00405,0.02549,0.0011708819074556231,0.0010010027326643467,0.0011417509522289038,0.00044762957259081304,0.000502525654155761,0.0004279237473383546,0.008696045726537704,0.009902416728436947,0.011168004013597965,passive,0
1.2014,rehab,safe_midrange_fast,40.096709649977726,-666.6330390204429,292.8393031605516,-177.67335318165289,0.305737351693956,-149.777560437152,-51.9189,0.0621,34.3745,4.9278,1.0854,27.5809,80.91763789110844,27.987602913733756,83.72334621920444,-23.349829779730904,-89.02537027994792,-39.35471428765191,-4.462176030225093,-2.067836346012531,-2.6139234788346997,4.583808051215278,0.06785074869791667,-4.274732801649305,-1.2658,-0.4348,-0.5796,-0.00265,0.00511,0.03208,0.0011708819074556231,0.0010010027326643467,0.0011417509522289038,0.00044762957259081304,0.000502525654155761,0.0004279237473383546,0.008696045726537704,0.009902416728436947,0.011168004013597965,passive,0
1.2216,rehab,safe_midrange_fast,39.284638189365964,-666.6309083513646,293.38372306305206,-177.67274024831124,0.305256466875583,-149.77879767689245,-49.6492,0.08,33.6037,28.8774,0.3122,11.2295,80.84670944969253,27.95435839360303,83.68234464437654,-23.27429877387153,-89.02364942762587,-39.42354838053385,-4.625420900854734,-2.067836346012531,-2.5670820179552134,4.6706390380859375,0.06785074869791667,-4.342592027452257,-1.271,-0.353,-0.8105,-0.00862,0.00594,0.03248,0.0011708819074556231,0.0010010027326643467,0.0011417509522289038,0.00044762957259081304,0.000502525654155761,0.0004279237473383546,0.008696045726537704,0.009902416728436947,0.011168004013597965,passive,0
1.2437,rehab,safe_midrange_fast,38.06656335590137,-666.6336191439842,294.2236196162226,-177.67067535293708,0.3034231705442485,-149.7798890399058,-52.9479,0.0916,36.6818,43.1318,-0.4167,3.0898,80.7404357608002,27.904321651647585,83.61769798958656,-23.159255981445312,-89.0211910671658,-39.52742682562934,-4.298924361125077,-2.0134145906656093,-2.699992113774366,4.971304999457465,0.13570149739583334,-4.274732801649305,-1.4016,-0.3457,-0.5457,-0.03399,-0.0079,0.03498,0.0011708819074556231,0.0010010027326643467,0.0011417509522289038,0.00044762957259081304,0.000502525654155761,0.0004279237473383546,0.008696045726537704,0.009902416728436947,0.011168004013597965,passive,0
1.2615,rehab,safe_midrange_fast,37.265879867900644,-666.6324684803855,294.78364257584354,-177.67007460008958,0.3028501679016383,-149.78030462916973,-53.6048,0.0725,37.5017,44.8577,-0.7231,2.1735,80.67054068688118,27.871049937635366,83.5741129960164,-23.081164889865452,-89.01956346299913,-39.59602355957031,-4.462176030225093,-2.122251302889078,-2.6318850375638148,5.03584967719184,0.06785074869791667,-4.274732801649305,-1.3211,-0.3412,-0.2913,-0.04127,-0.0078,0.02096,0.0011708819074556231,0.0010010027326643467,0.0011417509522289038,0.00044762957259081304,0.000502525654155761,0.0004279237473383546,0.008696045726537704,0.009902416728436947,0.011168004013597965,passive,0
1.2816,rehab,safe_midrange_fast,36.08973322276316,-666.6290039352648,295.6214069132225,-177.67034554503408,0.3031568807987641,-149.77820027056742,-47.9638,0.0335,34.0249,30.8325,-0.7886,9.7716,80.56781579952428,27.821795019772974,83.50752197869933,-22.96179877387153,-89.01696099175346,-39.699503580729164,-4.190087648901609,-2.067836346012531,-2.867248081924892,5.02333747016059,0.06785074869791667,-4.410442776150173,-1.3531,-0.4024,-0.0529,-0.0429,-0.00464,0.01888,0.0011708819074556231,0.0010010027326643467,0.0011417509522289038,0.00044762957259081304,0.000502525654155761,0.0004279237473383546,0.008696045726537704,0.009902416728436947,0.011168004013597965,passive,0
1.3015,rehab,safe_midrange_fast,35.30050196183386,-666.6288219141128,296.1878622469493,-177.6705408984559,0.30332737799065096,-149.77731793512046,-47.2043,-0.0005,34.0726,16.9505,-0.7443,21.3374,80.49893369769106,27.789073981861076,83.46160510979077,-22.88082546657986,-89.01527404785156,-39.76835462782118,-4.4077542748781715,-2.0134145906656093,-2.798930253132735,5.224795871310763,0.06785074869791667,-4.342592027452257,-1.3057,-0.348,-0.2188,-0.03048,-0.01838,0.0235,0.0011708819074556231,0.0010010027326643467,0.0011417509522289038,0.00044762957259081304,0.000502525654155761,0.0004279237473383546,0.008696045726537704,0.009902416728436947,0.011168004013597965,passive,0
1.3216,rehab,safe_midrange_fast,34.11003298828558,-666.6259859003947,297.04067976669774,-177.6720406579586,0.3044506195083035,-149.77585362742943,-48.0318,-0.0077,35.4185,19.625,-0.6791,22.4612,80.39502587648902,27.74005701046179,83.391587663405,-22.75677998860677,-89.01284111870659,-39.872334798177086,-4.4077542748781715,-2.067836346012531,-3.006541941425588,4.987479315863715,0.06785074869791667,-4.342592027452257,-1.284,-0.429,-0.6805,-0.01718,-0.00438,0.03385,0.0011708819074556231,0.0010010027326643467,0.0011417509522289038,0.00044762957259081304,0.000502525654155761,0.0004279237473383546,0.008696045726537704,0.009902416728436947,0.011168004013597965,passive,0
1.3415,rehab,safe_midrange_fast,33.323308110996614,-666.6275957457586,297.6195765882124,-177.6731912810064,0.30539255015969563,-149.77470064445384,-48.6791,0.0069,36.722,9.2614,-0.6012,32.2632,80.32640891500039,27.70767589606861,83.3426046843576,-22.67184787326389,-89.01119656032986,-39.94115193684896,-4.298924361125077,-2.0134145906656093,-3.062452561784499,5.464358859592013,0.06785074869791667,-4.47829352484809,-1.2935,-0.4245,-0.9522,-0.01685,-0.00642,0.03518,0.0011708819074556231,0.0010010027326643467,0.0011417509522289038,0.00044762957259081304,0.000502525654155761,0.0004279237473383546,0.008696045726537704,0.009902416728436947,0.011168004013597965,passive,0
1.3615,rehab,safe_midrange_fast,32.53132011499956,-666.6297036352557,298.22052378747054,-177.67321826161154,0.3055492895004081,-149.77454061757325,-49.0365,0.0088,37.8191,-26.198,-0.5107,57.7435,80.25733645599668,27.67431580194152,83.2919152892462,-22.58561028374566,-89.00945875379774,-40.00940958658854,-4.353339318001624,-2.067836346012531,-3.307061525854734,5.370229085286458,0.13570149739583334,-4.47829352484809,-1.6208,-0.4526,-0.6629,-0.05429,-0.00739,0.02636,0.0011708819074556231,0.0010010027326643467,0.0011417509522289038,0.00044762957259081304,0.000502525654155761,0.0004279237473383546,0.008696045726537704,0.009902416728436947,0.011168004013597965,passive,0
1.3815,rehab,safe_midrange_fast,31.348330351646013,-666.6333456721239,299.1499410840073,-177.6719775167105,0.3044947153882162,-149.77470842259132,-49.6951,-0.0053,39.1118,-20.1333,-0.5014,50.5746,80.15421725735806,27.62324569248917,83.2134201503036,-22.45459662543403,-89.00705125596788,-40.110880533854164,-4.244502605778156,-2.2310880151125465,-3.1992309872466738,5.566745334201388,-0.0,-4.274732801649305,-1.4863,-0.4472,-0.1544,-0.05601,-0.0046,0.02191,0.0011708819074556231,0.0010010027326643467,0.0011417509522289038,0.00044762957259081304,0.000502525654155761,0.0004279237473383546,0.008696045726537704,0.009902416728436947,0.011168004013597965,passive,0
1.4012,rehab,safe_midrange_fast,30.376289524693775,-666.6316659175748,299.93333698730805,-177.67084510137738,0.3034439234962582,-149.7748110775387,-49.275,-0.0294,39.4852,20.4125,-0.6031,15.5303,80.06944033178952,27.580116196434098,83.14751577849435,-22.344572279188366,-89.00514390733507,-40.194312201605904,-4.190087648901609,-2.176666259765625,-3.2441620779509592,5.4532114664713545,-0.0,-4.206882052951388,-1.3585,-0.3963,-1.1785,-0.02361,0.0109,0.02839,0.0011708819074556231,0.0010010027326643467,0.0011417509522289038,0.00044762957259081304,0.000502525654155761,0.0004279237473383546,0.008696045726537704,0.009902416728436947,0.011168004013597965,passive,0
1.4215,rehab,safe_midrange_fast,29.22578890071779,-666.6270473206571,300.8650062655072,-177.67054861249449,0.30312667191112574,-149.77486756351485,-48.228,-0.0566,39.2202,50.5445,-0.7124,-12.1779,79.96906771518216,27.529161660978108,83.0681572338142,-22.211685180664062,-89.00285508897569,-40.29312981499566,-4.026835979801594,-2.067836346012531,-3.34544568958849,5.658577813042535,0.13570149739583334,-4.071180555555555,-1.6298,-0.5214,-1.5863,-0.04682,0.01144,0.033,0.0011708819074556231,0.0010010027326643467,0.0011417509522289038,0.00044762957259081304,0.000502525654155761,0.0004279237473383546,0.008696045726537704,0.009902416728436947,0.011168004013597965,passive,0
1.4418,rehab,safe_midrange_fast,28.470795884423868,-666.6255741808941,301.47940204139,-177.6704812217636,0.3031624123161446,-149.77636468391367,-48.2115,-0.0703,39.6531,74.3937,-0.5322,-32.2246,79.90322452960628,27.496087102606744,83.01494560619392,-22.123497856987846,-89.00129530164931,-40.356479220920136,-4.135672692025062,-1.9589996337890625,-3.3006709637028155,5.49345228407118,0.13570149739583334,-4.0033213297526045,-1.3943,-0.5087,-0.7624,-0.03973,-0.00329,0.03015,0.0011708819074556231,0.0010010027326643467,0.0011417509522289038,0.00044762957259081304,0.000502525654155761,0.0004279237473383546,0.008696045726537704,0.009902416728436947,0.011168004013597965,passive,0
1.4616,rehab,safe_midrange_fast,27.374306679981995,-666.6316852991577,302.3834291984935,-177.6711224507777,0.30376675219708416,-149.77783903679173,-46.3868,-0.0628,38.8248,92.5445,0.115,-44.8764,79.80774681166847,27.44909607537902,82.93371748216082,-21.9915771484375,-88.99909125434027,-40.448998345269096,-3.8635911091719524,-1.9589996337890625,-3.4326360721399287,5.451617770724826,0.13570149739583334,-3.8676198323567705,-1.5456,-0.4703,-1.0289,-0.04191,-0.00616,0.03455,0.0011708819074556231,0.0010010027326643467,0.0011417509522289038,0.00044762957259081304,0.000502525654155761,0.0004279237473383546,0.008696045726537704,0.009902416728436947,0.011168004013597965,passive,0
1.4815,rehab,safe_midrange_fast,26.666416040015882,-666.6365412767481,302.9737308588231,-177.67192111514763,0.3043495462709954,-149.7783300123966,-42.8583,-0.0539,36.4207,98.7853,0.8917,-46.3269,79.7461458716062,27.41888367303527,82.87981920903272,-21.904644436306423,-88.99776882595486,-40.509134928385414,-3.809169353825031,-1.9045846769125154,-3.3614696842609066,5.392956203884548,0.13570149739583334,-3.664059109157986,-1.481,-0.3848,-1.0427,-0.02371,0.00458,0.03367,0.0011708819074556231,0.0010010027326643467,0.0011417509522289038,0.00044762957259081304,0.000502525654155761,0.0004279237473383546,0.008696045726537704,0.009902416728436947,0.011168004013597965,passive,0
1.5014,rehab,safe_midrange_fast,25.654138234340902,-666.638071475551,303.84658813125753,-177.67292535692633,0.30519681023102263,-149.77787835399704,-40.7559,-0.0468,35.3619,101.5579,1.4251,-45.5518,79.67253883286278,27.38134251962794,82.8137720693456,-21.797637939453125,-88.99608188205295,-40.58211432562934,-3.7003394400719367,-1.795747964689047,-3.381171651405863,5.363888210720486,0.06785074869791667,-3.528349134657118,-1.3402,-0.3759,-1.1602,-0.02209,-0.00401,0.03008,0.0011708819074556231,0.0010010027326643467,0.0011417509522289038,0.00044762957259081304,0.000502525654155761,0.0004279237473383546,0.008696045726537704,0.009902416728436947,0.011168004013597965,passive,0
1.5212,rehab,safe_midrange_fast,25.005022335495994,-666.6392521922546,304.4174168652526,-177.67342862342122,0.3056873171753127,-149.77758990885232,-39.2953,-0.0245,35.0176,106.3851,1.5638,-49.2196,79.60142003427637,27.344929912302753,82.74839797822555,-21.69287787543403,-88.99442884657118,-40.652219984266495,-3.5915027278484684,-1.8501697200359684,-3.2865437422648514,5.16571044921875,0.06785074869791667,-3.4604983859592013,-1.3283,-0.5676,-0.9744,-0.04318,-0.01137,0.02031,0.0011708819074556231,0.0010010027326643467,0.0011417509522289038,0.00044762957259081304,0.000502525654155761,0.0004279237473383546,0.008696045726537704,0.009902416728436947,0.011168004013597965,passive,0
1.5415,rehab,safe_midrange_fast,24.06614264196798,-666.6341908258336,305.2681830172293,-177.67310782946635,0.30540391416212676,-149.77853974634309,-37.3036,0.0296,34.2856,103.9258,1.1823,-49.5539,79.51955965249846,27.300998196743503,82.6722007222695,-21.57073974609375,-88.99261474609375,-40.731752183702255,-3.373836101871906,-1.795747964689047,-3.1033249656752786,4.901529947916667,-0.0,-3.1890869140625,-1.3727,-0.2712,-0.5355,-0.02045,-0.00086,0.02893,0.0011708819074556231,0.0010010027326643467,0.0011417509522289038,0.00044762957259081304,0.000502525654155761,0.0004279237473383546,0.008696045726537704,0.009902416728436947,0.011168004013597965,passive,0
1.5615,rehab,safe_midrange_fast,23.467147183519323,-666.6311751224337,305.82911469512686,-177.67204856769217,0.3044838816265962,-149.77963902163603,-35.8938,0.081,33.9952,95.82,0.4808,-46.6697,79.4673474000232,27.272227070119122,82.62210279408067,-21.49173312717014,-88.99147881401909,-40.78197055392795,-3.1017545190187965,-1.7413330078125,-3.0217365227123296,4.871148003472222,0.13570149739583334,-3.1890869140625,-1.3083,-0.4128,-1.1684,-0.0409,-0.00692,0.03019,0.0011708819074556231,0.0010010027326643467,0.0011417509522289038,0.00044762957259081304,0.000502525654155761,0.0004279237473383546,0.008696045726537704,0.009902416728436947,0.011168004013597965,passive,0
1.5812,rehab,safe_midrange_fast,22.892267215882626,-666.6311629186259,306.36948648530375,-177.67094340509337,0.3034867980679376,-149.78129677716052,-33.7441,0.0753,32.751,103.2111,-0.3415,-59.5261,79.42956830015277,27.251532526299506,82.58538425558865,-21.434377034505207,-88.9906989203559,-40.81793891059028,-3.047339562142249,-1.5780813387124846,-3.198768691261216,4.672817654079861,-0.0,-2.985526190863715,-1.3489,-0.3373,-0.9349,-0.03565,-0.00691,0.03256,0.0011708819074556231,0.0010010027326643467,0.0011417509522289038,0.00044762957259081304,0.000502525654155761,0.0004279237473383546,0.008696045726537704,0.009902416728436947,0.011168004013597965,passive,0
1.6012,rehab,safe_midrange_fast,21.984692290300224,-666.6331696607248,307.2693432386081,-177.66864635193156,0.30153571254530165,-149.78205097276685,-30.9224,0.0548,30.7022,123.0388,-1.2052,-84.9423,79.3382988353767,27.200482812258276,82.4905795862179,-21.289147271050346,-88.98868136935764,-40.906312730577255,-2.61199951171875,-1.4148296696124691,-2.7897931089495667,4.46059332953559,-0.0,-2.5784132215711804,-1.3752,-0.3879,-1.4789,-0.0452,0.00483,0.03554,0.0011708819074556231,0.0010010027326643467,0.0011417509522289038,0.00044762957259081304,0.000502525654155761,0.0004279237473383546,0.008696045726537704,0.009902416728436947,0.011168004013597965,passive,0
1.6215,rehab,safe_midrange_fast,21.520205436181538,-666.6343280069998,307.7438767287646,-177.66816822248018,0.30118596672181974,-149.7815016309867,-28.359,0.0062,28.8347,140.0343,-1.9889,-104.9481,79.29786153358988,27.177354416044633,82.44616517926207,-21.220957438151043,-88.98773193359375,-40.94652811686198,-2.2855029719890934,-1.4148296696124691,-2.7925600863919398,4.165861341688368,-0.0,-2.4427032470703125,-1.3325,-0.3756,-0.6734,-0.04506,-0.00457,0.02812,0.0011708819074556231,0.0010010027326643467,0.0011417509522289038,0.00044762957259081304,0.000502525654155761,0.0004279237473383546,0.008696045726537704,0.009902416728436947,0.011168004013597965,passive,0
1.6414,rehab,safe_midrange_fast,20.894935570329057,-666.6298284973344,308.39785786878593,-177.66874886400245,0.30167659778145295,-149.78046424333812,-26.0235,-0.0599,27.1333,156.7953,-2.2803,-119.423,79.24333780118735,27.14513646494044,82.38497894589264,-21.12511528862847,-88.98652818467882,-41.001010470920136,-2.176666259765625,-1.305999755859375,-2.3976505392848857,3.7609693739149304,0.06785074869791667,-2.103441026475694,-1.2525,-0.3658,-1.1287,-0.03109,0.00617,0.03202,0.0011708819074556231,0.0010010027326643467,0.0011417509522289038,0.00044762957259081304,0.000502525654155761,0.0004279237473383546,0.008696045726537704,0.009902416728436947,0.011168004013597965,passive,0
1.6612,rehab,safe_midrange_fast,20.518358625091313,-666.6301576356718,308.7865419393633,-177.66999542720043,0.3027481892631115,-149.78060318931375,-22.9885,-0.0954,24.7045,170.4286,-1.6145,-127.4554,79.21055557704207,27.126617431640625,82.34722024143332,-21.066207885742188,-88.98583306206596,-41.03299458821615,-1.9589996337890625,-1.1427480867593596,-2.3040491991704055,3.567801581488715,0.13570149739583334,-1.696319580078125,-1.312,-0.4149,-1.0381,-0.03948,-0.01419,0.03103,0.0011708819074556231,0.0010010027326643467,0.0011417509522289038,0.00044762957259081304,0.000502525654155761,0.0004279237473383546,0.008696045726537704,0.009902416728436947,0.011168004013597965,passive,0
1.6815,rehab,safe_midrange_fast,20.01757086290885,-666.633815568913,309.3266599062453,-177.67074428029412,0.30342527534028024,-149.78212521521374,-18.3654,-0.1202,21.0413,182.0355,-0.4188,-132.2038,79.16701817276454,27.1013339203183,82.29454569297262,-20.985972086588543,-88.98492601182726,-41.074108547634545,-1.5780813387124846,-0.979496417659344,-2.102549335744121,3.119074503580729,0.06785074869791667,-1.6284688313802083,-1.3182,-0.3894,-1.4873,-0.04204,0.00071,0.03295,0.0011708819074556231,0.0010010027326643467,0.0011417509522289038,0.00044762957259081304,0.000502525654155761,0.0004279237473383546,0.008696045726537704,0.009902416728436947,0.011168004013597965,passive,0
1.7015,rehab,safe_midrange_fast,19.74847503630544,-666.6344645317702,309.6486161780646,-177.67144508934817,0.30400821743337436,-149.782016269161,-14.8665,-0.1221,18.5283,193.8029,0.7513,-138.957,79.1435974423248,27.086282106909422,82.26303478278736,-20.93778822157118,-88.98445977105034,-41.097098456488716,-1.4148296696124691,-0.87066650390625,-1.8928097262240873,2.8797403971354165,-0.0,-1.2213473849826388,-1.2863,-0.3237,-0.9996,-0.03652,0.00969,0.03302,0.0011708819074556231,0.0010010027326643467,0.0011417509522289038,0.00044762957259081304,0.000502525654155761,0.0004279237473383546,0.008696045726537704,0.009902416728436947,0.011168004013597965,passive,0
1.7217,rehab,safe_midrange_fast,19.41591512337604,-666.6434156686685,310.0769265054044,-177.67125989339237,0.30388708632798467,-149.7832424185268,-11.2099,-0.1068,16.2631,204.882,1.8082,-146.2027,79.11478552487817,27.067280382213024,82.22006165155089,-20.875201755099827,-88.98388332790799,-41.12397935655382,-0.9250814607827971,-0.7074148348062346,-1.6248616133586016,2.3373836941189237,0.06785074869791667,-0.9499359130859375,-1.3096,-0.3199,-0.4256,-0.05252,0.00288,0.02803,0.0011708819074556231,0.0010010027326643467,0.0011417509522289038,0.00044762957259081304,0.000502525654155761,0.0004279237473383546,0.008696045726537704,0.009902416728436947,0.011168004013597965,passive,0
1.7413,rehab,safe_midrange_fast,19.268804160444123,-666.6445632171911,310.3147771908147,-177.67148436594184,0.3041111176349508,-149.7827111120064,-6.9961,-0.044,13.3435,203.2317,2.2283,-145.7275,79.10197720669284,27.056457217377012,82.19649815323329,-20.840098063151043,-88.98361206054688,-41.13692389594184,-0.6529998779296875,-0.5985781225827661,-1.35813042669013,2.058283487955729,0.06785074869791667,-0.678524441189236,-1.4227,-0.5174,-1.0536,-0.05608,0.00324,0.02307,0.0011708819074556231,0.0010010027326643467,0.0011417509522289038,0.00044762957259081304,0.000502525654155761,0.0004279237473383546,0.008696045726537704,0.009902416728436947,0.011168004013597965,passive,0
1.7617,rehab,safe_midrange_fast,19.134690254858462,-666.6446455613038,310.6107850776344,-177.6712919637997,0.3039726807668968,-149.78239093643032,-2.6244,0.0387,10.1265,195.8558,2.1363,-146.0447,79.09027024070815,27.04292826133199,82.1675434679088,-20.79749213324653,-88.983400132921,-41.14846971299913,-0.32649653972965653,-0.435333251953125,-1.0444218097346845,1.503999498155382,-0.0,-0.20355224609375,-1.2956,-0.3241,-0.3796,-0.04257,-0.00116,0.03025,0.0011708819074556231,0.0010010027326643467,0.0011417509522289038,0.00044762957259081304,0.000502525654155761,0.0004279237473383546,0.008696045726537704,0.009902416728436947,0.011168004013597965,passive,0
1.7812,rehab,safe_midrange_fast,19.153055334679514,-666.641003792665,310.7581128002107,-177.67108449269116,0.3038266174815506,-149.77850276488394,1.0558,0.0726,7.213,190.29,1.7123,-151.5162,79.09175230724976,27.036014216961245,82.1535046265857,-20.776723225911457,-88.9833747016059,-41.15063985188802,0.32649653972965653,-0.3809114966062036,-0.7530053771368348,1.1171383327907987,-0.06785074869791667,-0.06785074869791667,-1.2271,-0.2945,-0.6371,-0.03395,-0.00448,0.02698,0.0011708819074556231,0.0010010027326643467,0.0011417509522289038,0.00044762957259081304,0.000502525654155761,0.0004279237473383546,0.008696045726537704,0.009902416728436947,0.011168004013597965,passive,0
1.8017,rehab,safe_midrange_fast,19.21273679004231,-666.6360340188697,310.8626799681332,-177.67090167401733,0.3037081505974511,-149.7738366769908,4.8939,0.0989,4.0258,187.8086,1.0265,-163.2649,79.0953554965482,27.032009917910734,82.14590393670714,-20.76521979437934,-88.98338317871094,-41.15036858452691,0.32649653972965653,-0.2720815828531095,-0.5442787397025836,0.8155398898654513,-0.0,0.06785074869791667,-1.2433,-0.4207,-1.2173,-0.05347,0.00591,0.02391,0.0011708819074556231,0.0010010027326643467,0.0011417509522289038,0.00044762957259081304,0.000502525654155761,0.0004279237473383546,0.008696045726537704,0.009902416728436947,0.011168004013597965,passive,0
1.8214,rehab,safe_midrange_fast,19.399106164830947,-666.6342755417772,310.89626501965523,-177.67338220681987,0.3062051337280242,-149.77059684779815,8.4534,0.1,0.9955,186.8175,0.4442,-173.9188,79.11288195317334,27.030391881961634,82.13790893554688,-20.75262281629774,-88.98352728949652,-41.137144300672745,0.7074148348062346,-0.05441495687654703,0.048445899887840344,-0.03167894151475694,-0.06785074869791667,0.8820851643880208,-1.1856,-0.377,-1.8439,-0.0475,0.00799,0.02277,0.0011708819074556231,0.0010010027326643467,0.0011417509522289038,0.00044762957259081304,0.000502525654155761,0.0004279237473383546,0.008696045726537704,0.009902416728436947,0.011168004013597965,passive,0
1.8414,rehab,safe_midrange_fast,19.54578645973138,-666.6318796826469,310.8815644617794,-177.67350964539546,0.3066754033085571,-149.77345166163607,11.833,0.08,-2.4778,178.2291,0.0729,-174.6829,79.12554750348082,27.03128248158068,82.13902388468827,-20.75469970703125,-88.98367140028212,-41.12163967556423,0.87066650390625,0.05441495687654703,0.15465160407642325,-0.33782958984375,-0.0,1.0856458875868056,-1.1642,-0.238,-0.9203,-0.03072,-0.0031,0.02566,0.0011708819074556231,0.0010010027326643467,0.0011417509522289038,0.00044762957259081304,0.000502525654155761,0.0004279237473383546,0.008696045726537704,0.009902416728436947,0.011168004013597965,passive,0
1.8616,rehab,safe_midrange_fast,19.837366540807636,-666.6357207291466,310.80831969196845,-177.66939073728676,0.30364063153571824,-149.77866565092776,15.472,0.0759,-6.21,172.3815,-0.0128,-177.4476,79.15091259644763,27.03533436992381,82.14718884760791,-20.772950914171005,-88.98403591579861,-41.09124077690972,1.251584798982828,0.2176666259765625,0.6088302159073329,-1.1259290907118056,0.06785074869791667,1.4249081081814237,-1.3034,-0.2632,-0.5269,-0.03516,-0.00432,0.02467,0.0011708819074556231,0.0010010027326643467,0.0011417509522289038,0.00044762957259081304,0.000502525654155761,0.0004279237473383546,0.008696045726537704,0.009902416728436947,0.011168004013597965,passive,0
1.8813,rehab,safe_midrange_fast,20.105406123078115,-666.6342718617232,310.70448935900794,-177.6659461260704,0.30092832473625064,-149.7805756268457,18.8136,0.074,-9.7378,163.751,-0.2324,-176.9601,79.17417016359839,27.0400865007155,82.15912696158532,-20.794787936740452,-88.98444281684027,-41.06630113389757,1.5780813387124846,0.435333251953125,0.8489589880008509,-1.5028550889756944,-0.0,1.696319580078125,-1.1678,-0.2236,-1.1013,-0.02876,0.00141,0.02941,0.0011708819074556231,0.0010010027326643467,0.0011417509522289038,0.00044762957259081304,0.000502525654155761,0.0004279237473383546,0.008696045726537704,0.009902416728436947,0.011168004013597965,passive,0
1.9016,rehab,safe_midrange_fast,20.608962507595848,-666.6324721537735,310.4258853670451,-177.6638164422824,0.2992486313717046,-149.7816168857053,22.9108,0.0905,-14.0569,157.4767,-0.6451,-176.8193,79.21791832045753,27.05362905370127,82.18649080484221,-20.839767456054688,-88.9854007297092,-41.02200826009115,2.122251302889078,0.7074148348062346,1.4077252680712407,-2.2064971923828125,-0.06785074869791667,1.9677310519748263,-1.0938,-0.2275,-0.7924,-0.0402,0.00727,0.02294,0.0011708819074556231,0.0010010027326643467,0.0011417509522289038,0.00044762957259081304,0.000502525654155761,0.0004279237473383546,0.008696045726537704,0.009902416728436947,0.011168004013597965,passive,0
1.9215,rehab,safe_midrange_fast,21.009010934004717,-666.6274252906219,310.1508087443474,-177.66559617655392,0.30075367243282664,-149.78084070472934,25.5167,0.0982,-16.9172,153.3971,-1.0313,-175.4149,79.25263131018913,27.066954055635055,82.21171312993116,-20.877015855577255,-88.98623996310764,-40.988498263888886,2.2310880151125465,0.9250814607827971,1.7318219477587407,-2.5159708658854165,-0.0,2.2391425238715277,-1.1143,-0.0602,-0.9019,-0.04534,0.005,0.02291,0.0011708819074556231,0.0010010027326643467,0.0011417509522289038,0.00044762957259081304,0.000502525654155761,0.0004279237473383546,0.008696045726537704,0.009902416728436947,0.011168004013597965,passive,0
1.9414,rehab,safe_midrange_fast,21.680805084370096,-666.6253118692799,309.67382627212834,-177.66711515128952,0.3018564371617838,-149.7797093602731,28.0285,0.072,-20.0079,141.5906,-1.6097,-166.1345,79.31106416305693,27.090680717241646,82.25523013879757,-20.944129096137154,-88.98775736490886,-40.93196445041232,2.557584554842203,1.0339181730062654,2.001707624680925,-3.0473158094618054,-0.06785074869791667,2.510553995768229,-1.0807,-0.2647,-1.04,-0.03715,-0.00074,0.02655,0.0011708819074556231,0.0010010027326643467,0.0011417509522289038,0.00044762957259081304,0.000502525654155761,0.0004279237473383546,0.008696045726537704,0.009902416728436947,0.011168004013597965,passive,0
1.9614,rehab,safe_midrange_fast,22.16655749984466,-666.6232551817662,309.3141776469059,-177.66756963820163,0.3019724083553477,-149.77976390389566,30.5112,0.0088,-23.2351,128.641,-2.2932,-156.1448,79.35333705184483,27.108397531037284,82.28866501609878,-20.996144612630207,-88.98896111382378,-40.890231662326386,2.6664212670656715,1.1427480867593596,2.1570186803836635,-3.476282755533854,-0.06785074869791667,2.6462639702690973,-1.1223,-0.3114,-1.0488,-0.05173,0.00137,0.0227,0.0011708819074556231,0.0010010027326643467,0.0011417509522289038,0.00044762957259081304,0.000502525654155761,0.0004279237473383546,0.008696045726537704,0.009902416728436947,0.011168004013597965,passive,0
1.9818,rehab,safe_midrange_fast,22.952574371240015,-666.6254040836319,308.70969325991905,-177.66761540800988,0.30172197113111593,-149.77925503811107,33.5564,-0.0616,-26.8094,123.4252,-2.7799,-153.1764,79.42182484239635,27.138854678314512,82.34407254964998,-21.084196302625866,-88.99076673719618,-40.823254055447045,2.7752511808187657,1.305999755859375,2.384189567943611,-3.9214918348524304,-0.06785074869791667,2.9176754421657987,-1.1672,-0.3598,-0.9159,-0.04425,0.0006,0.02368,0.0011708819074556231,0.0010010027326643467,0.0011417509522289038,0.00044762957259081304,0.000502525654155761,0.0004279237473383546,0.008696045726537704,0.009902416728436947,0.011168004013597965,passive,0
2.0013,rehab,safe_midrange_fast,23.509045871975385,-666.6258881936452,308.2686138568796,-177.66707436459023,0.30108744318706643,-149.77935067951202,36.4355,-0.0992,-30.0601,126.9847,-2.49,-156.153,79.47030473463606,27.160908916209003,82.38503333365563,-21.149503919813366,-88.99202134874132,-40.77541775173611,2.992917806795328,1.4692514249593904,2.7262614033009744,-4.31351555718316,-0.06785074869791667,2.985526190863715,-1.1417,-0.2965,-1.2958,-0.04543,0.01611,0.02137,0.0011708819074556231,0.0010010027326643467,0.0011417509522289038,0.00044762957259081304,0.000502525654155761,0.0004279237473383546,0.008696045726537704,0.009902416728436947,0.011168004013597965,passive,0
2.0212,rehab,safe_midrange_fast,24.08571681937541,-666.6321846852697,307.78418558900415,-177.66702108021903,0.30090405928637104,-149.7804297150415,38.1001,-0.1381,-32.3346,122.1647,-1.2353,-147.077,79.52064740775835,27.1859612795386,82.42844156699606,-21.219677395290798,-88.99331834581163,-40.72479248046875,3.2650061881188117,1.6325030940594059,2.8681114876624383,-4.465823703342013,-0.06785074869791667,3.2569376627604165,-1.3208,-0.3164,-1.0185,-0.06531,0.01927,0.02358,0.0011708819074556231,0.0010010027326643467,0.0011417509522289038,0.00044762957259081304,0.000502525654155761,0.0004279237473383546,0.008696045726537704,0.009902416728436947,0.011168004013597965,passive,0
2.0414,rehab,safe_midrange_fast,25.16712596576437,-666.6353764315855,306.84135760700724,-177.66866918376198,0.30214893174659874,-149.78116578558152,40.2051,-0.1816,-35.0398,99.036,0.2722,-119.5689,79.61491499796952,27.234046860496598,82.51314370939048,-21.353268093532986,-88.99563259548611,-40.631306966145836,3.482672814095374,1.8501697200359684,3.1747768893100248,-5.051947699652778,-0.13570149739583334,3.324796888563368,-1.1451,-0.1726,-1.5716,-0.03813,0.00423,0.02935,0.0011708819074556231,0.0010010027326643467,0.0011417509522289038,0.00044762957259081304,0.000502525654155761,0.0004279237473383546,0.008696045726537704,0.009902416728436947,0.011168004013597965,passive,0
2.0614,rehab,safe_midrange_fast,25.833636883012435,-666.6373716438918,306.2531665837644,-177.67014040168647,0.30341853172125566,-149.7807438169735,42.4977,-0.1822,-37.7687,70.1525,1.4057,-87.6555,79.67300792731861,27.26434084448484,82.56530157410272,-21.43551296657986,-88.9969465467665,-40.57456970214844,3.7003394400719367,1.9045846769125154,3.3652428353186883,-5.364083184136285,-0.13570149739583334,3.596208360460069,-1.2537,-0.3422,-1.3239,-0.05595,0.01251,0.0241,0.0011708819074556231,0.0010010027326643467,0.0011417509522289038,0.00044762957259081304,0.000502525654155761,0.0004279237473383546,0.008696045726537704,0.009902416728436947,0.011168004013597965,passive,0
2.0813,rehab,safe_midrange_fast,26.87744221637599,-666.6363929319773,305.3232722081225,-177.67232057739838,0.3052238583684354,-149.77914510001105,44.7703,-0.1204,-40.3134,53.6592,2.0968,-68.5561,79.76394426704633,27.312004920279627,82.6482361141998,-21.565967135959202,-88.9990234375,-40.48671298556857,3.809169353825031,2.067836346012531,3.4168976132232363,-5.598661634657118,-0.06785074869791667,3.7319098578559027,-1.2502,-0.1477,-0.7136,-0.06921,0.01409,0.01704,0.0011708819074556231,0.0010010027326643467,0.0011417509522289038,0.00044762957259081304,0.000502525654155761,0.0004279237473383546,0.008696045726537704,0.009902416728436947,0.011168004013597965,passive,0
2.1017,rehab,safe_midrange_fast,27.585304938079812,-666.6406345821767,304.6860219347426,-177.67203583640728,0.30498104872365517,-149.77894807692343,45.7835,-0.0207,-41.4517,49.8178,2.6927,-62.8028,79.82570837039759,27.345235843469602,82.70503053570738,-21.658214992947048,-89.00042215983073,-40.42618645562066,3.8635911091719524,2.122251302889078,3.5409085113223235,-5.8171844482421875,-0.06785074869791667,3.7319098578559027,-1.2414,-0.3244,-1.1143,-0.05377,0.01284,0.02599,0.0011708819074556231,0.0010010027326643467,0.0011417509522289038,0.00044762957259081304,0.000502525654155761,0.0004279237473383546,0.008696045726537704,0.009902416728436947,0.011168004013597965,passive,0
2.1213,rehab,safe_midrange_fast,28.66318300091842,-666.6468153375913,303.6996095616906,-177.67115396170996,0.304082275062052,-149.77987093223697,45.0806,0.0472,-41.0396,45.6466,2.8419,-59.3489,79.91979920037902,27.3968770244334,82.792914362237,-21.801842583550346,-89.00269402398003,-40.332794189453125,4.135672692025062,2.122251302889078,3.71766194258586,-5.911042955186632,-0.13570149739583334,3.9354705810546875,-1.2549,-0.1718,-1.0314,-0.03515,0.01025,0.02711,0.0011708819074556231,0.0010010027326643467,0.0011417509522289038,0.00044762957259081304,0.000502525654155761,0.0004279237473383546,0.008696045726537704,0.009902416728436947,0.011168004013597965,passive,0
2.1412,rehab,safe_midrange_fast,29.402852026359167,-666.6456872568624,303.0175426580665,-177.67061238206784,0.30352269239943397,-149.7804465286134,44.7285,0.0612,-40.9384,41.9311,1.9701,-58.91,79.98429628882077,27.432167884146814,82.85434534053991,-21.901287502712673,-89.00424533420139,-40.26884290907118,4.081257735148514,2.2310880151125465,4.002864573261525,-6.34980943467882,-0.06785074869791667,4.139031304253472,-1.2768,-0.2691,-1.0299,-0.04883,0.02493,0.0317,0.0011708819074556231,0.0010010027326643467,0.0011417509522289038,0.00044762957259081304,0.000502525654155761,0.0004279237473383546,0.008696045726537704,0.009902416728436947,0.011168004013597965,passive,0
2.1616,rehab,safe_midrange_fast,30.555719443547474,-666.6379028020314,301.96096160616713,-177.66981597836127,0.3028342300991694,-149.7808173400251,46.6343,0.074,-43.1693,42.7352,0.4939,-64.9948,80.08473009166151,27.48659643796411,82.94990464012221,-22.05534193250868,-89.0065426296658,-40.16977098253038,4.190087648901609,2.3399179288656407,4.127589310749922,-6.458646986219618,-0.06785074869791667,4.274732801649305,-1.2302,-0.3994,-2.017,-0.04673,0.01358,0.02784,0.0011708819074556231,0.0010010027326643467,0.0011417509522289038,0.00044762957259081304,0.000502525654155761,0.0004279237473383546,0.008696045726537704,0.009902416728436947,0.011168004013597965,passive,0
2.1815,rehab,safe_midrange_fast,31.337470516387967,-666.6321753343526,301.2398259367047,-177.6689166369796,0.3021020459405115,-149.7806277446747,48.9801,0.1025,-46.0351,50.9946,-0.6784,-78.5102,80.15283716787206,27.52394723420096,83.01499999395692,-22.160975138346355,-89.00806003146701,-40.103039211697045,4.244502605778156,2.3943328857421875,3.9924357197072244,-6.634326510959201,-0.06785074869791667,4.0033213297526045,-1.3234,-0.2981,-1.8587,-0.03964,0.00815,0.03138,0.0011708819074556231,0.0010010027326643467,0.0011417509522289038,0.00044762957259081304,0.000502525654155761,0.0004279237473383546,0.008696045726537704,0.009902416728436947,0.011168004013597965,passive,0
2.2012,rehab,safe_midrange_fast,32.129724010744184,-666.631357822753,300.49570488583106,-177.66857779674703,0.30178166749305907,-149.77967676728187,49.5877,0.1008,-47.3545,60.819,-1.1222,-91.9797,80.20461431824334,27.553500184918395,83.06429570264156,-22.241456773546005,-89.00924682617188,-40.05275302463107,4.462176030225093,2.448754641089109,4.070149034556776,-6.844719780815972,-0.06785074869791667,4.274732801649305,-1.5101,-0.1869,-1.2401,-0.05982,0.01797,0.03352,0.0011708819074556231,0.0010010027326643467,0.0011417509522289038,0.00044762957259081304,0.000502525654155761,0.0004279237473383546,0.008696045726537704,0.009902416728436947,0.011168004013597965,passive,0
2.2216,rehab,safe_midrange_fast,33.33912059138336,-666.6350508891021,299.34818937555394,-177.6683461343788,0.30150866380358,-149.77814009093365,50.6273,0.0353,-49.0933,54.1529,-1.1422,-88.9258,80.32755105802329,27.625529978534964,83.17934621678721,-22.432852851019966,-89.01204427083333,-39.933878580729164,4.298924361125077,2.61199951171875,4.143422948251857,-6.81868659125434,-0.06785074869791667,4.274732801649305,-1.5413,-0.2534,-1.3942,-0.07777,0.01421,0.03112,0.0011708819074556231,0.0010010027326643467,0.0011417509522289038,0.00044762957259081304,0.000502525654155761,0.0004279237473383546,0.008696045726537704,0.009902416728436947,0.011168004013597965,passive,0
2.2412,rehab,safe_midrange_fast,34.350200025590084,-666.6358037715079,298.35345709496795,-177.669939222886,0.30280951013378493,-149.77722137435498,51.2449,-0.0287,-50.3613,20.8872,-1.2319,-55.6954,80.41581559889387,27.679625407303913,83.26387159895188,-22.572013007269966,-89.0140363905165,-39.848107231987846,4.190087648901609,2.6664212670656715,4.272478311368735,-6.917004055447048,-0.13570149739583334,4.274732801649305,-1.3559,-0.3281,-1.9132,-0.05258,0.01028,0.02833,0.0011708819074556231,0.0010010027326643467,0.0011417509522289038,0.00044762957259081304,0.000502525654155761,0.0004279237473383546,0.008696045726537704,0.009902416728436947,0.011168004013597965,passive,0
2.2615,rehab,safe_midrange_fast,35.549150779563355,-666.6337917721195,297.1427386508856,-177.6720696437378,0.3046597556195926,-149.77784861949067,51.236,-0.0338,-51.0286,-19.5233,-1.0743,-10.388,80.52045765489635,27.745563771465036,83.36656249395692,-22.74094475640191,-89.01634216308594,-39.74474589029948,4.353339318001624,2.61199951171875,4.251933333897354,-6.87026129828559,-0.13570149739583334,4.206882052951388,-1.2722,-0.2533,-1.6565,-0.04591,0.00514,0.02773,0.0011708819074556231,0.0010010027326643467,0.0011417509522289038,0.00044762957259081304,0.000502525654155761,0.0004279237473383546,0.008696045726537704,0.009902416728436947,0.011168004013597965,passive,0
2.2814,rehab,safe_midrange_fast,36.34004050659344,-666.6345779034799,296.3423501606047,-177.67246344550819,0.30500931487653854,-149.77867627951125,51.71,-0.0112,-52.1037,-37.3857,-0.1992,12.1668,80.58953691237043,27.78963825490215,83.43421407265238,-22.854215833875866,-89.0178934733073,-39.67611524793837,4.244502605778156,2.61199951171875,4.182480160552676,-7.019805908203125,-0.06785074869791667,4.342592027452257,-1.2058,-0.121,-0.8417,-0.04316,0.0167,0.0262,0.0011708819074556231,0.0010010027326643467,0.0011417509522289038,0.00044762957259081304,0.000502525654155761,0.0004279237473383546,0.008696045726537704,0.009902416728436947,0.011168004013597965,passive,0
2.3015,rehab,safe_midrange_fast,37.513697169321865,-666.6361750709647,295.1622533922872,-177.67107648572008,0.3037885128305819,-149.78010965764335,50.788,-0.0065,-51.9163,-49.8606,0.8634,25.7221,80.69209183796798,27.85497835367033,83.53441672750039,-23.024681939019096,-89.02028401692708,-39.57404242621528,4.135672692025062,2.8296661376953125,4.1871847020517485,-6.979632907443576,-0.06785074869791667,4.206882052951388,-1.2133,-0.1493,-0.6905,-0.03625,0.00468,0.02693,0.0011708819074556231,0.0010010027326643467,0.0011417509522289038,0.00044762957259081304,0.000502525654155761,0.0004279237473383546,0.008696045726537704,0.009902416728436947,0.011168004013597965,passive,0
2.3212,rehab,safe_midrange_fast,38.30005755838801,-666.6353821845495,294.37410508855834,-177.6699665338623,0.30283142374175864,-149.77998981947772,48.5287,-0.0199,-50.0,-60.7579,1.1195,33.0338,80.76078358263072,27.898746905940595,83.6012592882213,-23.138783772786457,-89.0218522813585,-39.506751166449654,4.298924361125077,2.7752511808187657,4.1191524090153155,-7.155863444010416,-0.06785074869791667,4.139031304253472,-1.1308,-0.2369,-0.8706,-0.0438,0.01001,0.02304,0.0011708819074556231,0.0010010027326643467,0.0011417509522289038,0.00044762957259081304,0.000502525654155761,0.0004279237473383546,0.008696045726537704,0.009902416728436947,0.011168004013597965,passive,0
2.3413,rehab,safe_midrange_fast,39.46492933374888,-666.6330252537259,293.16381025856583,-177.67102099634258,0.3037272864613668,-149.78044196003535,46.0083,-0.0089,-47.6712,-61.2704,0.6003,27.421,80.8625294902537,27.966514058632427,83.70176787423615,-23.308690388997395,-89.02411566840277,-39.406467013888886,4.190087648901609,2.938502849918781,4.218070152962562,-6.981311374240451,-0.06785074869791667,4.206882052951388,-1.4202,-0.2308,-0.9622,-0.07488,0.02062,0.02609,0.0011708819074556231,0.0010010027326643467,0.0011417509522289038,0.00044762957259081304,0.000502525654155761,0.0004279237473383546,0.008696045726537704,0.009902416728436947,0.011168004013597965,passive,0
2.3617,rehab,safe_midrange_fast,40.23353803191136,-666.6335995827492,292.3488800831198,-177.67191088192124,0.30444669530801555,-149.77974614423553,45.7992,0.0636,-48.0188,-64.4617,0.1076,23.3365,80.92970517602298,28.01271646329672,83.76848126401995,-23.42241923014323,-89.02559916178386,-39.34126959906684,4.135672692025062,2.938502849918781,4.184342941435257,-7.184761895073785,-0.06785074869791667,4.0033213297526045,-1.2451,-0.1195,-1.0598,-0.0492,0.01451,0.02711,0.0011708819074556231,0.0010010027326643467,0.0011417509522289038,0.00044762957259081304,0.000502525654155761,0.0004279237473383546,0.008696045726537704,0.009902416728436947,0.011168004013597965,passive,0
2.3814,rehab,safe_midrange_fast,41.372883905908694,-666.6374176035627,291.1336116613129,-177.67294676907284,0.30522799560875974,-149.7781432011442,45.7953,0.09,-49.1522,-52.8104,-0.0377,2.7336,81.0293435578299,28.082461970867495,83.86682793645575,-23.59209696451823,-89.02782016330295,-39.245147705078125,4.026835979801594,2.884087893042234,4.182017864567219,-7.17911614312066,-0.06785074869791667,3.8676198323567705,-1.1899,-0.2356,-1.6618,-0.03655,0.00653,0.03232,0.0011708819074556231,0.0010010027326643467,0.0011417509522289038,0.00044762957259081304,0.000502525654155761,0.0004279237473383546,0.008696045726537704,0.009902416728436947,0.011168004013597965,passive,0
2.4013,rehab,safe_midrange_fast,42.11533465343764,-666.6363604314182,290.33833319766995,-177.67255768621735,0.3048609620366982,-149.77640477106488,44.2879,0.0314,-48.9683,-23.9336,-0.2325,-34.8884,81.09423495755337,28.12782816367574,83.93216803522394,-23.705190022786457,-89.02924431694878,-39.183264838324654,3.9724210229250465,2.7752511808187657,4.093100670540687,-7.096142239040798,-0.06785074869791667,3.9354705810546875,-1.3597,-0.3465,-0.9738,-0.04752,0.01041,0.02854,0.0011708819074556231,0.0010010027326643467,0.0011417509522289038,0.00044762957259081304,0.000502525654155761,0.0004279237473383546,0.008696045726537704,0.009902416728436947,0.011168004013597965,passive,0
2.4216,rehab,safe_midrange_fast,42.83720667475663,-666.6315345176781,289.55041211741604,-177.6717003686437,0.30422481767529364,-149.77534760530597,43.8222,-0.0219,-49.8825,-12.5178,-0.7497,-49.9339,81.14186504099628,28.161365018032566,83.98124619285659,-23.78963894314236,-89.03023613823784,-39.137776692708336,3.918006066048499,2.8296661376953125,4.116480610158184,-7.009396023220486,-0.06785074869791667,3.8676198323567705,-1.1626,-0.1891,-1.1011,-0.03623,0.00969,0.03131,0.0011708819074556231,0.0010010027326643467,0.0011417509522289038,0.00044762957259081304,0.000502525654155761,0.0004279237473383546,0.008696045726537704,0.009902416728436947,0.011168004013597965,passive,0
2.4412,rehab,safe_midrange_fast,43.87493895403522,-666.6253615223598,288.3715558196604,-177.67036191519958,0.30313179845701776,-149.7765818217157,42.966,-0.0211,-50.0864,-23.475,-1.0763,-31.6248,81.24796196965887,28.23937746557859,84.09549448749807,-23.987367418077255,-89.03255886501736,-39.03251647949219,3.7003394400719367,2.884087893042234,4.033702434879719,-6.878670586480035,-0.06785074869791667,3.664059109157986,-1.3606,-0.1695,-1.9256,-0.03605,0.01796,0.03167,0.0011708819074556231,0.0010010027326643467,0.0011417509522289038,0.00044762957259081304,0.000502525654155761,0.0004279237473383546,0.008696045726537704,0.009902416728436947,0.011168004013597965,passive,0
2.4618,rehab,safe_midrange_fast,44.70569428899447,-666.6266370866433,287.3746571548014,-177.6703202661678,0.30306672734776097,-149.77801889361672,42.212,0.0012,-50.2834,-38.3175,-0.4453,-0.8971,81.3206648118425,28.297089680586712,84.17597477979,-24.127799140082466,-89.03418646918402,-38.959952460394966,3.7003394400719367,2.992917806795328,4.044029311378403,-6.865573459201388,-0.06785074869791667,3.664059109157986,-1.3932,-0.1068,-1.3654,-0.04399,0.01312,0.02996,0.0011708819074556231,0.0010010027326643467,0.0011417509522289038,0.00044762957259081304,0.000502525654155761,0.0004279237473383546,0.008696045726537704,0.009902416728436947,0.011168004013597965,passive,0
2.4817,rehab,safe_midrange_fast,45.68203158620674,-666.6389126624957,286.16126883338,-177.67076095599265,0.30345238895205146,-149.77979833111283,43.8527,-0.0091,-53.1263,-39.5538,0.6554,14.0968,81.40625755385597,28.369037892558786,84.2710037986831,-24.296739366319443,-89.03604295518663,-38.87447781032986,3.5370877709719215,3.047339562142249,4.011688987807472,-7.170282999674479,-0.0,3.4604983859592013,-1.4072,-0.1398,-0.8926,-0.06132,0.00608,0.02851,0.0011708819074556231,0.0010010027326643467,0.0011417509522289038,0.00044762957259081304,0.000502525654155761,0.0004279237473383546,0.008696045726537704,0.009902416728436947,0.011168004013597965,passive,0
2.5012,rehab,safe_midrange_fast,46.343466089756234,-666.6392389529949,285.35077780968396,-177.671614460341,0.30414599611840964,-149.77932726796664,42.5201,-0.0325,-51.9743,-40.2059,0.915,26.0891,81.46413293215308,28.416593192827584,84.33507938196163,-24.40894232855903,-89.03726365831163,-38.8183339436849,3.5370877709719215,2.8296661376953125,4.026951553797958,-6.869998508029513,-0.06785074869791667,3.528349134657118,-1.401,-0.1488,-1.028,-0.05939,0.00021,0.0312,0.0011708819074556231,0.0010010027326643467,0.0011417509522289038,0.00044762957259081304,0.000502525654155761,0.0004279237473383546,0.008696045726537704,0.009902416728436947,0.011168004013597965,passive,0
2.5217,rehab,safe_midrange_fast,47.33728891207126,-666.6348041134107,284.1473034130245,-177.6718566542377,0.3043528031454572,-149.7771552197211,40.0205,-0.0199,-49.2497,-44.3748,0.3854,39.0164,81.55103098047842,28.487038942846922,84.4310465897664,-24.577501085069443,-89.03905232747395,-38.73549567328559,3.482672814095374,2.8296661376953125,3.8305505431524596,-7.01491461859809,-0.0,3.4604983859592013,-1.4793,-0.2618,-1.3386,-0.06017,0.00821,0.03148,0.0011708819074556231,0.0010010027326643467,0.0011417509522289038,0.00044762957259081304,0.000502525654155761,0.0004279237473383546,0.008696045726537704,0.009902416728436947,0.011168004013597965,passive,0
2.5414,rehab,safe_midrange_fast,47.9890500879185,-666.630436043272,283.3602058988105,-177.67112962804907,0.3037677408984724,-149.77662230174124,38.8705,0.043,-47.9091,-35.4776,0.0453,33.6219,81.60801575915649,28.5331393704556,84.49424517036664,-24.689373440212673,-89.04025607638889,-38.68029276529948,3.5915027278484684,2.992917806795328,3.8804989049930385,-6.830630832248263,-0.06785074869791667,3.528349134657118,-1.3628,-0.2125,-1.097,-0.04257,-0.00345,0.02945,0.0011708819074556231,0.0010010027326643467,0.0011417509522289038,0.00044762957259081304,0.000502525654155761,0.0004279237473383546,0.008696045726537704,0.009902416728436947,0.011168004013597965,passive,0
2.5615,rehab,safe_midrange_fast,48.948175025888794,-666.6308807793931,282.1810547303121,-177.6696311919611,0.3025536309749942,-149.77705905024254,38.5351,0.0867,-47.595,-18.7376,-0.0357,16.5004,81.69198366675046,28.60335397248221,84.58732982673267,-24.857050577799477,-89.04207017686632,-38.59775967068142,3.373836101871906,3.2650061881188117,3.9309911444635675,-6.789186265733507,-0.06785074869791667,3.528349134657118,-1.3298,-0.0564,-1.136,-0.04698,0.0004,0.03278,0.0011708819074556231,0.0010010027326643467,0.0011417509522289038,0.00044762957259081304,0.000502525654155761,0.0004279237473383546,0.008696045726537704,0.009902416728436947,0.011168004013597965,passive,0
2.5812,rehab,safe_midrange_fast,49.58438261897514,-666.6308249195574,281.38408632690124,-177.66948565747913,0.3024077121281117,-149.77724343265754,39.1446,0.027,-48.6327,6.8564,-0.2905,-14.3342,81.74768353452777,28.65109962992149,84.6494202566619,-24.96871100531684,-89.04328240288628,-38.543124728732636,3.319421144995359,2.884087893042234,3.9515905096979425,-6.884680853949653,-0.06785074869791667,3.324796888563368,-1.43,-0.0863,-0.8394,-0.05678,0.01406,0.03415,0.0011708819074556231,0.0010010027326643467,0.0011417509522289038,0.00044762957259081304,0.000502525654155761,0.0004279237473383546,0.008696045726537704,0.009902416728436947,0.011168004013597965,passive,0
2.6014,rehab,safe_midrange_fast,50.235453779841194,-666.6313208469724,280.5766294218811,-177.67008499248993,0.3029540953962984,-149.77681264059626,38.6054,-0.0415,-48.1567,33.1232,-0.8339,-46.1424,81.8046751116762,28.699973833442915,84.71119115848353,-25.080184936523438,-89.044435289171,-38.48781161838107,3.7003394400719367,3.047339562142249,3.8464725607692607,-6.951327853732638,-0.06785074869791667,3.2569376627604165,-1.4405,-0.2822,-1.5632,-0.05961,0.00151,0.03551,0.0011708819074556231,0.0010010027326643467,0.0011417509522289038,0.00044762957259081304,0.000502525654155761,0.0004279237473383546,0.008696045726537704,0.009902416728436947,0.011168004013597965,passive,0
2.6221,rehab,safe_midrange_fast,51.21286506509433,-666.6300166985524,279.35387510818657,-177.67189125696845,0.3043974576149752,-149.77518418186156,40.0257,-0.0301,-49.9067,42.1477,-1.206,-55.1165,81.89022026439704,28.774267517694152,84.8039426898012,-25.247344970703125,-89.04620700412326,-38.405770195855034,3.373836101871906,3.1017545190187965,3.8764402181795328,-6.920462714301215,-0.0,3.2569376627604165,-1.4513,-0.1935,-1.2187,-0.05497,0.0071,0.03338,0.0011708819074556231,0.0010010027326643467,0.0011417509522289038,0.00044762957259081304,0.000502525654155761,0.0004279237473383546,0.008696045726537704,0.009902416728436947,0.011168004013597965,passive,0
2.6416,rehab,safe_midrange_fast,51.848636027691235,-666.6324402569421,278.5426610537173,-177.67244104759078,0.3048676769706714,-149.77610747382545,41.8664,-0.015,-52.1751,33.4314,-0.6567,-39.683,81.93205805108099,28.811774678749615,84.85000232658764,-25.331293741861977,-89.0470971001519,-38.36430867513021,3.373836101871906,3.1561694758953434,3.7288658217628403,-7.023841010199653,-0.0,3.4604983859592013,-1.4394,-0.2555,-1.1374,-0.06574,-0.01418,0.02891,0.0011708819074556231,0.0010010027326643467,0.0011417509522289038,0.00044762957259081304,0.000502525654155761,0.0004279237473383546,0.008696045726537704,0.009902416728436947,0.011168004013597965,passive,0
2.6612,rehab,safe_midrange_fast,52.95257094709714,-666.6374417843417,277.1688583298104,-177.67029759822023,0.3031513179856719,-149.77789299499696,42.1126,-0.0397,-52.5242,13.2392,0.6417,-8.5275,82.04266916407217,28.909013200514387,84.96898915508005,-25.553639729817707,-89.04951307508681,-38.254030015733505,3.373836101871906,2.8296661376953125,3.718946853486618,-6.852222018771701,-0.0,3.528349134657118,-1.3897,0.0254,-1.1021,-0.04529,0.00393,0.03517,0.0011708819074556231,0.0010010027326643467,0.0011417509522289038,0.00044762957259081304,0.000502525654155761,0.0004279237473383546,0.008696045726537704,0.009902416728436947,0.011168004013597965,passive,0
2.6812,rehab,safe_midrange_fast,53.59486245821777,-666.6357505791412,276.390886887364,-177.66848873457687,0.30173091435066696,-149.7779578797984,41.9133,-0.0566,-52.187,-1.5411,1.342,13.9393,82.09889931253868,28.95696961053527,85.0284485769744,-25.66497802734375,-89.05071682400174,-38.19897121853298,3.64592448319539,3.1561694758953434,3.730803385819539,-6.93572998046875,-0.06785074869791667,3.324796888563368,-1.4138,-0.1309,-0.8771,-0.05304,0.00363,0.02604,0.0011708819074556231,0.0010010027326643467,0.0011417509522289038,0.00044762957259081304,0.000502525654155761,0.0004279237473383546,0.008696045726537704,0.009902416728436947,0.011168004013597965,passive,0
2.7017,rehab,safe_midrange_fast,54.578578470412815,-666.6298165243022,275.1867854723617,-177.6690493321615,0.30214595547010065,-149.7768411169946,41.7477,-0.03,-51.5989,-14.4675,0.9295,31.9047,82.18497474594872,29.031610016775602,85.1183039599126,-25.831222534179688,-89.05255635579427,-38.1158701578776,3.5915027278484684,3.2105844327718907,3.7822134187906093,-6.66977776421441,-0.06785074869791667,3.4604983859592013,-1.5066,-0.0625,-1.1212,-0.06624,0.00442,0.02665,0.0011708819074556231,0.0010010027326643467,0.0011417509522289038,0.00044762957259081304,0.000502525654155761,0.0004279237473383546,0.008696045726537704,0.009902416728436947,0.011168004013597965,passive,0
2.7217,rehab,safe_midrange_fast,55.23300031108269,-666.6312893434905,274.3627978468731,-177.67102054452965,0.3036600576835288,-149.77623251544537,41.2177,0.0376,-50.4452,-22.7582,0.4223,44.0776,82.24230624661587,29.083733889135985,85.17738946593634,-25.941577487521702,-89.05379401312933,-38.060387505425346,3.7003394400719367,3.2650061881188117,3.7302935005414604,-6.852120293511285,-0.06785074869791667,3.4604983859592013,-1.6942,-0.142,-1.4452,-0.08636,0.01282,0.02809,0.0011708819074556231,0.0010010027326643467,0.0011417509522289038,0.00044762957259081304,0.000502525654155761,0.0004279237473383546,0.008696045726537704,0.009902416728436947,0.011168004013597965,passive,0
2.7417,rehab,safe_midrange_fast,56.21474933947038,-666.6381508465859,273.130530438987,-177.67307958791145,0.30526059036354175,-149.77628859994766,39.7801,0.0975,-48.2597,-15.1433,0.3304,36.3579,82.32837488155553,29.1626777271233,85.26462063931002,-26.107618543836804,-89.05565049913194,-37.97612508138021,3.482672814095374,3.2650061881188117,3.557952276550897,-6.735017564561632,-0.06785074869791667,3.528349134657118,-1.3733,0.0671,-1.5043,-0.03489,0.00036,0.03956,0.0011708819074556231,0.0010010027326643467,0.0011417509522289038,0.00044762957259081304,0.000502525654155761,0.0004279237473383546,0.008696045726537704,0.009902416728436947,0.011168004013597965,passive,0
2.7618,rehab,safe_midrange_fast,56.87478065664862,-666.6380278799285,272.3339325406756,-177.67279952616582,0.3050818358872241,-149.7767273507066,39.8276,0.0721,-48.0926,-0.4065,0.0228,17.9403,82.3861822751489,29.21351668858292,85.32214249714767,-26.217981974283852,-89.05687967936198,-37.919108072916664,3.754754396948484,3.047339562142249,3.4394209455735614,-6.746919420030382,-0.13570149739583334,3.528349134657118,-1.4362,0.0908,-1.1772,-0.04485,0.00915,0.03807,0.0011708819074556231,0.0010010027326643467,0.0011417509522289038,0.00044762957259081304,0.000502525654155761,0.0004279237473383546,0.008696045726537704,0.009902416728436947,0.011168004013597965,passive,0
2.7815,rehab,safe_midrange_fast,57.87159340574774,-666.6311074194953,271.160866146716,-177.67104528627345,0.30368297686544543,-149.7763074626978,40.7555,-0.0046,-49.0385,14.9957,-0.8156,-3.5609,82.47342024699296,29.288102707060258,85.4080343718576,-26.383192274305554,-89.0587870279948,-37.83412509494357,3.7003394400719367,3.1561694758953434,3.585554066270885,-6.787770589192708,-0.13570149739583334,3.664059109157986,-1.4386,-0.0695,-0.9679,-0.04586,-0.00578,0.04036,0.0011708819074556231,0.0010010027326643467,0.0011417509522289038,0.00044762957259081304,0.000502525654155761,0.0004279237473383546,0.008696045726537704,0.009902416728436947,0.011168004013597965,passive,0
2.8015,rehab,safe_midrange_fast,58.54748123119283,-666.6266588471877,270.37387497447696,-177.67023047990912,0.30303725922671393,-149.7758003998962,41.11,-0.0399,-49.1708,30.6012,-1.649,-25.2378,82.53257373772045,29.338608543471533,85.46477440560218,-26.49315728081597,-89.06007554796007,-37.77670118543837,3.809169353825031,3.319421144995359,3.571719179059019,-6.73110114203559,-0.13570149739583334,3.7319098578559027,-1.4516,0.0733,-0.9199,-0.04098,0.0151,0.03756,0.0011708819074556231,0.0010010027326643467,0.0011417509522289038,0.00044762957259081304,0.000502525654155761,0.0004279237473383546,0.008696045726537704,0.009902416728436947,0.011168004013597965,passive,0
2.8214,rehab,safe_midrange_fast,59.22237796763005,-666.6249737843514,269.57158892420483,-177.6705534593796,0.30329321438303136,-149.7756117352985,41.8919,-0.0194,-49.7039,47.3687,-1.6433,-43.1337,82.59167284068495,29.390705221950416,85.5211065311243,-26.602859497070312,-89.06135559082031,-37.719014485677086,3.5915027278484684,3.2650061881188117,3.5051825495049505,-6.81565178765191,-0.13570149739583334,3.664059109157986,-1.4144,-0.0974,-1.2354,-0.0613,-0.00968,0.02978,0.0011708819074556231,0.0010010027326643467,0.0011417509522289038,0.00044762957259081304,0.000502525654155761,0.0004279237473383546,0.008696045726537704,0.009902416728436947,0.011168004013597965,passive,0
2.8414,rehab,safe_midrange_fast,60.22876211438599,-666.631744391207,268.36035361905476,-177.6710203373829,0.303708650424473,-149.77645862084583,42.5668,-0.0232,-50.2263,52.2395,-0.4924,-41.053,82.67991018767404,29.470865986134747,85.6037419385249,-26.767578125,-89.06326293945312,-37.63176812065972,3.5915027278484684,3.2650061881188117,3.3844349171855663,-6.808878580729166,-0.06785074869791667,3.799769083658854,-1.3942,-0.0607,-2.0923,-0.04686,0.00234,0.03509,0.0011708819074556231,0.0010010027326643467,0.0011417509522289038,0.00044762957259081304,0.000502525654155761,0.0004279237473383546,0.008696045726537704,0.009902416728436947,0.011168004013597965,passive,0
2.8615,rehab,safe_midrange_fast,61.05915764034237,-666.638791134283,267.354848961065,-177.67132462204344,0.3039146135570706,-149.77908537981054,43.7165,-0.0696,-51.3276,38.2497,1.0301,-15.2043,82.75275579773553,29.537960090259514,85.6715702774501,-26.904288397894966,-89.06494988335503,-37.55782233344184,3.754754396948484,3.373836101871906,3.412668964650371,-6.714486016167535,-0.06785074869791667,3.664059109157986,-1.4623,0.0328,-1.2127,-0.0606,0.00323,0.03505,0.0011708819074556231,0.0010010027326643467,0.0011417509522289038,0.00044762957259081304,0.000502525654155761,0.0004279237473383546,0.008696045726537704,0.009902416728436947,0.011168004013597965,passive,0
2.8813,rehab,safe_midrange_fast,62.07991360604341,-666.6412797726754,266.15698058933015,-177.67110809340815,0.3037646132640108,-149.78097620579553,44.6475,-0.0872,-51.9818,23.3793,1.6579,7.8425,82.84221686939202,29.617971288095607,85.75258764890161,-27.068184746636284,-89.06695895724826,-37.468295627170136,3.8635911091719524,3.1561694758953434,3.358940653281637,-7.058283487955729,-0.13570149739583334,3.799769083658854,-1.3181,-0.1025,-1.3539,-0.05143,0.00788,0.02811,0.0011708819074556231,0.0010010027326643467,0.0011417509522289038,0.00044762957259081304,0.000502525654155761,0.0004279237473383546,0.008696045726537704,0.009902416728436947,0.011168004013597965,passive,0
2.9014,rehab,safe_midrange_fast,62.791665228052295,-666.6361100042132,265.3570046226265,-177.67116779024167,0.30388342655473993,-149.78018170220224,45.3275,-0.0392,-51.9409,14.1732,1.2291,20.2607,82.90449765649173,29.671257698890006,85.80688023331142,-27.17739529079861,-89.06826443142361,-37.40802341037326,3.9724210229250465,3.428251058748453,3.3713138693630107,-6.878696017795138,-0.13570149739583334,3.596208360460069,-1.4043,-0.0229,-1.6089,-0.04788,-0.00312,0.03432,0.0011708819074556231,0.0010010027326643467,0.0011417509522289038,0.00044762957259081304,0.000502525654155761,0.0004279237473383546,0.008696045726537704,0.009902416728436947,0.011168004013597965,passive,0
2.9216,rehab,safe_midrange_fast,63.868750796120935,-666.6312249441823,264.1528336744596,-177.6719255691236,0.30446500172102287,-149.77884772239028,46.1335,0.0544,-51.5644,9.6325,0.6522,27.3377,82.9987924405844,29.752472225982363,85.88672826785853,-27.34014723036024,-89.07033284505208,-37.31687757703993,3.918006066048499,3.428251058748453,3.3092846256671566,-6.89210679796007,-0.13570149739583334,3.799769083658854,-1.3751,0.0463,-0.9312,-0.05598,0.00367,0.0317,0.0011708819074556231,0.0010010027326643467,0.0011417509522289038,0.00044762957259081304,0.000502525654155761,0.0004279237473383546,0.008696045726537704,0.009902416728436947,0.011168004013597965,passive,0
2.9413,rehab,safe_midrange_fast,64.5844066340836,-666.6328626297746,263.3507685191558,-177.6719360056339,0.3044590074172872,-149.77883716745356,44.892,0.1224,-49.1429,5.3133,0.3246,33.3843,83.06150832978805,29.807424262018486,85.93877735704478,-27.448925442165798,-89.07174852159288,-37.25538465711806,3.9724210229250465,3.482672814095374,3.228926705841971,-6.903033786349826,-0.06785074869791667,3.7319098578559027,-1.3645,-0.122,-1.2063,-0.07554,0.01228,0.0256,0.0011708819074556231,0.0010010027326643467,0.0011417509522289038,0.00044762957259081304,0.000502525654155761,0.0004279237473383546,0.008696045726537704,0.009902416728436947,0.011168004013597965,passive,0
2.9618,rehab,safe_midrange_fast,65.67146717428163,-666.6359874555847,262.14939067403355,-177.6720756666018,0.30453428522132064,-149.77964791428178,44.1202,0.0996,-47.6503,7.6818,-0.2197,31.6588,83.15678209361464,29.8905083684638,86.01548449827892,-27.611287434895832,-89.07394409179688,-37.16111077202691,3.918006066048499,3.5915027278484684,3.2101901214901765,-6.669243706597222,-0.06785074869791667,3.8676198323567705,-1.3082,-0.0628,-1.111,-0.05174,0.02186,0.02557,0.0011708819074556231,0.0010010027326643467,0.0011417509522289038,0.00044762957259081304,0.000502525654155761,0.0004279237473383546,0.008696045726537704,0.009902416728436947,0.011168004013597965,passive,0
2.9816,rehab,safe_midrange_fast,66.41436921856065,-666.6338998585811,261.3527071399932,-177.67187619233027,0.3043423364541035,-149.7790140980124,45.1364,0.0012,-48.4904,23.9224,-1.0807,14.2063,83.22184345509746,29.94565756014078,86.06645263067567,-27.719506157769096,-89.07543606228299,-37.09788852267795,4.298924361125077,3.373836101871906,3.1729616977200648,-6.785625881618923,-0.06785074869791667,3.9354705810546875,-1.357,-0.058,-1.3852,-0.03975,0.0043,0.03377,0.0011708819074556231,0.0010010027326643467,0.0011417509522289038,0.00044762957259081304,0.000502525654155761,0.0004279237473383546,0.008696045726537704,0.009902416728436947,0.011168004013597965,passive,0
3.0015,rehab,safe_midrange_fast,67.55587979397372,-666.6291431652571,260.1675088230208,-177.67057822054414,0.3034021755189506,-149.7773734913481,46.3932,-0.0651,-49.2525,41.8756,-1.7118,-6.4095,83.32178096960087,30.02833375836363,86.14175248854231,-27.88186815049913,-89.07764858669705,-37.00139363606771,4.190087648901609,3.482672814095374,3.1772175401744276,-6.770265367296007,-0.06785074869791667,4.071180555555555,-1.2494,0.0605,-1.0391,-0.0412,0.01219,0.02772,0.0011708819074556231,0.0010010027326643467,0.0011417509522289038,0.00044762957259081304,0.000502525654155761,0.0004279237473383546,0.008696045726537704,0.009902416728436947,0.011168004013597965,passive,0
3.0212,rehab,safe_midrange_fast,68.31821893425001,-666.6277119034856,259.3754548184423,-177.6699124497055,0.30289820210478885,-149.77692579600964,47.2092,-0.0578,-49.1509,60.1525,-1.4125,-24.963,83.38854874714767,30.084155998607674,86.19108218957882,-27.989730834960938,-89.0791744656033,-36.93627251519097,4.190087648901609,3.5915027278484684,3.080074196994895,-6.7012786865234375,-0.13570149739583334,4.206882052951388,-1.4384,-0.0955,-1.993,-0.06791,0.02123,0.02964,0.0011708819074556231,0.0010010027326643467,0.0011417509522289038,0.00044762957259081304,0.000502525654155761,0.0004279237473383546,0.008696045726537704,0.009902416728436947,0.011168004013597965,passive,0
3.0415,rehab,safe_midrange_fast,69.0829516258758,-666.6309372382294,258.5703771858495,-177.67049176886522,0.30330126431775845,-149.77792229235052,47.8913,-0.0394,-48.7437,69.2002,-0.1707,-27.5831,83.45558166503906,30.141759438089803,86.23924255371094,-28.09671190049913,-89.08077663845486,-36.86943901909722,4.135672692025062,3.809169353825031,2.9943318886331993,-6.4763641357421875,-0.13570149739583334,4.342592027452257,-1.481,-0.0761,-1.8902,-0.08311,0.0189,0.0316,0.0011708819074556231,0.0010010027326643467,0.0011417509522289038,0.00044762957259081304,0.000502525654155761,0.0004279237473383546,0.008696045726537704,0.009902416728436947,0.011168004013597965,passive,0
3.0617,rehab,safe_midrange_fast,70.24302274317019,-666.639044423787,257.350767066736,-177.67237769896767,0.3047270822863875,-149.77946761663554,50.0861,-0.0428,-50.0052,52.7055,1.2088,-0.4652,83.5572867818398,30.230071568253017,86.31002142877863,-28.25635274251302,-89.08316718207465,-36.76797654893663,4.4077542748781715,3.64592448319539,2.9010840689781867,-6.6512298583984375,-0.13570149739583334,4.274732801649305,-1.1992,-0.0357,-1.0724,-0.04812,0.00836,0.0264,0.0011708819074556231,0.0010010027326643467,0.0011417509522289038,0.00044762957259081304,0.000502525654155761,0.0004279237473383546,0.008696045726537704,0.009902416728436947,0.011168004013597965,passive,0
3.0812,rehab,safe_midrange_fast,71.23495967952712,-666.6415426222605,256.3670988763623,-177.67237574709102,0.3047116086299092,-149.7794778179209,51.3376,-0.0422,-50.4153,29.8466,1.6576,26.653,83.64419842710589,30.301822624584236,86.36702660286781,-28.387569851345486,-89.08521864149306,-36.682518853081596,4.353339318001624,3.482672814095374,2.9180734464437657,-6.710298326280382,-0.06785074869791667,4.274732801649305,-1.1976,-0.0453,-0.9765,-0.05167,0.00659,0.02809,0.0011708819074556231,0.0010010027326643467,0.0011417509522289038,0.00044762957259081304,0.000502525654155761,0.0004279237473383546,0.008696045726537704,0.009902416728436947,0.011168004013597965,passive,0
3.1012,rehab,safe_midrange_fast,72.4380132421476,-666.6357966091473,255.23466118559068,-177.6703930586759,0.3033172667369038,-149.77941388136043,51.3883,-0.0019,-49.5245,13.4685,1.0146,40.9472,83.74950673320505,30.384492024336712,86.43354283701075,-28.54214138454861,-89.08765157063802,-36.578987969292534,4.298924361125077,3.5915027278484684,2.657535666286355,-6.372570461697048,-0.20355224609375,4.47829352484809,-1.2689,0.0023,-1.3374,-0.05564,0.01459,0.03022,0.0011708819074556231,0.0010010027326643467,0.0011417509522289038,0.00044762957259081304,0.000502525654155761,0.0004279237473383546,0.008696045726537704,0.009902416728436947,0.011168004013597965,passive,0
3.1214,rehab,safe_midrange_fast,73.25160979940226,-666.6347017725466,254.48964648676449,-177.6691371134284,0.30234255344307226,-149.77826887937414,52.0002,0.0521,-48.8593,-11.3024,0.1377,61.0038,83.82075470272858,30.439831573184172,86.47574094262454,-28.643239339192707,-89.08936394585503,-36.510009765625,4.462176030225093,3.319421144995359,2.6566790590191833,-6.145663791232638,-0.06785074869791667,4.342592027452257,-1.1437,0.0517,-1.72,-0.04644,0.00424,0.0352,0.0011708819074556231,0.0010010027326643467,0.0011417509522289038,0.00044762957259081304,0.000502525654155761,0.0004279237473383546,0.008696045726537704,0.009902416728436947,0.011168004013597965,passive,0
3.1415,rehab,safe_midrange_fast,74.46339863898798,-666.6321073621975,253.35471584308993,-177.67064231174234,0.30340217636598615,-149.77746413232737,50.7607,0.0799,-46.0764,-37.4543,-0.3798,84.8974,83.92685842986154,30.524513320167465,86.53781777561301,-28.791113959418404,-89.09193250868056,-36.40636867947048,4.4077542748781715,3.5370877709719215,2.590543539217203,-5.991728040907118,-0.13570149739583334,4.47829352484809,-1.0778,0.0631,-1.692,-0.04369,-0.00095,0.0302,0.0011708819074556231,0.0010010027326643467,0.0011417509522289038,0.00044762957259081304,0.000502525654155761,0.0004279237473383546,0.008696045726537704,0.009902416728436947,0.011168004013597965,passive,0
3.1622,rehab,safe_midrange_fast,75.26825686185971,-666.632366934147,252.61242289170337,-177.6718686327285,0.3042684470787105,-149.77672736397474,49.2207,0.051,-43.6441,-36.0783,-0.7427,95.132,83.99734497070312,30.58064829004873,86.57707894202507,-28.886964586046005,-89.09364488389757,-36.3376956515842,4.4077542748781715,3.482672814095374,2.3568257246867264,-5.8077748616536455,-0.06785074869791667,4.410442776150173,-1.2315,0.0343,-1.5853,-0.0628,0.00487,0.02927,0.0011708819074556231,0.0010010027326643467,0.0011417509522289038,0.00044762957259081304,0.000502525654155761,0.0004279237473383546,0.008696045726537704,0.009902416728436947,0.011168004013597965,passive,0
3.1815,rehab,safe_midrange_fast,76.4639380173593,-666.6320384534911,251.5444228546595,-177.67287862862514,0.30510174924968997,-149.7772657419977,49.3991,-0.0212,-42.9274,-15.7636,-0.8422,91.2674,84.10203461599822,30.662216337600558,86.63261564651339,-29.025709364149304,-89.09613715277777,-36.234020657009545,4.462176030225093,3.1017545190187965,2.124746341516476,-5.523817274305555,-0.06785074869791667,4.47829352484809,-1.004,0.1258,-1.1143,-0.05203,0.00877,0.02238,0.0011708819074556231,0.0010010027326643467,0.0011417509522289038,0.00044762957259081304,0.000502525654155761,0.0004279237473383546,0.008696045726537704,0.009902416728436947,0.011168004013597965,passive,0
3.2012,rehab,safe_midrange_fast,77.25184848676876,-666.6326551537059,250.88714324237526,-177.67120517852175,0.30386792776819654,-149.77818696882855,48.7371,-0.073,-41.1806,8.8153,-0.4336,80.8456,84.1710390902982,30.71327285011216,86.6664992228593,-29.11468505859375,-89.09787495930989,-36.16508483886719,4.298924361125077,3.047339562142249,2.0438173501798422,-5.528166029188368,-0.06785074869791667,4.546152750651042,-0.9194,0.0966,-0.7381,-0.04939,0.00139,0.02158,0.0011708819074556231,0.0010010027326643467,0.0011417509522289038,0.00044762957259081304,0.000502525654155761,0.0004279237473383546,0.008696045726537704,0.009902416728436947,0.011168004013597965,passive,0
3.2215,rehab,safe_midrange_fast,78.44017102420725,-666.6345178470532,249.9408975548522,-177.66902208351212,0.3022258839880176,-149.7792512730794,47.5042,-0.0637,-38.5562,20.5694,0.1077,78.1334,84.27511007478921,30.7880696211711,86.71306194645344,-29.241714477539062,-89.10055372450087,-36.06136745876736,4.4077542748781715,3.319421144995359,1.8558600397393255,-5.2404530843098955,-0.13570149739583334,4.274732801649305,-0.9472,0.193,-0.7129,-0.04057,0.01089,0.0258,0.0011708819074556231,0.0010010027326643467,0.0011417509522289038,0.00044762957259081304,0.000502525654155761,0.0004279237473383546,0.008696045726537704,0.009902416728436947,0.011168004013597965,passive,0
3.2418,rehab,safe_midrange_fast,79.24275961150427,-666.6356933997704,249.30679893544556,-177.67011809954536,0.3029897476476051,-149.77869058126277,49.8869,-0.023,-37.8239,23.233,0.4703,88.8474,84.34537906457882,30.838799807104735,86.74205062412979,-29.32204352484809,-89.10234239366319,-35.99256727430556,4.353339318001624,3.1561694758953434,1.6843074383121905,-4.996092054578993,-0.13570149739583334,4.614003499348958,-0.8415,0.0751,-1.5124,-0.04705,0.02437,0.02407,0.0011708819074556231,0.0010010027326643467,0.0011417509522289038,0.00044762957259081304,0.000502525654155761,0.0004279237473383546,0.008696045726537704,0.009902416728436947,0.011168004013597965,passive,0
3.2615,rehab,safe_midrange_fast,80.04059342175745,-666.6374434416228,248.6848470972058,-177.6723839129592,0.30462923097853883,-149.77863153949556,52.2181,0.0134,-36.7772,37.7185,0.6224,97.2002,84.41522654920522,30.889108487875156,86.76901335763459,-29.39846462673611,-89.10412258572049,-35.92364841037326,4.244502605778156,3.047339562142249,1.5751579964515006,-4.7384897867838545,-0.13570149739583334,4.410442776150173,-0.9633,0.3351,-0.1305,-0.0549,0.0167,0.01406,0.0011708819074556231,0.0010010027326643467,0.0011417509522289038,0.00044762957259081304,0.000502525654155761,0.0004279237473383546,0.008696045726537704,0.009902416728436947,0.011168004013597965,passive,0
3.2816,rehab,safe_midrange_fast,81.43200438813606,-666.6384868188766,247.68665349584612,-177.6749898412247,0.30643443410136284,-149.77871200069856,51.8743,0.0665,-34.2306,30.8166,0.5067,109.052,84.53701434749188,30.971587530457146,86.80994694775875,-29.522103203667534,-89.10733540852864,-35.80318874782986,4.4077542748781715,2.7208362239422184,1.2360298987662437,-4.2092132568359375,-0.06785074869791667,4.274732801649305,-0.93,0.363,-1.1393,-0.0447,0.00404,0.01992,0.0011708819074556231,0.0010010027326643467,0.0011417509522289038,0.00044762957259081304,0.000502525654155761,0.0004279237473383546,0.008696045726537704,0.009902416728436947,0.011168004013597965,passive,0
3.3015,rehab,safe_midrange_fast,82.23471493857068,-666.636198537226,247.17942303390174,-177.67488377143565,0.3063825901924476,-149.77848773835797,51.8781,0.0552,-31.8915,-8.8597,0.1744,129.8047,84.60722894951849,31.014655840278852,86.82951974396659,-29.586808946397568,-89.10915798611111,-35.73393079969618,4.4077542748781715,2.503169597965656,1.1971766405766553,-3.9434814453125,-0.20355224609375,4.274732801649305,-0.9563,0.2629,-0.8525,-0.04811,0.00216,0.01896,0.0011708819074556231,0.0010010027326643467,0.0011417509522289038,0.00044762957259081304,0.000502525654155761,0.0004279237473383546,0.008696045726537704,0.009902416728436947,0.011168004013597965,passive,0
3.3213,rehab,safe_midrange_fast,83.45018338633402,-666.629104665084,246.5032988304599,-177.67299844133814,0.305125974866944,-149.77672884699385,48.8968,-0.0105,-27.5513,-51.7407,-0.1287,143.5057,84.71348904147007,31.07386371876934,86.85346395662515,-29.67513190375434,-89.11187913682726,-35.63042534722222,4.353339318001624,2.3943328857421875,0.7893703951693998,-3.5196940104166665,-0.13570149739583334,4.139031304253472,-0.819,0.202,-1.0376,-0.06201,0.00729,0.01467,0.0011708819074556231,0.0010010027326643467,0.0011417509522289038,0.00044762957259081304,0.000502525654155761,0.0004279237473383546,0.008696045726537704,0.009902416728436947,0.011168004013597965,passive,0
3.3441,rehab,safe_midrange_fast,84.62694559649869,-666.6305576016055,245.90443852438193,-177.67108594845135,0.3037981303321031,-149.7766776935077,51.3375,-0.0324,-26.0903,-96.8743,-0.1834,179.4826,84.81643147987894,31.12904690279819,86.87023578303875,-29.752273559570312,-89.11465962727864,-35.528411865234375,4.244502605778156,2.176666259765625,0.6203400262511602,-2.815831502278646,-0.06785074869791667,4.274732801649305,-0.8239,0.2458,-1.1726,-0.04393,-0.00245,0.01952,0.0011708819074556231,0.0010010027326643467,0.0011417509522289038,0.00044762957259081304,0.000502525654155761,0.0004279237473383546,0.008696045726537704,0.009902416728436947,0.011168004013597965,passive,0
3.3613,rehab,safe_midrange_fast,85.38838987528548,-666.6308182073226,245.5398591119398,-177.67114363158493,0.303798083327204,-149.77735507854004,50.6567,-0.0097,-23.2487,-97.8228,0.1557,189.3635,84.88303609413676,31.163535543007427,86.87841434289913,-29.796761406792534,-89.11655849880643,-35.461646185980904,4.081257735148514,2.122251302889078,0.39535144768138925,-2.6262834337022567,-0.13570149739583334,3.9354705810546875,-0.8199,0.2796,-1.013,-0.05524,0.00963,0.01947,0.0011708819074556231,0.0010010027326643467,0.0011417509522289038,0.00044762957259081304,0.000502525654155761,0.0004279237473383546,0.008696045726537704,0.009902416728436947,0.011168004013597965,passive,0
3.3812,rehab,safe_midrange_fast,86.13534936441187,-666.6324366829344,245.20332509607513,-177.67234805203884,0.30461143653171924,-149.7787201150891,43.6753,0.0304,-17.5597,-73.4167,1.0586,173.7063,84.94837619290493,31.196446938089803,86.88364236661704,-29.83529832628038,-89.11846584743924,-35.395397610134545,4.026835979801594,2.0134145906656093,0.23374500841197401,-2.2180599636501737,-0.06785074869791667,4.206882052951388,-0.5503,0.2162,-1.1602,-0.05831,-0.00829,0.01279,0.0011708819074556231,0.0010010027326643467,0.0011417509522289038,0.00044762957259081304,0.000502525654155761,0.0004279237473383546,0.008696045726537704,0.009902416728436947,0.011168004013597965,passive,0
3.4016,rehab,safe_midrange_fast,87.24665048899084,-666.6452781805643,244.7851302498268,-177.67282124473604,0.30492455297046517,-149.77943824272626,42.3868,0.0516,-14.4812,-61.2419,1.697,177.6003,85.04563511008084,31.241588781375697,86.88352679262067,-29.88247341579861,-89.1212887234158,-35.29798719618056,4.135672692025062,1.7413330078125,-0.07277762535775062,-1.6960228814019096,-0.13570149739583334,3.9354705810546875,-0.6355,0.3965,-0.7971,-0.05747,0.00246,0.01015,0.0011708819074556231,0.0010010027326643467,0.0011417509522289038,0.00044762957259081304,0.000502525654155761,0.0004279237473383546,0.008696045726537704,0.009902416728436947,0.011168004013597965,passive,0
3.4214,rehab,safe_midrange_fast,87.97936551266169,-666.6358309009694,244.55763656276102,-177.67459004544924,0.30616797654140426,-149.77904287393537,42.0899,0.0646,-11.101,-60.5943,0.9751,184.5578,85.10960191783339,31.266443989064435,86.8823506572459,-29.905751546223957,-89.12313673231337,-35.23470560709635,3.9724210229250465,1.4148296696124691,-0.1088503091642172,-1.2937672932942708,-0.13570149739583334,3.8676198323567705,-0.5277,0.3279,-0.6168,-0.05911,0.01298,0.00753,0.0011708819074556231,0.0010010027326643467,0.0011417509522289038,0.00044762957259081304,0.000502525654155761,0.0004279237473383546,0.008696045726537704,0.009902416728436947,0.011168004013597965,passive,0
3.4413,rehab,safe_midrange_fast,88.69812670256603,-666.6275623626939,244.37980924467522,-177.67575848221907,0.3070584757573746,-149.7783857770387,42.6229,0.0927,-8.0869,-50.1536,-0.5589,182.777,85.15670851905747,31.283018659837175,86.87946810580716,-29.919306437174477,-89.12447611490886,-35.188022189670136,3.9724210229250465,1.305999755859375,-0.37842325644918007,-0.9500969780815972,-0.13570149739583334,3.664059109157986,-0.4681,0.3507,-1.2038,-0.04611,-0.00588,0.01493,0.0011708819074556231,0.0010010027326643467,0.0011417509522289038,0.00044762957259081304,0.000502525654155761,0.0004279237473383546,0.008696045726537704,0.009902416728436947,0.011168004013597965,passive,0
3.4616,rehab,safe_midrange_fast,89.73860985268199,-666.6216713681835,244.22138542085693,-177.67562375077955,0.30692801956243976,-149.77724377056407,42.8088,0.1209,-4.6066,-27.7892,-1.7533,171.3597,85.26319975900178,31.3140604755666,86.86338292490137,-29.937320285373264,-89.12763807508681,-35.08332994249132,3.7003394400719367,0.87066650390625,-0.7810082766089109,-0.3373972574869792,-0.13570149739583334,3.596208360460069,-0.4693,0.599,-0.4651,-0.0533,0.01815,0.01449,0.0011708819074556231,0.0010010027326643467,0.0011417509522289038,0.00044762957259081304,0.000502525654155761,0.0004279237473383546,0.008696045726537704,0.009902416728436947,0.011168004013597965,passive,0
3.4815,rehab,safe_midrange_fast,90.39239440094418,-666.6232105146681,244.17232362917684,-177.6752819262423,0.30661563770801087,-149.7771700505663,41.3236,0.0921,-0.4862,-51.5583,-2.2402,168.8702,85.3203273055577,31.327874967367343,86.84951404533764,-29.93930392795139,-89.12945217556424,-35.026329888237846,3.5370877709719215,0.7618297916827815,-0.9714742226175742,0.007731119791666666,-0.13570149739583334,3.324796888563368,-0.3207,0.5412,-0.2598,-0.04337,0.00616,0.01322,0.0011708819074556231,0.0010010027326643467,0.0011417509522289038,0.00044762957259081304,0.000502525654155761,0.0004279237473383546,0.008696045726537704,0.009902416728436947,0.011168004013597965,passive,0
3.5012,rehab,safe_midrange_fast,91.50033732440284,-666.6274005848128,244.19860474042932,-177.67294718234805,0.3049490967550726,-149.7758907205275,39.2844,-0.0356,2.8241,-98.4179,-2.2132,162.8217,85.4171103298074,31.344606002958695,86.81829546937848,-29.930326673719616,-89.13248697916667,-34.93077596028646,3.482672814095374,0.3809114966062036,-1.306625215133818,0.71197509765625,-0.13570149739583334,3.2569376627604165,-0.2221,0.5746,-0.262,-0.05264,0.0108,0.00628,0.0011708819074556231,0.0010010027326643467,0.0011417509522289038,0.00044762957259081304,0.000502525654155761,0.0004279237473383546,0.008696045726537704,0.009902416728436947,0.011168004013597965,passive,0
3.5216,rehab,safe_midrange_fast,92.09156973036302,-666.6312672251238,244.27466505137747,-177.67225243066372,0.3044871293492347,-149.77532826028616,37.2959,-0.1519,5.7933,-131.1554,-2.0578,149.3367,85.46874471230082,31.349976794554454,86.79617324678024,-29.915822347005207,-89.13412306043837,-34.87957424587673,3.1017545190187965,0.2176666259765625,-1.4448313193746132,1.0560777452256944,-0.06785074869791667,3.121236165364583,-0.2659,0.5276,-0.5331,-0.05422,0.01496,0.00182,0.0011708819074556231,0.0010010027326643467,0.0011417509522289038,0.00044762957259081304,0.000502525654155761,0.0004279237473383546,0.008696045726537704,0.009902416728436947,0.011168004013597965,passive,0
3.5415,rehab,safe_midrange_fast,92.90760575319216,-666.6257984459683,244.48451390838483,-177.67057569628906,0.3033454718442383,-149.7760991956603,34.4851,-0.1533,9.2581,-151.2754,-1.4958,137.8474,85.5399246971206,31.34954849092087,86.76031811402575,-29.883558485243054,-89.13648817274306,-34.80730692545573,2.7208362239422184,-0.05441495687654703,-1.5964644026048112,1.5852864583333333,-0.06785074869791667,2.8498246934678817,-0.2006,0.6868,0.0413,-0.05012,0.01294,0.00361,0.0011708819074556231,0.0010010027326643467,0.0011417509522289038,0.00044762957259081304,0.000502525654155761,0.0004279237473383546,0.008696045726537704,0.009902416728436947,0.011168004013597965,passive,0
