t,trajectory_type,trajectory_variant,x,y,z,rx,ry,rz,vx,vy,vz,ax,ay,az,j1,j2,j3,j4,j5,j6,dj1,dj2,dj3,dj4,dj5,dj6,fx,fy,fz,tx,ty,tz,Mx,My,Mz,Bx,By,Bz,Kx,Ky,Kz,mode,comfort
0.0005,rehab,mild_small_fast,5.758991611,-666.5424245992,318.2083310792,-177.393355493,0.1436493862,-149.9846957817,-46.6092,3.4048,21.1396,1026.5062,-138.1315,-225.4604,84.1101240255,30.2304379157,85.8282014208,-28.356417678,-88.7734749824,-35.2935806796,1.6983434713,0.1691292721,3.1649199636,-0.8595389724,0.6308579753,-0.0811593733,5.5308,1.6245,3.6573,0.0062,0.00585,0.02101,0.00122,0.00116,0.00119,0.00078,0.00081,0.00075,0.0158,0.0165,0.017,passive,1
0.0205,rehab,mild_small_fast,4.9975284388,-666.4946680831,318.5829295038,-177.3868358723,0.143525377,-149.9880719949,-29.5371,1.3708,16.3203,680.6971,-65.2651,-256.4733,84.1426407816,30.2400311559,85.8746851245,-28.381796127,-88.7614639278,-35.2738023319,1.553332136,0.7901947531,1.4834504056,-1.6783059322,0.5702474814,2.0589941446,5.6135,1.7613,3.5836,0.00234,0.00286,0.02204,0.00122,0.00116,0.00119,0.00078,0.00081,0.00075,0.0158,0.0165,0.017,passive,1
0.0405,rehab,mild_small_fast,4.5775059289,-666.4875908954,318.8611411892,-177.3919130484,0.1419226086,-149.9858071257,-19.3813,0.7942,10.8807,440.0429,-44.708,-279.1254,84.1722573109,30.2620457058,85.8875394371,-28.4235499153,-88.7506650832,-35.2112209138,1.2628230146,0.6908944474,0.9476593473,-1.2735204166,0.5384195733,1.6376567827,5.469,1.8919,3.7078,0.00421,0.00554,0.01894,0.00122,0.00116,0.00119,0.00078,0.00081,0.00075,0.0158,0.0165,0.017,passive,1
0.0605,rehab,mild_small_fast,4.2222767602,-666.4628999538,319.0181558349,-177.3888733584,0.1408975946,-149.9876916913,-11.9354,-0.4175,5.1552,461.2451,4.1619,-260.3653,84.1931537022,30.2676669338,85.9125914984,-28.4327369437,-88.7399271449,-35.2082960606,0.3825935919,0.2461713646,0.5432648984,-0.4293304825,0.4591345135,0.1089460696,4.9942,1.5972,3.3538,0.00044,0.00581,0.01597,0.00122,0.00116,0.00119,0.00078,0.00081,0.00075,0.0158,0.0165,0.017,passive,1
0.0805,rehab,mild_small_fast,4.1000889128,-666.5042900337,319.0673507217,-177.3783248101,0.144002856,-149.9847493059,-0.9315,0.9607,0.466,498.2064,43.4065,-219.1736,84.1875610546,30.2718925604,85.909270033,-28.4407231346,-88.7322997026,-35.2068630711,-0.0123703873,0.3216391283,-0.319738467,-0.512226913,-0.5869761417,-0.862823649,5.5355,1.6774,3.7115,-0.00134,0.00789,0.01828,0.00122,0.00116,0.00119,0.00078,0.00081,0.00075,0.0158,0.0165,0.017,passive,1
0.1005,rehab,mild_small_fast,4.1850173176,-666.4244728162,319.0367976959,-177.3869074837,0.1418157846,-149.982185962,7.9928,1.3188,-3.6117,443.2594,-41.755,-218.1471,84.1926588867,30.280532499,85.8998019597,-28.4532260202,-88.7634061906,-35.2428090066,-0.4378614893,-0.0876793315,0.1074823972,-0.09767816,-0.5087281322,-0.8616346963,-0.0953,1.7166,6.3607,-0.00972,0.03974,-0.00548,0.00122,0.00116,0.00119,0.00078,0.00081,0.00075,0.0158,0.0165,0.017,passive,1
0.1205,rehab,mild_small_fast,4.4198021504,-666.4515387792,318.9228825147,-177.38609808,0.1416343163,-149.9855169431,16.7989,-0.7095,-8.2598,511.9104,-28.9472,-260.6803,84.170046595,30.2683853871,85.9135693289,-28.444630261,-88.7526488279,-35.2413284589,-1.3633959858,-0.9131375189,-0.2961396491,1.6846658416,0.1960908759,0.8191134364,-0.0928,1.5588,6.2846,-0.00627,0.03506,-0.00553,0.00122,0.00116,0.00119,0.00078,0.00081,0.00075,0.0158,0.0165,0.017,passive,1
0.1405,rehab,mild_small_fast,4.8569728874,-666.4528536544,318.7064041661,-177.386707085,0.1417248704,-149.9806700567,28.4692,0.1609,-14.0389,485.4007,51.0598,-267.2401,84.1381230472,30.2440069982,85.8879563738,-28.3858393866,-88.7555625555,-35.2100444691,-0.7768851367,-1.2182447741,-1.0770887042,1.7789523006,-0.3849946344,-0.6147929634,-0.0925,1.6014,6.5125,-0.00864,0.03972,-0.00808,0.00122,0.00116,0.00119,0.00078,0.00081,0.00075,0.0158,0.0165,0.017,passive,1
0.1605,rehab,mild_small_fast,5.5585719834,-666.4451029653,318.3613258508,-177.3903909771,0.1437515516,-149.9821080032,36.2149,1.3329,-18.9494,3886.2857,22.5687,-2186.4252,84.1389711896,30.2196555962,85.8704857807,-28.373472169,-88.7680486133,-35.2659201775,-1.3839958638,-0.6158102165,-0.4014353895,1.7252796616,0.6058300487,-2.2237338444,-0.3071,1.6927,6.7723,-0.00997,0.03814,-0.00919,0.00122,0.00116,0.00119,0.00078,0.00081,0.00075,0.0158,0.0165,0.017,passive,1
0.1805,rehab,mild_small_fast,6.3055695642,-666.399538755,317.948426523,-177.3897973386,0.1431947086,-149.9878841393,183.9207,1.0636,-101.4959,3908.5231,-25.7368,-2192.6612,84.0827632127,30.2193745895,85.8718989582,-28.3168282001,-88.7313293536,-35.2989938229,-10.1946837569,-3.80323294,-6.2836452883,10.3279276962,0.3154527075,-8.2062184145,-0.1804,1.8331,7.723,-0.01075,0.05093,-0.01036,0.00122,0.00116,0.00119,0.00078,0.00081,0.00075,0.0158,0.0165,0.017,passive,1
0.2005,rehab,mild_small_fast,12.9153989929,-666.4025572908,314.3014888147,-177.389710618,0.1411717494,-149.9832096081,192.5558,0.3034,-106.6559,-3175.4146,-31.7655,1738.5032,83.7311838393,30.0675262786,85.6191399692,-27.9603550611,-88.755430505,-35.594168914,-8.7905903614,-5.6535386517,-7.2574658847,9.8090218282,-0.3276607038,-8.400143215,0.1178,2.1039,7.9054,-0.00931,0.0474,-0.0051,0.00122,0.00116,0.00119,0.00078,0.00081,0.00075,0.0158,0.0165,0.017,passive,1
0.2205,rehab,mild_small_fast,14.0078032342,-666.3874027089,313.6821909989,-177.3889697193,0.1402696964,-149.9836996945,56.9041,-0.207,-31.9558,-3227.3154,6.6206,1767.1033,83.7311395982,29.9932330435,85.5816003228,-27.924467327,-88.7444357817,-35.6349995515,-2.1286201492,-1.8915139021,-2.3069041125,2.7481564836,-0.9810016099,-1.6060294088,-0.0494,1.4442,6.4019,-0.01045,0.03912,-0.00505,0.00122,0.00116,0.00119,0.00078,0.00081,0.00075,0.0158,0.0165,0.017,passive,1
0.2405,rehab,mild_small_fast,15.1915626517,-666.41083634,313.0232568406,-177.3902585085,0.1484249107,-149.985646446,63.4632,0.5682,-35.9718,329.965,17.756,-235.3771,83.6460390333,29.9918657225,85.5268638047,-27.8504288018,-88.7946705694,-35.6584100904,-4.4743944225,-1.5307169406,-2.0130330799,4.1916030963,-0.4798955181,-3.2601514724,0.2547,1.5348,6.6926,-0.00843,0.03959,-0.00773,0.00122,0.00116,0.00119,0.00078,0.00081,0.00075,0.0158,0.0165,0.017,passive,1
0.2605,rehab,mild_small_fast,16.5463323379,-666.3646736324,312.2433207649,-177.3842776776,0.1458365396,-149.9863584287,70.1027,0.5033,-41.3709,318.8904,-6.0263,-229.8855,83.5521638213,29.9320043659,85.5010789996,-27.7568032031,-88.7636316025,-35.7654056104,-3.6902775893,-1.6539802855,-1.5598038546,2.8791325023,1.5371464707,-4.3257849079,0.091,1.6806,7.0309,-0.00725,0.04317,-0.00688,0.00122,0.00116,0.00119,0.00078,0.00081,0.00075,0.0158,0.0165,0.017,passive,1
0.2805,rehab,mild_small_fast,17.9956703481,-666.3907058226,311.3684215727,-177.3821071616,0.1425723115,-149.9854870023,76.2188,0.3272,-45.1672,309.2444,-24.4306,-218.2347,83.4984279298,29.9257065111,85.4644716505,-27.7352635017,-88.7331847105,-35.8314414867,-1.9789267236,-1.8417607095,-2.765760396,4.7318689567,0.4751959729,-2.5084542862,0.1302,1.6364,6.6348,-0.01162,0.04076,-0.00771,0.00122,0.00116,0.00119,0.00078,0.00081,0.00075,0.0158,0.0165,0.017,passive,1
0.3005,rehab,mild_small_fast,19.5950860033,-666.3515866477,310.4366337388,-177.385621258,0.1417519098,-149.9856127879,82.4725,-0.474,-50.1003,300.7009,-9.0367,-240.2222,83.4730067524,29.8583339375,85.3904485838,-27.5675284449,-88.7446237636,-35.8657437818,-4.6233245583,-2.1855393691,-3.2432544121,6.3177384888,-1.3797418624,-4.020239628,0.1031,1.6972,6.3601,-0.00809,0.04007,-0.00992,0.00122,0.00116,0.00119,0.00078,0.00081,0.00075,0.0158,0.0165,0.017,passive,1
0.3205,rehab,mild_small_fast,21.2945690414,-666.409664221,309.3644107991,-177.384080928,0.1439756346,-149.9823354803,88.2469,-0.0343,-54.7761,305.1806,35.9172,-189.4841,83.3134949474,29.8382849363,85.334741474,-27.4825539621,-88.788374385,-35.9922510718,-5.6126391341,-2.6551910894,-1.9551697559,3.7292296434,-0.825407394,-4.3080337043,0.4012,2.0153,6.8368,-0.00889,0.03887,-0.00804,0.00122,0.00116,0.00119,0.00078,0.00081,0.00075,0.0158,0.0165,0.017,passive,1
0.3405,rehab,mild_small_fast,23.1249610636,-666.3529583779,308.2455911709,-177.3837145115,0.1423975788,-149.9790409991,94.6797,0.9627,-57.6796,248.4887,-12.7795,-149.7703,83.248501187,29.7521262939,85.3122417935,-27.4183592591,-88.7776400593,-36.03806513,-4.4366841667,-3.8637816859,-3.4764755624,3.9081973361,0.1149434026,-4.3496894511,0.4121,1.774,6.5964,-0.00819,0.0395,-0.00549,0.00122,0.00116,0.00119,0.00078,0.00081,0.00075,0.0158,0.0165,0.017,passive,1
0.3605,rehab,mild_small_fast,25.0817566857,-666.3711550621,307.0572254403,-177.3841733233,0.1446494956,-149.9861474731,98.1864,-0.5455,-60.7669,176.9808,-37.198,-188.9875,83.1360275808,29.6837336689,85.1956824515,-27.3262260687,-88.7837766489,-36.1662386499,-4.9898126906,-2.0574615517,-3.8456444952,5.0261573281,-0.8456370805,-4.5523675774,0.3949,1.4788,6.6344,-0.01024,0.04071,-0.00163,0.00122,0.00116,0.00119,0.00078,0.00081,0.00075,0.0158,0.0165,0.017,passive,1
0.3805,rehab,mild_small_fast,27.052418106,-666.3747772959,305.8149162029,-177.3895866469,0.1427065469,-149.9800832903,101.7589,-0.5252,-65.2391,134.7106,10.2332,-213.9301,83.0489086794,29.6698278318,85.1584160137,-27.217312966,-88.8114655425,-36.2201598331,-5.1788296687,-1.5115679551,-3.5331564077,6.1285707582,-0.7704745628,-2.8912586881,0.3966,1.8228,6.6989,-0.0099,0.03696,-0.00723,0.00122,0.00116,0.00119,0.00078,0.00081,0.00075,0.0158,0.0165,0.017,passive,1
0.4005,rehab,mild_small_fast,29.1521135348,-666.392162668,304.4476601273,-177.3899540254,0.1397853227,-149.9786368079,103.5748,-0.1361,-69.3241,107.2211,16.6133,-144.4829,82.928874394,29.6232709507,85.0543561952,-27.0810832384,-88.8145956314,-36.2818889974,-5.5673289264,-2.9527042175,-3.8748158902,6.3943106743,-0.0445078062,-4.2008033656,0.5887,1.6905,6.4459,-0.00825,0.03421,-0.00269,0.00122,0.00116,0.00119,0.00078,0.00081,0.00075,0.0158,0.0165,0.017,passive,1
0.4205,rehab,mild_small_fast,31.1954120563,-666.3802231305,303.0419530909,-177.3904773249,0.1441029203,-149.9824608494,106.0478,0.1393,-71.0185,189.3379,-35.9049,-106.401,82.8262155223,29.5517196631,85.0034233781,-26.961540539,-88.8132458548,-36.3881919677,-4.986184859,-2.6568137713,-2.8480603153,5.6523645242,-0.4818972219,-5.0334570259,0.5717,1.7144,6.4519,-0.00927,0.03598,-0.00089,0.00122,0.00116,0.00119,0.00078,0.00081,0.00075,0.0158,0.0165,0.017,passive,1
0.4405,rehab,mild_small_fast,33.3940241796,-666.3865889372,301.6069221078,-177.3811696689,0.1416854274,-149.9783773727,111.1484,-1.5723,-73.5801,142.1931,-1.5353,-88.9406,82.7294269997,29.5169983998,84.9404337826,-26.8549886574,-88.8338715203,-36.4832272784,-5.6100353323,-4.4857558946,-3.8503838493,5.9346531699,0.7720055683,-5.7832487554,0.7886,1.8214,6.9617,-0.00904,0.03574,-0.0004,0.00122,0.00116,0.00119,0.00078,0.00081,0.00075,0.0158,0.0165,0.017,passive,1
0.4605,rehab,mild_small_fast,35.641346606,-666.4431168446,300.0987483521,-177.3876978547,0.1424704384,-149.9796658819,111.7355,0.0779,-74.5761,-5.0452,62.0828,-102.2445,82.601814109,29.3722894273,84.8494080241,-26.7241544122,-88.782365632,-36.6195219179,-5.6999890937,-4.3492594484,-4.1922832645,6.6914506026,0.0241771359,-5.5753120218,0.6412,1.5484,6.2534,-0.00967,0.03403,-0.00221,0.00122,0.00116,0.00119,0.00078,0.00081,0.00075,0.0158,0.0165,0.017,passive,1
0.4805,rehab,mild_small_fast,37.8634438493,-666.3834717019,298.6238790895,-177.3846549219,0.1421907358,-149.981930823,110.9466,0.911,-77.6699,-1489.1559,-40.144,908.4393,82.5014274359,29.3430280219,84.772742452,-26.5873306333,-88.8329044349,-36.7062397593,-6.3071316673,-2.171039215,-4.1626964921,6.2525910332,-1.3612896211,-4.6321682624,0.7843,1.6351,6.4816,-0.0114,0.03513,-0.00266,0.00122,0.00116,0.00119,0.00078,0.00081,0.00075,0.0158,0.0165,0.017,passive,1
0.5005,rehab,mild_small_fast,40.0792088816,-666.4066780489,296.9919524184,-177.3872998494,0.1474259822,-149.9812726347,52.1693,-1.5278,-38.2385,-1322.4663,-32.2857,904.8153,82.3495288424,29.2854478587,84.6829001645,-26.4740507709,-88.8368172169,-36.8048086484,-3.3986370038,-1.5151604872,-1.6179512324,3.4784872458,-0.0585219848,-2.4406099348,0.4899,1.5125,5.7037,-0.00734,0.03424,-0.00316,0.00122,0.00116,0.00119,0.00078,0.00081,0.00075,0.0158,0.0165,0.017,passive,1
0.5205,rehab,mild_small_fast,39.9502141335,-666.444584858,297.0943390167,-177.3888828718,0.1415913073,-149.9783635083,58.0479,-0.3805,-41.4773,1759.6879,47.7388,-1310.5362,82.3654819557,29.2824216024,84.7080244027,-26.4481911434,-88.8352453143,-36.8038641567,-2.6638358214,-1.4966762578,-3.2527276446,3.7891175513,0.2256373582,-3.6387846214,0.7059,1.4214,5.3584,-0.00486,0.03166,-0.00365,0.00122,0.00116,0.00119,0.00078,0.00081,0.00075,0.0158,0.0165,0.017,passive,1
0.5405,rehab,mild_small_fast,42.4011250083,-666.4218964501,295.3328610404,-177.3882309163,0.1401204719,-149.9769495095,122.5568,0.3817,-90.66,1621.5636,1.4413,-1274.2406,82.2429754095,29.2255808084,84.5527910587,-26.3224860688,-88.8277917226,-36.9503600333,-6.1768201624,-2.8180582168,-3.9087652133,6.2290683547,-0.6266670571,-5.9038967125,0.8216,1.5697,6.0099,-0.00894,0.03409,-0.00111,0.00122,0.00116,0.00119,0.00078,0.00081,0.00075,0.0158,0.0165,0.017,passive,1
0.5605,rehab,mild_small_fast,44.8524850385,-666.4293159953,293.4679409607,-177.3824204311,0.1405486092,-149.9834368833,122.9104,-0.3228,-92.4469,-9.2174,-52.141,-54.9659,82.1184091493,29.1696992737,84.5516737942,-26.1990284093,-88.8603119966,-37.0400200252,-6.2494433619,-3.5193408262,-3.1778230556,6.9657555043,0.1528000891,-4.7245135521,0.8249,1.564,6.0113,-0.00942,0.03255,0.00304,0.00122,0.00116,0.00119,0.00078,0.00081,0.00075,0.0158,0.0165,0.017,passive,1
0.5805,rehab,mild_small_fast,47.3175428616,-666.434808801,291.6349847122,-177.3824166537,0.1402307957,-149.9819338678,122.1881,-1.7039,-92.8586,-86.2721,-21.542,-47.1668,81.992997675,29.0848071754,84.4256781365,-26.0438558487,-88.821679719,-37.1393405754,-6.2175699942,-5.0462149229,-5.1564511753,7.8181562208,-0.4625542561,-6.3149897508,0.9036,1.6111,6.177,-0.00814,0.03732,-0.00228,0.00122,0.00116,0.00119,0.00078,0.00081,0.00075,0.0158,0.0165,0.017,passive,1
0.6005,rehab,mild_small_fast,49.74000809,-666.4974727859,289.7535974513,-177.3793735958,0.1402246795,-149.9769915104,119.4596,-1.1845,-94.3336,-122.8282,31.1918,-18.0008,81.8697063495,28.9678506768,84.3454157472,-25.8863021604,-88.8788141668,-37.2926196152,-6.9040666379,-3.9066244959,-4.6589214025,7.9153863499,-1.3883225672,-6.9083690345,1.1842,1.3978,5.9478,-0.01114,0.03402,-0.00134,0.00122,0.00116,0.00119,0.00078,0.00081,0.00075,0.0158,0.0165,0.017,passive,1
0.6205,rehab,mild_small_fast,52.0959253501,-666.4821883841,287.8616414611,-177.3855418168,0.1431394764,-149.9806196658,117.2749,-0.4562,-93.5786,-44.4429,36.0983,42.5275,81.7168350095,28.9285421956,84.2393212803,-25.7272403947,-88.8772126217,-37.4156753368,-6.8120767682,-1.7939714673,-5.3919257271,6.856963534,-0.1010530833,-5.7070897269,0.98,1.569,6.1493,-0.00828,0.02995,0.00253,0.00122,0.00116,0.00119,0.00078,0.00081,0.00075,0.0158,0.0165,0.017,passive,1
0.6405,rehab,mild_small_fast,54.4310060641,-666.5157226966,286.0104525908,-177.3894844191,0.1416483278,-149.9786545357,117.6818,0.2594,-92.6325,-78.4735,27.7914,11.3291,81.5972232788,28.8960918181,84.1297387181,-25.6120236191,-88.8828562901,-37.5209032043,-6.8170835999,-2.8419942254,-4.4094158718,7.0005747411,-0.490153639,-5.840496641,1.0573,1.4638,6.2695,-0.01146,0.03664,-0.00016,0.00122,0.00116,0.00119,0.00078,0.00081,0.00075,0.0158,0.0165,0.017,passive,1
0.6605,rehab,mild_small_fast,56.8031991377,-666.4718106459,284.1563422739,-177.3846201026,0.1401168672,-149.9729869238,114.136,0.6554,-93.1255,-156.3676,-47.6972,-81.0023,81.4441516655,28.8148624265,84.0629446455,-25.447217405,-88.8968187672,-37.6492952024,-7.3372902823,-3.735710918,-3.5875957156,6.4453811341,0.1490870722,-6.5230792751,1.199,1.3245,5.4441,-0.012,0.02979,0.00358,0.00122,0.00116,0.00119,0.00078,0.00081,0.00075,0.0158,0.0165,0.017,passive,1
0.6805,rehab,mild_small_fast,58.9964464604,-666.4895063212,282.2854342792,-177.3836138631,0.1401549531,-149.9793546717,111.4271,-1.6484,-95.8726,-132.5548,-39.1828,-40.478,81.3037316675,28.7466633814,83.9862348895,-25.3542083737,-88.8768928072,-37.7818263753,-6.5633184602,-3.11971918,-4.0094522154,6.1493515275,-1.5112789203,-5.2240941101,1.175,1.5232,5.6058,-0.01108,0.03078,0.00257,0.00122,0.00116,0.00119,0.00078,0.00081,0.00075,0.0158,0.0165,0.017,passive,1
0.7005,rehab,mild_small_fast,61.2602847458,-666.5377484869,280.3214393722,-177.3801322798,0.1384476464,-149.9793800531,108.8338,-0.9119,-94.7446,-196.7471,47.527,95.1682,81.1816189271,28.6900736593,83.9025665569,-25.2012433439,-88.9572699241,-37.8582589668,-5.2962697048,-3.8844415909,-4.3738581862,7.0787677748,-0.0177546661,-4.5376005274,1.22,-1.4945,5.7883,-0.03841,0.03286,0.0131,0.00122,0.00116,0.00119,0.00078,0.00081,0.00075,0.0158,0.0165,0.017,passive,1
0.7205,rehab,mild_small_fast,63.3497992519,-666.525982375,278.4956511228,-177.3880450949,0.1420426823,-149.9851604001,103.5573,0.2526,-92.0658,-123.5852,23.7653,59.841,81.0918808793,28.5912857178,83.811280562,-25.0710576627,-88.8776029939,-37.9633303964,-5.0443105754,-4.9232602472,-5.3361543085,6.9382832421,0.7458066918,-6.0325257583,1.4068,-1.4099,5.504,-0.03708,0.03124,0.00906,0.00122,0.00116,0.00119,0.00078,0.00081,0.00075,0.0158,0.0165,0.017,passive,1
0.7405,rehab,mild_small_fast,65.4025750471,-666.5276431553,276.6388056008,-177.3855125661,0.1400798292,-149.9829326789,103.8904,0.0387,-92.3509,-52.9391,-47.6292,4.5481,80.9798465041,28.4931432494,83.6891203845,-24.9237120143,-88.9274376564,-38.0995599971,-6.6461274159,-3.232373183,-4.5042306581,6.6697396027,-0.3707150252,-6.1955694997,1.2119,-1.3022,5.058,-0.03512,0.02881,0.01327,0.00122,0.00116,0.00119,0.00078,0.00081,0.00075,0.0158,0.0165,0.017,passive,1
0.7605,rehab,mild_small_fast,67.5054156485,-666.5244340157,274.8016136188,-177.3767783144,0.1420389357,-149.9825351811,101.4397,-1.6525,-91.8839,-165.5733,-57.7129,16.3073,80.8260357826,28.4619907904,83.6311113357,-24.8042680786,-88.8924315949,-38.2111531764,-6.2296347852,-1.4619509803,-3.3211286419,6.5767497827,-0.3590222961,-5.2042605599,1.4818,-1.4499,5.0375,-0.03514,0.02803,0.01384,0.00122,0.00116,0.00119,0.00078,0.00081,0.00075,0.0158,0.0165,0.017,passive,1
0.7805,rehab,mild_small_fast,69.4601627676,-666.5937444639,272.9634487275,-177.3801050583,0.1371025645,-149.9748516474,97.2675,-2.2698,-91.6986,-111.7564,27.5467,39.533,80.7306611127,28.4346652102,83.5562752388,-24.6606420229,-88.9417985482,-38.3077304195,-5.0514671857,-2.657034419,-3.6670981206,5.661433253,-1.80513712,-5.7443181084,1.6127,-1.4353,5.3223,-0.0359,0.02771,0.00955,0.00122,0.00116,0.00119,0.00078,0.00081,0.00075,0.0158,0.0165,0.017,passive,1
0.8005,rehab,mild_small_fast,71.3961147296,-666.6152263653,271.1336678695,-177.3846436535,0.1421513745,-149.9805278109,96.9694,-0.5507,-90.3026,-83.5523,48.3272,62.8924,80.6239770952,28.3557094137,83.4844274109,-24.5778107485,-88.9646370797,-38.4409259007,-6.1720260206,-4.7245244517,-3.4125054284,6.3646826682,-0.952363393,-5.4673063402,1.4503,-1.392,4.9845,-0.0336,0.02601,0.01079,0.00122,0.00116,0.00119,0.00078,0.00081,0.00075,0.0158,0.0165,0.017,passive,1
0.8205,rehab,mild_small_fast,73.3389401761,-666.6157711003,269.3513447241,-177.3801278135,0.1394286238,-149.9768776654,93.9254,-0.3367,-89.1829,-166.7215,-4.7897,28.2711,80.4837800719,28.2456842322,83.4197750217,-24.4060547162,-88.979893084,-38.5264226731,-6.6988817382,-3.5208447929,-3.4641330159,6.9604445632,-0.9405231357,-4.3001856156,1.4942,-1.441,5.3544,-0.03408,0.02793,0.01634,0.00122,0.00116,0.00119,0.00078,0.00081,0.00075,0.0158,0.0165,0.017,passive,1
0.8405,rehab,mild_small_fast,75.1531301493,-666.6286952695,267.5663499052,-177.3838202683,0.1396096361,-149.9780060748,90.3006,-0.7423,-89.1718,-97.5644,-11.9849,-4.0808,80.3560218257,28.214875622,83.3458620902,-24.299392966,-89.0022580051,-38.6129333253,-5.2902402884,-1.3050997137,-4.1963834327,5.3693002232,0.3327235848,-5.0408477809,1.3099,-1.2279,4.9413,-0.03049,0.02555,0.00858,0.00122,0.00116,0.00119,0.00078,0.00081,0.00075,0.0158,0.0165,0.017,passive,1
0.8605,rehab,mild_small_fast,76.9509631227,-666.6454612071,265.784474476,-177.3745124307,0.1388388625,-149.9786870855,90.0228,-0.8161,-89.3462,-59.2257,-19.0909,-18.2427,80.2721704603,28.1934802436,83.2519196844,-24.1912827073,-88.9665841406,-38.7280565844,-5.0933412768,-3.1744331078,-4.4866744639,5.5349883466,-0.3086227386,-4.6579318923,1.5439,-1.3084,5.0366,-0.03507,0.02426,0.0131,0.00122,0.00116,0.00119,0.00078,0.00081,0.00075,0.0158,0.0165,0.017,passive,1
0.8805,rehab,mild_small_fast,78.7540425868,-666.6613400161,263.9925027407,-177.382438569,0.1368786315,-149.9758817827,87.9315,-1.5059,-89.9015,-127.3312,-1.9524,30.4873,80.1522881746,28.0878982976,83.1663951117,-24.0779934321,-89.0146029147,-38.799250601,-5.9024124919,-3.7496420368,-4.0658246936,5.5005649382,-0.7145835816,-4.3566187605,1.1695,-1.2914,4.4545,-0.03059,0.02265,0.01163,0.00122,0.00116,0.00119,0.00078,0.00081,0.00075,0.0158,0.0165,0.017,passive,1
0.9005,rehab,mild_small_fast,80.4682249867,-666.7056967431,262.1884158982,-177.3832494858,0.1407381445,-149.9790815468,84.9296,-0.8942,-88.1267,-114.4451,25.2001,81.9674,80.0360739606,28.0434945621,83.0892866967,-23.9712601098,-88.9951674838,-38.9023213348,-4.6372311294,-3.1538863027,-3.6789595568,5.9266161718,-0.7687099703,-5.4812291731,1.3875,-1.2685,4.4898,-0.03007,0.02227,0.01297,0.00122,0.00116,0.00119,0.00078,0.00081,0.00075,0.0158,0.0165,0.017,passive,1
0.9205,rehab,mild_small_fast,82.1512251591,-666.6971086424,260.4674353248,-177.3781223514,0.1364531005,-149.9729096721,83.3537,-0.4979,-86.6228,-24.533,-8.6139,-20.3572,79.9667989294,27.9617428455,83.0192367294,-23.8409287852,-89.0453513135,-39.018499768,-4.3893851684,-3.225559311,-3.2904043377,5.3001168012,-0.0313566954,-5.0146710677,1.3178,-1.2191,4.2267,-0.02899,0.02401,0.00991,0.00122,0.00116,0.00119,0.00078,0.00081,0.00075,0.0158,0.0165,0.017,passive,1
0.9405,rehab,mild_small_fast,83.8023746645,-666.7256120522,258.723505216,-177.3820046116,0.1398584758,-149.973184903,83.9482,-1.2388,-88.941,25.6223,-18.1752,-97.7936,79.8604985539,27.9144721897,82.9576705231,-23.7592554377,-88.9964217516,-39.1029081775,-5.1494342825,-2.5817190557,-4.0827256063,5.3182310022,0.6219773551,-5.276765714,1.6417,-1.2479,4.5487,-0.02671,0.02065,0.0146,0.00122,0.00116,0.00119,0.00078,0.00081,0.00075,0.0158,0.0165,0.017,passive,1
0.9605,rehab,mild_small_fast,85.5091549222,-666.7466595587,256.9097964101,-177.3875577082,0.1381434503,-149.9742522002,84.3786,-1.2249,-90.5345,-29.5761,32.6243,-67.4713,79.7608215581,27.8584740833,82.8559277051,-23.6281995451,-89.0204722193,-39.2295703965,-4.8187747241,-2.9359295519,-4.1081699094,6.37202149,-0.5042959208,-5.1382688723,1.6744,-1.3336,4.799,-0.02998,0.02493,0.01465,0.00122,0.00116,0.00119,0.00078,0.00081,0.00075,0.0158,0.0165,0.017,passive,1
0.9805,rehab,mild_small_fast,87.1775200859,-666.7746076803,255.1021247646,-177.3862828972,0.1411287502,-149.9773339178,82.7652,0.0662,-91.6398,-65.4645,29.5136,-63.664,79.6677475649,27.7970350076,82.7933437268,-23.5043745781,-89.0165935885,-39.3084389324,-5.6935506341,-2.7132200799,-3.330908511,5.4701372683,-0.2786087038,-3.9477437561,1.6636,-1.2714,5.0449,-0.03123,0.02489,0.01383,0.00122,0.00116,0.00119,0.00078,0.00081,0.00075,0.0158,0.0165,0.017,passive,1
1.0005,rehab,mild_small_fast,88.8197629543,-666.7440116334,253.2442034928,-177.376790234,0.1423838542,-149.9752784433,81.7601,-0.0443,-93.0811,7.6582,-52.2639,-60.6982,79.5330795328,27.7499452801,82.7226913647,-23.4093940544,-89.0316165674,-39.3874801468,-6.114073291,-2.904738308,-3.1864038003,6.550350205,-0.7603375764,-4.4184131506,1.7279,-1.4458,4.8522,-0.03216,0.02638,0.01197,0.00122,0.00116,0.00119,0.00078,0.00081,0.00075,0.0158,0.0165,0.017,passive,1
1.0205,rehab,mild_small_fast,90.4479223694,-666.7763814849,251.37888189,-177.3785375951,0.142212067,-149.9781136766,83.0715,-2.0244,-94.0678,55.2162,-5.1909,-84.5532,79.4231846333,27.6808454753,82.6658875748,-23.2423605699,-89.0470070915,-39.4851754584,-5.4525118358,-3.1047625048,-3.3477813497,6.7971543641,-0.8223939616,-5.5734828295,1.7987,-1.3077,4.9738,-0.03128,0.02569,0.01345,0.00122,0.00116,0.00119,0.00078,0.00081,0.00075,0.0158,0.0165,0.017,passive,1
1.0405,rehab,mild_small_fast,92.142624043,-666.8249859755,249.4814934036,-177.3774181367,0.1404027188,-149.9772593239,83.9687,-0.252,-96.4632,10.4283,50.9828,-73.3488,79.3149790593,27.6257547799,82.5887801107,-23.1375078798,-89.0645123259,-39.6104194599,-6.4063744869,-3.299113835,-4.3967307235,4.7038644352,0.7024930403,-5.1684249963,2.0406,-1.4777,5.3068,-0.03597,0.02718,0.01518,0.00122,0.00116,0.00119,0.00078,0.00081,0.00075,0.0158,0.0165,0.017,passive,1
1.0605,rehab,mild_small_fast,93.8066705769,-666.7864607012,247.5203538531,-177.3756790302,0.1422947033,-149.9806014766,83.4887,0.015,-97.0017,-30.1732,-35.4879,-51.7082,79.1669296538,27.5488809219,82.4900183458,-23.0542059925,-89.0189073699,-39.6919124583,-5.6143144203,-2.6064289994,-4.1094453604,5.7894626914,-0.6252321061,-5.5105649777,1.9039,-1.2687,4.9576,-0.03226,0.02749,0.01341,0.00122,0.00116,0.00119,0.00078,0.00081,0.00075,0.0158,0.0165,0.017,passive,1
1.0805,rehab,mild_small_fast,95.4821703772,-666.824387878,245.60142531,-177.3797921944,0.1418127188,-149.9708807313,82.7618,-1.6715,-98.5315,-6.037,22.6668,-131.3312,79.0904064825,27.5214976199,82.4244022963,-22.9059293722,-89.0895216101,-39.8308420591,-5.0487829986,-2.5291060325,-3.7251737792,6.3578104572,-2.0349885046,-5.0321483268,2.0168,-1.1855,5.0944,-0.03198,0.02549,0.01451,0.00122,0.00116,0.00119,0.00078,0.00081,0.00075,0.0158,0.0165,0.017,passive,1
1.1005,rehab,mild_small_fast,97.1171417362,-666.853320572,243.579092679,-177.3822414967,0.1396840921,-149.9747923885,83.2472,0.9216,-102.255,8.823,69.3458,-102.8927,78.9649783339,27.4477166806,82.3410113947,-22.7998935742,-89.1003069101,-39.8931983913,-4.4833491751,-3.2502083648,-3.4777053232,5.3010842679,-0.1355010386,-4.6918069062,1.9571,-1.4724,5.406,-0.03394,0.02929,0.01368,0.00122,0.00116,0.00119,0.00078,0.00081,0.00075,0.0158,0.0165,0.017,passive,1
1.1205,rehab,mild_small_fast,98.8120574775,-666.787522835,241.5112272871,-177.3769798978,0.1379952366,-149.9726154708,83.1147,1.1023,-102.6472,-27.948,-64.8091,-80.1806,78.9110725155,27.3914892854,82.2852940834,-22.6938860015,-89.0949416517,-40.0185143353,-5.3803036181,-3.3719328597,-3.9809758075,6.1309504915,-0.1495451059,-5.3102290945,2.0479,-1.4236,5.1013,-0.0333,0.02866,0.01729,0.00122,0.00116,0.00119,0.00078,0.00081,0.00075,0.0158,0.0165,0.017,passive,1
1.1405,rehab,mild_small_fast,100.4417297357,-666.8092270858,239.4732032512,-177.3753989257,0.1421089995,-149.9733285123,82.1293,-1.6707,-105.4622,31.1726,-66.5594,-150.1084,78.7497661892,27.3128393662,82.1817723624,-22.5546555546,-89.1062887143,-40.1056075551,-7.0379844176,-3.3787364124,-4.3161095599,7.2917999762,-1.2977983257,-5.4597418589,2.5054,-1.5388,5.4025,-0.03851,0.02405,0.02064,0.00122,0.00116,0.00119,0.00078,0.00081,0.00075,0.0158,0.0165,0.017,passive,1
1.1605,rehab,mild_small_fast,102.097227705,-666.8543524257,237.2927402794,-177.379936558,0.1399463014,-149.9650197557,84.3616,-1.56,-108.6516,-636.2716,50.9996,832.4766,78.6295531388,27.2563398289,82.112649701,-22.4022140024,-89.1468535847,-40.2369040097,-6.0422345713,-3.6348669622,-4.2090920531,6.3352016856,-0.4286409293,-6.8728873249,2.3973,-1.4757,5.6014,-0.03699,0.02676,0.01527,0.00122,0.00116,0.00119,0.00078,0.00081,0.00075,0.0158,0.0165,0.017,passive,1
1.1805,rehab,mild_small_fast,103.8161938394,-666.8716286084,235.1271404125,-177.3774879773,0.1387933096,-149.9711659289,56.6784,0.3692,-72.1631,-798.8463,40.9046,945.7468,78.5080768063,27.1674446877,82.0134086802,-22.3012474871,-89.1234343515,-40.3805230481,-4.5640857062,-2.1537737826,-4.1726099372,2.8448819109,0.7275728735,-3.454577701,2.291,-1.4148,5.0546,-0.03472,0.02508,0.0134,0.00122,0.00116,0.00119,0.00078,0.00081,0.00075,0.0158,0.0165,0.017,passive,1
1.2005,rehab,mild_small_fast,104.3643634141,-666.8395825812,234.4062157825,-177.3801776561,0.1396007035,-149.9778694272,52.4078,0.0761,-70.8217,509.0106,-29.5942,-812.599,78.4469897106,27.1701888776,81.9457453035,-22.288418726,-89.1177506698,-40.3750871177,-4.1595737576,-2.2936116156,-2.6843845842,4.1052035142,0.308448126,-1.7606281177,2.1778,-1.4324,4.8962,-0.0337,0.02076,0.01498,0.00122,0.00116,0.00119,0.00078,0.00081,0.00075,0.0158,0.0165,0.017,passive,1
1.2205,rehab,mild_small_fast,105.912503874,-666.8685827963,232.2942724836,-177.3798946043,0.1385557927,-149.9692689039,77.0388,-0.8145,-104.6671,563.9282,-9.0991,-850.296,78.341693856,27.0757002231,81.9060332969,-22.1370393466,-89.1110964265,-40.4509481728,-5.0626318478,-3.1537469946,-3.3844013989,6.0838147577,-1.1208162872,-5.2212012463,2.4535,-1.6422,5.4821,-0.04049,0.02557,0.01706,0.00122,0.00116,0.00119,0.00078,0.00081,0.00075,0.0158,0.0165,0.017,passive,1
1.2405,rehab,mild_small_fast,107.4459160189,-666.8721634006,230.2195328449,-177.376587907,0.139423563,-149.9760414681,74.9649,-0.2878,-104.8335,-22.8995,19.1369,2.4025,78.2444844366,27.0440389978,81.8103692475,-22.0450661357,-89.1625833213,-40.5839351675,-5.8804468351,-2.0034558544,-3.8468482138,5.5914188811,-1.6745190816,-5.6922768292,2.3693,-1.2757,5.0579,-0.03092,0.02487,0.01701,0.00122,0.00116,0.00119,0.00078,0.00081,0.00075,0.0158,0.0165,0.017,passive,1
1.2605,rehab,mild_small_fast,108.9110990613,-666.8800955776,228.1009309643,-177.3793102111,0.1352605482,-149.9727116436,76.1228,-0.049,-104.571,29.4168,16.3278,25.7549,78.1064759826,26.9955619889,81.7521593683,-21.9133825913,-89.1780771897,-40.678639246,-6.2097189036,-2.8888524929,-3.2913060738,6.2897363926,0.0222294679,-4.793586209,2.3987,-1.4684,5.0206,-0.03465,0.02132,0.01882,0.00122,0.00116,0.00119,0.00078,0.00081,0.00075,0.0158,0.0165,0.017,passive,1
1.2805,rehab,mild_small_fast,110.4908293857,-666.8741251741,226.0366938744,-177.3813389935,0.1404144086,-149.9737615768,76.1416,0.3653,-103.8033,-68.1278,-17.5971,-104.1684,77.9960956805,26.9284848981,81.6787170046,-21.79347668,-89.1616941425,-40.7756786159,-4.5755729689,-3.4084360544,-4.0779273288,6.6668394587,-0.1116986029,-5.6090250897,2.4514,-1.5575,5.0571,-0.03808,0.0238,0.01681,0.00122,0.00116,0.00119,0.00078,0.00081,0.00075,0.0158,0.0165,0.017,passive,1
1.3005,rehab,mild_small_fast,111.956761206,-666.8654838865,223.9487972818,-177.3805805634,0.1414361717,-149.9757548174,73.3977,-0.7529,-108.7377,-72.8921,-10.8091,-128.4582,77.9234530638,26.8592245468,81.5890422752,-21.646709013,-89.1825451338,-40.9030002496,-5.6982545717,-2.8156709901,-4.030499319,6.4821214355,-0.0232677701,-5.5606242779,2.7481,-1.6395,5.4819,-0.03868,0.02667,0.01996,0.00122,0.00116,0.00119,0.00078,0.00081,0.00075,0.0158,0.0165,0.017,passive,1
1.3205,rehab,mild_small_fast,113.4267382825,-666.9042422403,221.6871854751,-177.3766308072,0.1430347835,-149.9729039625,73.2259,-0.0671,-108.9417,-62.9389,28.327,79.4015,77.7681654976,26.8158580585,81.5174970318,-21.5341918225,-89.1626248533,-40.998103587,-5.4705606986,-2.8312623734,-3.3874302998,5.0839983552,0.1367920376,-4.8692302402,2.6613,-1.4896,5.3459,-0.03411,0.0233,0.01775,0.00122,0.00116,0.00119,0.00078,0.00081,0.00075,0.0158,0.0165,0.017,passive,1
1.3405,rehab,mild_small_fast,114.8857959759,-666.8681667298,219.5911304581,-177.3831102914,0.1406599348,-149.9723225895,70.8802,0.3802,-105.5616,-106.0242,-11.0205,53.4028,77.7046306359,26.7459740518,81.4535450632,-21.4433490788,-89.1770734523,-41.0977694592,-5.2835559327,-3.3906173131,-3.7579538776,6.5547482496,-0.7029349198,-4.9694866761,2.8607,-1.5201,5.5706,-0.0386,0.02492,0.01825,0.00122,0.00116,0.00119,0.00078,0.00081,0.00075,0.0158,0.0165,0.017,passive,1
1.3605,rehab,mild_small_fast,116.2619449904,-666.8890360407,217.4647195406,-177.3781453044,0.1372181984,-149.9692989823,68.9849,-0.5079,-106.8056,-67.4486,-11.3657,-5.7417,77.5568232603,26.6802333659,81.3671788767,-21.2720018926,-89.1907422501,-41.1968830541,-5.7347659516,-3.0806792245,-3.8510862842,6.7816538338,0.0845489687,-5.0456402257,3.0898,-1.6153,6.0452,-0.04007,0.02396,0.02129,0.00122,0.00116,0.00119,0.00078,0.00081,0.00075,0.0158,0.0165,0.017,passive,1
1.3805,rehab,mild_small_fast,117.6451919649,-666.8884823128,215.3189081543,-177.3820567668,0.1386930921,-149.9784223135,68.1822,-0.0745,-105.7913,-114.7357,25.6975,42.7296,77.4752399978,26.6227468828,81.2995016118,-21.1720829254,-89.1736914936,-41.2995950682,-4.7455634993,-3.0041918353,-4.0947903935,5.6892575824,-0.2161932319,-5.4842054374,3.1127,-1.6245,5.6173,-0.04219,0.02394,0.02282,0.00122,0.00116,0.00119,0.00078,0.00081,0.00075,0.0158,0.0165,0.017,passive,1
1.4005,rehab,mild_small_fast,118.9892339056,-666.8920149951,213.2330669152,-177.3688559646,0.1362484694,-149.9703130071,64.3955,0.52,-105.0964,-122.1816,5.6282,105.694,77.3670007204,26.5600656925,81.203387261,-21.0444315893,-89.1993899794,-41.4162512716,-5.0808595936,-3.1001368461,-4.4541899836,5.5696155507,0.1044714584,-5.4603334448,3.2443,-1.5504,6.1216,-0.041,0.02899,0.02175,0.00122,0.00116,0.00119,0.00078,0.00081,0.00075,0.0158,0.0165,0.017,passive,1
1.4205,rehab,mild_small_fast,120.2210107974,-666.8676818218,211.1150531806,-177.3738942535,0.137341152,-149.9716705409,63.295,0.1507,-101.5636,-50.9166,-0.4431,131.5694,77.2720056141,26.498741409,81.1213340125,-20.9492983034,-89.1695126353,-41.518008406,-5.6668505347,-3.175354683,-3.5638557488,5.2128752617,0.7059006923,-5.4023517417,3.2564,-1.6744,5.5878,-0.04163,0.02584,0.02554,0.00122,0.00116,0.00119,0.00078,0.00081,0.00075,0.0158,0.0165,0.017,passive,1
1.4405,rehab,mild_small_fast,121.5210322967,-666.8859889045,209.1705246224,-177.3788766235,0.1378189897,-149.9719794048,62.3588,0.5023,-99.8336,-161.3711,0.3515,65.0018,77.140326699,26.4330515052,81.060833031,-20.8359165788,-89.1711539517,-41.6323453412,-5.8312339686,-3.2678630788,-3.7271226764,5.125980104,-1.2784406348,-5.2645974586,3.3963,-1.6679,6.0665,-0.04527,0.02253,0.0268,0.00122,0.00116,0.00119,0.00078,0.00081,0.00075,0.0158,0.0165,0.017,passive,1
1.4605,rehab,mild_small_fast,122.7153631382,-666.8475903005,207.1217091896,-177.3733933534,0.1380697345,-149.9701530337,56.8401,0.1647,-98.9635,-160.7559,-8.2857,168.2228,77.0387562553,26.3680268858,80.9722491054,-20.7442590992,-89.2206502606,-41.7285923044,-5.7511849631,-2.1257568366,-3.4076921147,4.7830042831,-0.9350924298,-4.4627385198,3.4097,-1.7898,6.152,-0.0377,0.02711,0.02163,0.00122,0.00116,0.00119,0.00078,0.00081,0.00075,0.0158,0.0165,0.017,passive,1
1.4805,rehab,mild_small_fast,123.7946368516,-666.8794004736,205.2119852635,-177.3810039537,0.1381889209,-149.9741938208,55.9286,0.1709,-93.1047,1618.9362,28.3927,-2842.7366,76.9102793004,26.3480212317,80.9245253464,-20.6445964075,-89.2085576489,-41.810854882,-4.728292165,-2.9038200143,-3.2467687335,5.2910243225,-0.0645819661,-3.5737993164,3.4674,-1.7934,5.8197,-0.04432,0.02346,0.02271,0.00122,0.00116,0.00119,0.00078,0.00081,0.00075,0.0158,0.0165,0.017,passive,1
1.5005,rehab,mild_small_fast,124.952506081,-666.8407559445,203.3975216303,-177.3806365981,0.1380864255,-149.9675044338,121.5976,1.3004,-212.6729,1568.0395,-8.988,-2998.4138,76.8496245687,26.2518740853,80.8423783561,-20.5326181263,-89.2232335393,-41.871544277,-10.0963630603,-5.9047497415,-8.1597420391,11.933068895,-0.1001275966,-9.2398145407,3.7623,-1.8731,6.2134,-0.04736,0.02497,0.02656,0.00122,0.00116,0.00119,0.00078,0.00081,0.00075,0.0158,0.0165,0.017,passive,1
1.5205,rehab,mild_small_fast,128.6585393422,-666.8273837583,196.7050673917,-177.3796490327,0.1391956809,-149.9734269804,118.6502,-0.1887,-213.0412,-1841.8632,-18.1562,3074.186,76.506424778,26.1118312421,80.5981356649,-20.1672736517,-89.2125627528,-42.1804474637,-10.1461788015,-4.8292042259,-6.9663066573,12.1261989997,-0.4964701291,-9.7026776766,3.7367,-1.8121,6.0361,-0.04114,0.02521,0.02671,0.00122,0.00116,0.00119,0.00078,0.00081,0.00075,0.0158,0.0165,0.017,passive,1
1.5405,rehab,mild_small_fast,129.6985123038,-666.8483023914,194.8758720313,-177.3762598724,0.1358149268,-149.9692274517,47.923,0.5742,-89.7055,-1912.0501,41.0407,3269.4395,76.4437774167,26.0587059162,80.5637260898,-20.0475701663,-89.2430923445,-42.2596513841,-3.6723947076,-3.3791413021,-2.2095242043,5.2067755142,0.3688196883,-4.226792279,3.4211,-1.7004,5.4119,-0.0369,0.01824,0.02457,0.00122,0.00116,0.00119,0.00078,0.00081,0.00075,0.0158,0.0165,0.017,passive,1
1.5605,rehab,mild_small_fast,130.575460676,-666.8044169206,193.116847096,-177.3799454131,0.1388230806,-149.9682049519,42.1682,1.453,-82.2637,-245.6399,-31.1107,384.0325,76.3595289897,25.97666559,80.5097546967,-19.9590026311,-89.1978099652,-42.3495191548,-4.8716125956,-2.6210449494,-3.1826704839,4.1787152944,0.5489159415,-4.5908570667,3.4616,-1.7601,5.2738,-0.03855,0.01818,0.02307,0.00122,0.00116,0.00119,0.00078,0.00081,0.00075,0.0158,0.0165,0.017,passive,1
1.5805,rehab,mild_small_fast,131.385238348,-666.7901837968,191.5853256411,-177.373407967,0.1364382986,-149.9726407517,38.0974,-0.6703,-74.3442,-167.4989,-35.0499,340.8761,76.2489129129,25.9538641183,80.4364192704,-19.8804215546,-89.2211357068,-42.4432856667,-3.9786975809,-1.8291021642,-3.1972087935,3.1094151901,-0.7635717624,-3.4865440775,3.6949,-1.6341,5.3236,-0.03647,0.02187,0.02447,0.00122,0.00116,0.00119,0.00078,0.00081,0.00075,0.0158,0.0165,0.017,passive,1
1.6005,rehab,mild_small_fast,132.0993581114,-666.8312272535,190.1430787884,-177.3804632702,0.1327444082,-149.9741814718,35.4682,0.051,-68.6286,-201.8172,66.6996,361.8213,76.2003810865,25.9035015034,80.381866345,-19.8346260235,-89.2283528357,-42.4889809179,-3.6502774986,-1.9846512929,-3.0124684677,2.7503468834,-0.4747858578,-2.4364488,3.8602,-1.7541,5.5304,-0.03789,0.02417,0.02547,0.00122,0.00116,0.00119,0.00078,0.00081,0.00075,0.0158,0.0165,0.017,passive,1
1.6205,rehab,mild_small_fast,132.8039660998,-666.7881451067,188.8401810474,-177.3716438966,0.1363722137,-149.9742104658,30.0247,1.9977,-59.8714,-305.9064,21.1423,483.4652,76.1029018129,25.8744780665,80.3159205317,-19.7704076792,-89.2401271411,-42.5407436187,-3.2421588794,-1.7538311042,-1.2380608097,3.496819259,0.1246378845,-3.2111645519,3.7301,-1.8046,5.4759,-0.04275,0.02346,0.02812,0.00122,0.00116,0.00119,0.00078,0.00081,0.00075,0.0158,0.0165,0.017,passive,1
1.6405,rehab,mild_small_fast,133.3003479546,-666.7513181588,187.7482245272,-177.3738701922,0.1348043898,-149.9797654338,23.2319,0.8967,-49.29,-197.3411,-41.665,420.2455,76.0706947313,25.8333482593,80.3323439126,-19.6947532531,-89.2233673204,-42.6174275,-2.6381419094,-1.0586808802,-1.9684393122,3.1649037597,-0.0515666748,-3.7179935341,3.7561,-1.7412,5.5623,-0.04115,0.02161,0.02336,0.00122,0.00116,0.00119,0.00078,0.00081,0.00075,0.0158,0.0165,0.017,passive,1
1.6605,rehab,mild_small_fast,133.7332436661,-666.7522786873,186.8685807729,-177.3746234962,0.1357258379,-149.9695909916,22.1311,0.3311,-43.0615,-129.0607,-14.0754,379.589,75.9973761365,25.8321308313,80.2371829592,-19.6438115288,-89.2421898081,-42.6894633601,-2.7772653398,-0.906840523,-2.9429154766,1.9539351476,0.0176762196,-1.3061354063,3.7821,-1.6463,5.3359,-0.03659,0.01838,0.02693,0.00122,0.00116,0.00119,0.00078,0.00081,0.00075,0.0158,0.0165,0.017,passive,1
1.6805,rehab,mild_small_fast,134.1855920932,-666.7380730168,186.0257630015,-177.3806404425,0.1366694873,-149.9739819992,18.0695,0.3336,-34.1064,-269.2085,-22.4518,464.9738,75.9596041177,25.7970746383,80.2146272935,-19.6165958472,-89.2226602716,-42.6696729162,-1.0791347712,-1.2873341828,-0.1504188768,1.9600834587,-0.0771732862,-0.9133560755,4.1847,-1.7292,5.759,-0.03791,0.02093,0.03072,0.00122,0.00116,0.00119,0.00078,0.00081,0.00075,0.0158,0.0165,0.017,passive,1
1.7005,rehab,mild_small_fast,134.4560241777,-666.7389329442,185.5043228765,-177.3829611678,0.1327366751,-149.9714478713,11.3628,-0.5669,-24.4626,-275.6294,14.6241,442.3208,75.9542107457,25.780637464,80.2311662041,-19.5654081905,-89.2452767396,-42.7259976031,-0.6989232961,0.4317086096,-0.3254214888,1.1760377595,-0.2897020397,-2.1632250975,3.7151,-1.4796,5.327,-0.03554,0.02242,0.024,0.00122,0.00116,0.00119,0.00078,0.00081,0.00075,0.0158,0.0165,0.017,passive,1
1.7205,rehab,mild_small_fast,134.6401026648,-666.7607506754,185.0472595858,-177.3758979643,0.1335249121,-149.9737292537,7.0443,0.9186,-16.4136,-212.6624,50.1727,511.7627,75.9316471859,25.8143429827,80.201610434,-19.5695543369,-89.2342483532,-42.7562019201,-0.571231726,-0.673210698,-0.9669591617,0.3099607803,-0.3202147894,-1.6915389481,3.926,-1.6755,5.5592,-0.03793,0.01775,0.02634,0.00122,0.00116,0.00119,0.00078,0.00081,0.00075,0.0158,0.0165,0.017,passive,1
1.7405,rehab,mild_small_fast,134.7377975872,-666.7021886667,184.8477781815,-177.375575704,0.1317335194,-149.9707126216,2.8563,1.44,-3.9921,-188.7495,-2.0166,565.4994,75.9313614767,25.7537090361,80.1924878377,-19.5530097593,-89.2580853311,-42.793659161,0.3335445142,-0.6358903129,-0.1521856339,0.7710848909,0.0647609697,0.2242327062,3.9355,-1.5568,5.2574,-0.03737,0.02107,0.02597,0.00122,0.00116,0.00119,0.00078,0.00081,0.00075,0.0158,0.0165,0.017,passive,1
1.7605,rehab,mild_small_fast,134.7543534457,-666.7031519524,184.8875765328,-177.372664468,0.1345407044,-149.9718756905,-0.5056,0.8379,6.2064,-262.921,12.3577,461.7682,75.9449889664,25.7889073702,80.1955230086,-19.5387109412,-89.2316579144,-42.7472326119,0.7818481981,-0.3276343025,-0.1247953624,-0.1102813668,0.5003158597,0.8610417438,6.5421,-1.5714,-0.3735,-0.01193,-0.02335,0.03797,0.00122,0.00116,0.00119,0.00078,0.00081,0.00075,0.0158,0.0165,0.017,passive,1
1.7805,rehab,mild_small_fast,134.7175718251,-666.6686709194,185.0960324575,-177.3865288134,0.1348766433,-149.9767979739,-7.6606,1.9343,14.4787,-326.5757,2.1542,423.0038,75.9626354046,25.740603664,80.1874960232,-19.5574210139,-89.2380726967,-42.7592174913,-0.9576393612,0.1438555097,0.8636363543,-1.1620156241,-0.5290484699,0.1246538961,6.3044,-1.4923,-0.1269,-0.01474,-0.02198,0.04086,0.00122,0.00116,0.00119,0.00078,0.00081,0.00075,0.0158,0.0165,0.017,passive,1
1.8005,rehab,mild_small_fast,134.4479306269,-666.6257809272,185.4667226747,-177.3748062024,0.1387782389,-149.9708541241,-13.5687,0.9241,23.1265,-256.6327,-36.2753,507.2878,75.906683392,25.7946615906,80.2300684628,-19.5851915662,-89.2528198532,-42.742246456,0.7561130634,0.7337843781,1.7753453517,-0.9937773644,0.6879812351,1.8145570509,6.6756,-1.7439,-0.5639,-0.01191,-0.02333,0.04102,0.00122,0.00116,0.00119,0.00078,0.00081,0.00075,0.0158,0.0165,0.017,passive,1
1.8205,rehab,mild_small_fast,134.1748248778,-666.631706514,186.0210927972,-177.3798855489,0.1354242079,-149.9714145252,-17.9259,0.4833,34.7702,-2037.6725,-6.4733,4127.3194,75.9928799271,25.7699550391,80.2585098372,-19.5971721085,-89.2105534473,-42.6866352093,2.6560657059,-0.3920483176,-0.3137578905,-1.7650216757,0.5875638114,1.8688559609,6.388,-1.475,-0.1663,-0.01265,-0.02131,0.03539,0.00122,0.00116,0.00119,0.00078,0.00081,0.00075,0.0158,0.0165,0.017,passive,1
1.8405,rehab,mild_small_fast,133.7308955581,-666.606450349,186.8575292619,-177.3780925172,0.1309177784,-149.9736157491,-95.0756,0.6652,188.2193,-1999.3422,-7.7674,3919.1116,76.0129260202,25.7789796579,80.2175181472,-19.6557924332,-89.2293173007,-42.6674922176,9.7983718683,4.8730107365,5.3521941416,-10.577077691,-0.6972698982,7.4374291874,7.6014,-2.1141,-0.2343,-0.01833,-0.02703,0.04795,0.00122,0.00116,0.00119,0.00078,0.00081,0.00075,0.0158,0.0165,0.017,passive,1
1.8605,rehab,mild_small_fast,130.3718019685,-666.6050993611,193.5498641719,-177.3747921453,0.1354604976,-149.9733765114,-97.8996,0.1726,191.5346,1618.6842,15.4539,-3379.1291,76.3848148018,25.9648754686,80.4725976029,-20.0202552162,-89.2384442433,-42.3891380418,9.8697301556,6.0586796334,7.5001099785,-11.2261006058,-0.1809294083,8.1443637797,7.6885,-1.91,-0.3685,-0.02259,-0.02793,0.0435,0.00122,0.00116,0.00119,0.00078,0.00081,0.00075,0.0158,0.0165,0.017,passive,1
1.8805,rehab,mild_small_fast,129.814912934,-666.5995475607,194.518914444,-177.3755072733,0.1358123534,-149.9709783809,-30.3282,1.2833,53.0541,1602.1693,23.8703,-3226.3539,76.4077152265,26.0213268432,80.5175225463,-20.1048364574,-89.236554477,-42.3417176664,1.8935039898,2.0183984763,1.9380872584,-3.6939726397,0.9121290856,2.1942178616,6.4454,-1.6015,0.0218,-0.01498,-0.02171,0.03715,0.00122,0.00116,0.00119,0.00078,0.00081,0.00075,0.0158,0.0165,0.017,passive,1
1.9005,rehab,mild_small_fast,129.1586737983,-666.5537659629,195.6720289606,-177.3747748746,0.133661762,-149.9697729616,-33.8128,1.1274,62.4805,-145.7189,-31.9124,411.8545,76.4605549614,26.0456114076,80.5501210932,-20.1680141217,-89.2019590798,-42.3013693273,2.7383150567,1.3922785325,2.393938615,-2.2600832977,0.2079823576,2.9399058914,6.382,-1.4654,-0.1259,-0.01246,-0.02091,0.03751,0.00122,0.00116,0.00119,0.00078,0.00081,0.00075,0.0158,0.0165,0.017,passive,1
1.9205,rehab,mild_small_fast,128.4624012254,-666.5544522481,197.0181334016,-177.3783574477,0.136503577,-149.9725245393,-36.157,0.0068,69.5283,-183.8469,-4.4725,313.6886,76.5172478287,26.0770179845,80.6132800909,-20.1952397894,-89.2282351827,-42.2241214308,2.7234924963,1.3809024661,2.8280522313,-4.0262754831,-0.0791010603,3.539438356,6.8144,-1.6552,0.2347,-0.01787,-0.01765,0.04312,0.00122,0.00116,0.00119,0.00078,0.00081,0.00075,0.0158,0.0165,0.017,passive,1
1.9405,rehab,mild_small_fast,127.7123953841,-666.5534923639,198.4531608891,-177.3770337202,0.1357922876,-149.9682603971,-41.1667,0.9485,75.028,-264.7497,27.1769,311.3834,76.5694946613,26.1008475063,80.6632431825,-20.3290651411,-89.2051231223,-42.1597917931,3.4069468741,1.2619384999,2.1702689875,-4.1900684057,0.5621023064,2.8786196049,6.47,-1.642,0.0408,-0.01359,-0.02201,0.03721,0.00122,0.00116,0.00119,0.00078,0.00081,0.00075,0.0158,0.0165,0.017,passive,1
1.9605,rehab,mild_small_fast,126.8157345221,-666.5165129785,200.0192540663,-177.3787876966,0.1324215033,-149.9747923421,-46.7469,1.0939,81.9836,-243.4818,-24.875,358.9883,76.6535257037,26.1274955245,80.7000908504,-20.3628425256,-89.2057510905,-42.1089766466,4.7927862329,2.5749636123,1.7734652707,-3.2375546515,-0.159383717,2.7691483432,6.7605,-1.6959,-0.1198,-0.01303,-0.02461,0.04275,0.00122,0.00116,0.00119,0.00078,0.00081,0.00075,0.0158,0.0165,0.017,passive,1
1.9805,rehab,mild_small_fast,125.8425174873,-666.5097357002,201.7325063358,-177.3737834841,0.1333819101,-149.9750738915,-50.9059,-0.0465,89.3875,-146.0153,-9.8887,272.1416,76.7612061106,26.2038460508,80.7341817933,-20.4585673271,-89.2114984709,-42.0490258593,4.5740142502,3.3245650279,3.2465964342,-5.6170856084,-0.4728493877,4.2758315079,6.4167,1.6156,0.0105,0.01208,-0.01941,0.02125,0.00122,0.00116,0.00119,0.00078,0.00081,0.00075,0.0158,0.0165,0.017,passive,1
2.0005,rehab,mild_small_fast,124.7794969402,-666.5183736695,203.594755941,-177.3800077649,0.1366474864,-149.9717163342,-52.5876,0.6984,92.8693,-158.3109,15.945,202.2358,76.8364862737,26.2604781256,80.8299547078,-20.5875259499,-89.224665066,-41.9379433863,5.19424934,2.5807999163,3.5950927641,-5.3786327474,0.6253578945,4.6057357011,6.2974,1.704,0.1573,0.01585,-0.01712,0.02097,0.00122,0.00116,0.00119,0.00078,0.00081,0.00075,0.0158,0.0165,0.017,passive,1
2.0205,rehab,mild_small_fast,123.7390150404,-666.4818008953,205.4472784173,-177.3752573214,0.1331255585,-149.9775007984,-57.2384,0.5913,97.477,-213.8666,4.5739,238.3633,76.9689760842,26.3070780474,80.8779855039,-20.673712637,-89.1864841552,-41.8647964313,5.9984458349,3.082167575,2.7414181946,-4.4913205193,0.2302010748,4.3542049563,6.3815,1.6852,0.2878,0.01672,-0.01692,0.02378,0.00122,0.00116,0.00119,0.00078,0.00081,0.00075,0.0158,0.0165,0.017,passive,1
2.0405,rehab,mild_small_fast,122.489961965,-666.4947222866,207.4938350435,-177.3783387146,0.1307980105,-149.9752186279,-61.1422,0.8813,102.4038,-143.0315,-5.6171,180.6238,77.0764241071,26.3837648286,80.9396114355,-20.7671787707,-89.215457023,-41.763775188,4.727094445,1.529644272,3.6856739441,-5.750640847,-0.295454069,3.9312477739,6.6736,1.8037,0.3705,0.01498,-0.01529,0.02547,0.00122,0.00116,0.00119,0.00078,0.00081,0.00075,0.0158,0.0165,0.017,passive,1
2.0605,rehab,mild_small_fast,121.2933259727,-666.4465478846,209.5434318519,-177.3775754694,0.1349403004,-149.970991077,-62.9596,0.3666,104.7019,-166.7311,-24.4591,144.5465,77.158059862,26.3682638183,81.0254124617,-20.9037382709,-89.1983023179,-41.7075465203,5.0163697957,2.3496146186,3.1244071215,-6.3149379382,0.7082220036,4.4044046322,7.0039,1.9713,0.2924,0.01866,-0.01551,0.02228,0.00122,0.00116,0.00119,0.00078,0.00081,0.00075,0.0158,0.0165,0.017,passive,1
2.0805,rehab,mild_small_fast,119.9715765161,-666.4800583313,211.6819121639,-177.3827246039,0.1336714061,-149.9807417836,-67.8115,-0.097,108.1857,-206.4297,4.8009,143.9789,77.2770788989,26.4777494134,81.0645877204,-21.0197762882,-89.1871281428,-41.5875990027,5.7769648764,3.2545254318,3.3361139427,-6.5643110297,0.0797743491,6.2151586912,6.4675,1.7877,0.4307,0.0096,-0.01834,0.0231,0.00122,0.00116,0.00119,0.00078,0.00081,0.00075,0.0158,0.0165,0.017,passive,1
2.1005,rehab,mild_small_fast,118.5808670766,-666.4504293955,213.8708596682,-177.37442817,0.1376552819,-149.9704964617,-71.2168,0.5586,110.4611,-175.3048,5.0663,118.4121,77.3891384571,26.4984448356,81.1588570194,-21.1663107121,-89.1951113439,-41.4589401727,5.2594199297,2.7480657162,4.6102339896,-5.8428741242,0.0499922446,4.3173968058,6.5007,1.5411,0.521,0.01112,-0.01782,0.02821,0.00122,0.00116,0.00119,0.00078,0.00081,0.00075,0.0158,0.0165,0.017,passive,1
2.1205,rehab,mild_small_fast,117.1229035571,-666.4577129298,216.1003555785,-177.3718394907,0.1313856273,-149.9690459166,-74.8237,0.1056,112.9222,-83.9856,20.9803,86.6763,77.4874556961,26.587672042,81.24899708,-21.2534912532,-89.1851284531,-41.4149031305,5.1612571174,2.9614170625,4.3185337749,-6.0631639204,-0.286605732,3.8445079501,6.5297,1.6616,0.4527,0.01577,-0.01187,0.0271,0.00122,0.00116,0.00119,0.00078,0.00081,0.00075,0.0158,0.0165,0.017,passive,1
2.1405,rehab,mild_small_fast,115.5879204271,-666.446204822,218.3877469072,-177.3753261741,0.1355796139,-149.9736073106,-74.5762,1.3978,113.9281,-37.3773,11.3986,37.6473,77.5955887418,26.6169015181,81.3315983704,-21.4088372689,-89.2065755732,-41.3051598547,6.2262751129,2.5665838358,2.5057530832,-7.3051930694,0.2641573575,5.6754583928,6.5505,1.6486,0.478,0.01534,-0.0134,0.02359,0.00122,0.00116,0.00119,0.00078,0.00081,0.00075,0.0158,0.0165,0.017,passive,1
2.1605,rehab,mild_small_fast,114.1398535641,-666.4017991284,220.6574810074,-177.3776459645,0.1319238925,-149.9765725037,-76.3188,0.5616,114.4281,901.8202,-26.9764,-1441.7122,77.7365067006,26.6903353955,81.3492272033,-21.545698976,-89.1745621588,-41.1878847948,6.3695626982,2.6632108447,3.3267068224,-6.1763998231,0.5772524653,5.6975666454,6.2536,1.6185,0.4412,0.01415,-0.01988,0.02846,0.00122,0.00116,0.00119,0.00078,0.00081,0.00075,0.0158,0.0165,0.017,passive,1
2.1805,rehab,mild_small_fast,112.5351700662,-666.4237424188,222.9648698381,-177.3788631414,0.1362249854,-149.9763806318,-38.5034,0.3188,56.2596,820.7145,-22.7594,-1260.2623,77.8503712497,26.7234299519,81.4646666433,-21.6558932618,-89.1834854746,-41.0772571889,2.7761714833,1.8097087156,2.491121379,-3.4298458328,0.4828962458,3.0551411529,5.4338,1.3621,0.3951,0.01107,-0.01548,0.02194,0.00122,0.00116,0.00119,0.00078,0.00081,0.00075,0.0158,0.0165,0.017,passive,1
2.2005,rehab,mild_small_fast,112.5997159313,-666.3890476194,222.9078669601,-177.3748186181,0.1305361719,-149.9713583048,-43.4902,-0.3488,64.0176,-1229.593,-37.061,1797.8378,77.84755356,26.7627237441,81.4488720585,-21.6828928093,-89.1552463089,-41.0656791487,3.2920769794,2.5013125646,1.9108010596,-3.8287853856,0.6340862249,3.1002705912,5.9463,1.6788,0.6211,0.01539,-0.01511,0.02614,0.00122,0.00116,0.00119,0.00078,0.00081,0.00075,0.0158,0.0165,0.017,passive,1
2.2205,rehab,mild_small_fast,110.7955628905,-666.4376949964,225.5255730257,-177.3820691153,0.1306398242,-149.9684066802,-87.6872,-1.1637,128.1732,-1123.744,43.4211,1482.1482,77.9820543289,26.8234824545,81.5410986856,-21.8090446773,-89.1581220256,-40.9532463652,6.7209810415,2.4503528329,5.0470575692,-7.0264416172,0.2380225337,5.6739691238,6.7411,1.6572,0.6416,0.0101,-0.01978,0.02195,0.00122,0.00116,0.00119,0.00078,0.00081,0.00075,0.0158,0.0165,0.017,passive,1
2.2405,rehab,mild_small_fast,109.0922295496,-666.4355936638,228.0347933801,-177.3782587404,0.1336020136,-149.9731849345,-88.4399,1.388,123.3035,-89.6375,60.5655,-137.6971,78.1163928016,26.8607378574,81.6507543612,-21.963950474,-89.1457254076,-40.8387203837,5.8866645951,2.7290801049,4.9698714062,-6.6807714452,0.1404266654,6.0716261537,6.2731,1.6715,0.8076,0.01466,-0.01097,0.02688,0.00122,0.00116,0.00119,0.00078,0.00081,0.00075,0.0158,0.0165,0.017,passive,1
2.2605,rehab,mild_small_fast,107.2579652747,-666.3821737466,230.4577133743,-177.3726321921,0.1279511449,-149.9794347138,-91.2727,1.259,122.6653,-56.1274,-32.166,-28.7924,78.2175209127,26.9326456587,81.7398935419,-22.0762755351,-89.152504959,-40.7103813191,6.3860658489,3.9886855277,4.4316646878,-6.3238717931,0.1298671199,5.9886335642,6.1261,1.436,0.7769,0.01157,-0.01378,0.0236,0.00122,0.00116,0.00119,0.00078,0.00081,0.00075,0.0158,0.0165,0.017,passive,1
2.2805,rehab,mild_small_fast,105.441323091,-666.3852349831,232.9414043601,-177.3766166189,0.1334230794,-149.9707881521,-90.685,0.1014,122.1518,36.8198,-47.7114,-94.3917,78.3718354356,27.0202852785,81.8280209488,-22.2169053457,-89.1405307228,-40.5991750411,7.0024563916,3.8866587046,5.1380808757,-6.4250457641,1.1017896038,6.2985332391,6.7044,1.6183,1.0656,0.00836,-0.01699,0.02647,0.00122,0.00116,0.00119,0.00078,0.00081,0.00075,0.0158,0.0165,0.017,passive,1
2.3005,rehab,mild_small_fast,103.6305638308,-666.3781181132,235.343785873,-177.3769519677,0.1317770835,-149.9778917525,-89.7999,-0.6495,118.8896,-0.6059,10.1732,-138.7318,78.4976191683,27.0881120068,81.9454167769,-22.3332773656,-89.1084333749,-40.4584399895,6.0374871715,4.1367351742,4.098574402,-7.4091920199,0.956623912,5.5274024033,5.914,1.4739,0.7572,0.01152,-0.01503,0.02523,0.00122,0.00116,0.00119,0.00078,0.00081,0.00075,0.0158,0.0165,0.017,passive,1
2.3205,rehab,mild_small_fast,101.849328264,-666.4112145463,237.6969885812,-177.3791233786,0.133779519,-149.9691073699,-90.7093,0.5083,116.6025,-54.0252,26.6076,-124.201,78.6133349224,27.1857546855,81.9919639248,-22.5132730265,-89.1022657663,-40.378078945,6.5927045599,3.6101735971,3.6358143366,-8.647912414,0.4998506806,4.3494721457,6.1856,1.6946,1.1188,0.01431,-0.01091,0.02275,0.00122,0.00116,0.00119,0.00078,0.00081,0.00075,0.0158,0.0165,0.017,passive,1
2.3405,rehab,mild_small_fast,100.0021929867,-666.3577852841,240.0078874671,-177.3795488226,0.1291412052,-149.9789622704,-91.9609,0.4148,113.9216,-30.08,-33.4185,-108.2279,78.7613273507,27.2325189507,82.0908493504,-22.6791938622,-89.0884393476,-40.2844611037,6.6526931738,2.5443144751,4.653004282,-7.2061309434,0.5864957648,5.9256321837,5.3336,1.6131,0.9563,0.01681,-0.01039,0.01968,0.00122,0.00116,0.00119,0.00078,0.00081,0.00075,0.0158,0.0165,0.017,passive,1
2.3605,rehab,mild_small_fast,98.1708930588,-666.3946219362,242.2538512197,-177.3720408219,0.1313614338,-149.9755952321,-91.9125,-0.8284,112.2734,32.234,-14.2379,-98.1141,78.8794426494,27.2875272645,82.1780840961,-22.8015182642,-89.0788059357,-40.1410536577,5.9553978791,3.0608545785,4.4151868517,-5.6276295547,-0.4401466437,5.3966563468,5.2751,1.4967,0.9972,0.01247,-0.01134,0.02566,0.00122,0.00116,0.00119,0.00078,0.00081,0.00075,0.0158,0.0165,0.017,passive,1
2.3805,rehab,mild_small_fast,96.325694155,-666.390922066,244.4988243833,-177.3772567038,0.1323840291,-149.9763639164,-90.6715,-0.1547,109.997,64.3371,9.1243,-138.7442,78.9995432659,27.3549531339,82.2674568245,-22.9042990444,-89.1060452134,-40.0685948498,6.3791945938,4.459509731,4.2939729006,-7.0063596165,-0.6402624751,5.5379710164,5.8078,1.6257,0.9719,0.01084,-0.01041,0.02015,0.00122,0.00116,0.00119,0.00078,0.00081,0.00075,0.0158,0.0165,0.017,passive,1
2.4005,rehab,mild_small_fast,94.5440322991,-666.400810042,246.6537312787,-177.3795595645,0.1335451253,-149.9741350965,-89.339,-0.4634,106.7237,36.3644,-9.5626,-160.882,79.1346104331,27.4659076537,82.3498430121,-23.0817726489,-89.1044164347,-39.919534817,7.4668374519,4.0502410153,3.6011923227,-7.1546614959,1.4642672097,6.5882764861,5.2846,1.458,0.8964,0.0111,-0.01122,0.01917,0.00122,0.00116,0.00119,0.00078,0.00081,0.00075,0.0158,0.0165,0.017,passive,1
2.4205,rehab,mild_small_fast,92.7521346536,-666.4094600469,248.7677705945,-177.3785972705,0.1296911507,-149.9737290332,-89.2169,-0.5372,103.5617,38.969,-5.6226,-171.1451,79.298216764,27.5169627745,82.4115045174,-23.1904855042,-89.047474525,-39.8050637904,6.4503316369,3.0416222487,4.4363563348,-6.9963336302,1.3504149537,6.0468948702,5.3811,1.3049,0.924,0.01169,-0.01135,0.01964,0.00122,0.00116,0.00119,0.00078,0.00081,0.00075,0.0158,0.0165,0.017,passive,1
2.4405,rehab,mild_small_fast,90.9753545265,-666.422298246,250.7962001067,-177.3735119596,0.1299622629,-149.9758343157,-87.7802,-0.6884,99.8778,31.7423,5.4037,-76.9447,79.3926236986,27.5875725437,82.5272972655,-23.3616259941,-89.0503998366,-39.6776590222,4.7475621559,1.9814524489,3.877432412,-6.3900606795,-0.2127635223,5.0919169196,5.3293,1.4054,1.2163,0.01325,-0.00676,0.021,0.00122,0.00116,0.00119,0.00078,0.00081,0.00075,0.0158,0.0165,0.017,passive,1
2.4605,rehab,mild_small_fast,89.2409255225,-666.4369942368,252.7628845742,-177.3831370529,0.129811767,-149.9766543926,-87.9473,-0.3211,100.4839,13.467,41.6691,-40.3543,79.4881192502,27.5962208724,82.5666018138,-23.4460879314,-89.0559850659,-39.6013871136,5.1162943854,2.7656078521,2.9860379642,-4.9039616473,-0.8400212681,4.2669495332,5.0228,1.2521,1.3187,0.00802,-0.00783,0.01788,0.00122,0.00116,0.00119,0.00078,0.00081,0.00075,0.0158,0.0165,0.017,passive,1
2.4805,rehab,mild_small_fast,87.457464391,-666.4351404912,254.8155573498,-177.3763028827,0.1298760624,-149.9728539694,-87.2415,0.9784,98.2637,26.6992,3.6113,-158.5322,79.597275474,27.6981968578,82.6467387841,-23.55778446,-89.0840006873,-39.5069810409,5.5247063623,3.2562632305,4.2568065019,-6.4162709939,0.5223272773,5.3184811086,4.9925,1.4264,1.2742,0.00696,-0.00999,0.01953,0.00122,0.00116,0.00119,0.00078,0.00081,0.00075,0.0158,0.0165,0.017,passive,1
2.5005,rehab,mild_small_fast,85.7512636416,-666.3978579385,256.6934316562,-177.3805358175,0.1305076511,-149.9807252383,-86.8793,-0.1766,94.1426,22.9135,-45.6022,-117.9614,79.7091075047,27.7264714016,82.7368740739,-23.7027387711,-89.0350919748,-39.3886478692,5.9660284772,2.0952480951,4.0464481709,-6.0789453973,1.5225250789,4.416665249,5.4314,1.4909,1.2153,0.00841,-0.00852,0.02009,0.00122,0.00116,0.00119,0.00078,0.00081,0.00075,0.0158,0.0165,0.017,passive,1
2.5205,rehab,mild_small_fast,83.9822929757,-666.4422047271,258.5812631214,-177.3779934466,0.1295281617,-149.9739390805,-86.325,-0.8457,93.5452,16.8135,-2.6268,-108.9719,79.8359166131,27.7820067816,82.8085967109,-23.8009422759,-89.0230996841,-39.3303144309,5.6460242187,3.1579719813,4.3959062071,-6.0576751855,0.8801713371,4.2188063555,4.668,1.2112,1.188,0.00916,-0.01183,0.01825,0.00122,0.00116,0.00119,0.00078,0.00081,0.00075,0.0158,0.0165,0.017,passive,1
2.5405,rehab,mild_small_fast,82.2982633056,-666.4316852284,260.4352405183,-177.375465183,0.1260177067,-149.9752874053,-86.2067,-0.2817,89.7838,18.117,28.349,-188.2229,79.9349484734,27.8527902809,82.9127103222,-23.9450457786,-88.9998851213,-39.219895615,4.8230683738,3.299887517,3.9421604168,-6.1810635648,0.3938244098,5.4670703166,5.0817,1.141,1.2199,0.00752,-0.00682,0.02321,0.00122,0.00116,0.00119,0.00078,0.00081,0.00075,0.0158,0.0165,0.017,passive,1
2.5605,rehab,mild_small_fast,80.5340231432,-666.4534718961,262.1726138301,-177.3756185604,0.1299850974,-149.976642017,-85.6003,0.2883,86.0163,24.5449,-14.7253,-83.9881,80.0288393481,27.9140022822,82.9662831276,-24.0481848185,-89.0073467077,-39.1116316182,5.379323027,2.7542830439,3.408721638,-4.8809817597,0.5426592722,5.2387898435,4.4612,1.1149,1.1542,0.00649,-0.00803,0.01598,0.00122,0.00116,0.00119,0.00078,0.00081,0.00075,0.0158,0.0165,0.017,passive,1
2.5805,rehab,mild_small_fast,78.8742502356,-666.4201541176,263.8758927531,-177.3785515229,0.1312831797,-149.9799549112,-85.225,-0.8707,86.4242,-72.3331,-47.7735,6.081,80.1501213945,27.9629616027,83.0490591877,-24.140285049,-88.9781787504,-39.0103440213,6.3966987662,3.2107733139,3.7966471862,-5.6558351277,0.0639263884,4.7327346435,4.566,1.3747,1.3985,0.00526,-0.00699,0.01933,0.00122,0.00116,0.00119,0.00078,0.00081,0.00075,0.0158,0.0165,0.017,passive,1
2.6005,rehab,mild_small_fast,77.1250251288,-666.4882995761,265.6295835731,-177.3741512035,0.1324617464,-149.9802113791,-88.4937,-1.6227,86.2595,-73.3859,23.3851,-34.5023,80.2847072987,28.0424332148,83.1181490151,-24.2744182236,-89.0047896522,-38.9223222325,5.2083715756,3.5239996685,2.8259858497,-6.4168442842,0.1441669455,4.7953027207,4.8707,1.3661,1.4657,0.0059,-0.00774,0.01765,0.00122,0.00116,0.00119,0.00078,0.00081,0.00075,0.0158,0.0165,0.017,passive,1
2.6205,rehab,mild_small_fast,75.3345042331,-666.4850605418,267.3262746115,-177.3785221343,0.1259374414,-149.9805568846,-88.1604,0.0647,85.0442,4.7573,16.4229,14.4501,80.3584562575,28.1039215894,83.1620986217,-24.3969588203,-88.9724120726,-38.8185319125,5.5768263388,2.4488909235,3.302455771,-5.5690227429,1.332697351,4.822259706,4.6911,1.2456,1.6259,0.0103,-0.00212,0.01867,0.00122,0.00116,0.00119,0.00078,0.00081,0.00075,0.0158,0.0165,0.017,passive,1
2.6405,rehab,mild_small_fast,73.5986096018,-666.4857110563,269.0313495904,-177.3829234906,0.1300952327,-149.9715082663,-88.3034,-0.9657,86.8376,-40.7781,-19.7735,44.2973,80.5077803523,28.1403888517,83.2502472459,-24.4971791333,-88.9514817582,-38.7294318443,5.3173526779,2.5492406907,3.855995459,-5.6030368178,0.7446552128,4.64571315,5.21,1.3604,1.7166,0.00517,-0.00563,0.021,0.00122,0.00116,0.00119,0.00078,0.00081,0.00075,0.0158,0.0165,0.017,passive,1
2.6605,rehab,mild_small_fast,71.8023699582,-666.5236902943,270.7997766587,-177.3802650684,0.1272958598,-149.9778489863,-89.7915,-0.7262,86.816,-96.341,-1.594,-56.7501,80.5711503647,28.205891217,83.3163384401,-24.621080293,-88.9426258641,-38.6327033865,4.1154537286,1.8437120828,3.289346585,-6.1056447975,0.0495855463,4.9021324077,4.7683,1.1957,1.4537,0.00511,-0.00598,0.01859,0.00122,0.00116,0.00119,0.00078,0.00081,0.00075,0.0158,0.0165,0.017,passive,1
2.6805,rehab,mild_small_fast,70.0069490979,-666.5147602029,272.5039913147,-177.3776528038,0.1301647131,-149.982053638,-92.157,-1.0295,84.5675,-89.0742,-24.557,-45.8355,80.6723985014,28.214137335,83.3818211093,-24.7414049252,-88.9494983363,-38.533346548,5.9524351884,2.6352524533,2.9999672403,-5.8024401866,-0.0288875434,5.7948216639,5.0924,1.2939,1.8308,0.00347,-0.00312,0.02473,0.00122,0.00116,0.00119,0.00078,0.00081,0.00075,0.0158,0.0165,0.017,passive,1
2.7005,rehab,mild_small_fast,68.1160900569,-666.5648704887,274.1824785043,-177.3808642798,0.1277655959,-149.9830257683,-93.3545,-1.7085,84.9826,-21.5626,-0.7939,-9.4896,80.8092477722,28.3113013152,83.4363371297,-24.8531779005,-88.9437813658,-38.4009105199,5.991463182,4.3650010154,3.8952267191,-6.0068904096,0.108024135,5.1158117001,5.0209,1.4325,1.673,0.00743,-0.00481,0.02093,0.00122,0.00116,0.00119,0.00078,0.00081,0.00075,0.0158,0.0165,0.017,passive,1
2.7205,rehab,mild_small_fast,66.2727698771,-666.583100531,275.9032962504,-177.3740888716,0.1307219572,-149.9802654009,-93.0195,-1.0613,84.188,-96.8705,27.7987,22.9751,80.9120570287,28.3887373757,83.5376301781,-24.9816805416,-88.9451773709,-38.32871408,4.84745388,3.0770017849,4.5050850421,-6.6386866631,1.1262517159,3.6510932579,5.1428,1.4454,1.7282,0.0068,-0.00348,0.01891,0.00122,0.00116,0.00119,0.00078,0.00081,0.00075,0.0158,0.0165,0.017,passive,1
2.7405,rehab,mild_small_fast,64.3953099776,-666.6073209852,277.5499970246,-177.3824646887,0.1226456013,-149.9803489559,-97.2293,-0.5966,85.9016,-158.2055,18.488,76.0644,81.0031459274,28.4343813866,83.6165405314,-25.118725367,-88.8987312972,-38.2548667896,5.6504746587,2.4731502756,3.9201696349,-5.9938064187,0.9350222241,4.9320042826,5.0384,1.2833,1.7634,0.00569,-0.00504,0.02055,0.00122,0.00116,0.00119,0.00078,0.00081,0.00075,0.0158,0.0165,0.017,passive,1
2.7605,rehab,mild_small_fast,62.3835978429,-666.6069628915,279.3393613964,-177.379825217,0.1269249709,-149.9751606049,-99.3477,-0.3217,87.2305,-61.2969,18.3155,15.611,81.138076015,28.4876633867,83.6944369635,-25.2214327983,-88.907776482,-38.1314339086,5.6914159316,2.4301228811,3.7390974591,-5.7516944118,-0.3764070737,5.849421574,5.0687,1.2991,2.0294,0.00225,-0.00261,0.0166,0.00122,0.00116,0.00119,0.00078,0.00081,0.00075,0.0158,0.0165,0.017,passive,1
2.7805,rehab,mild_small_fast,60.4214011379,-666.6201906832,281.0392185928,-177.3766789377,0.1311126681,-149.978517254,-99.6812,0.1361,86.5261,-84.9701,4.0779,-11.9855,81.2308025647,28.5315863018,83.7661044297,-25.3487931435,-88.9137875801,-38.0208899266,5.1039920085,3.5743857195,4.268501676,-5.353775675,-0.1131622245,4.9561551204,5.393,1.5172,1.8819,0.0091,-0.00482,0.02216,0.00122,0.00116,0.00119,0.00078,0.00081,0.00075,0.0158,0.0165,0.017,passive,1
2.8005,rehab,mild_small_fast,58.396350737,-666.6015204362,282.8004041841,-177.3791274445,0.124873623,-149.982700268,-102.7465,-0.1586,86.7511,-113.388,-35.1171,-0.2909,81.3422356954,28.6306388155,83.8651770305,-25.4355838253,-88.9123029709,-37.9331877038,6.1356167408,2.947233381,3.5250532809,-6.7044093726,0.318533605,4.5387030867,5.6377,1.5979,2.2695,0.00787,-0.00684,0.0172,0.00122,0.00116,0.00119,0.00078,0.00081,0.00075,0.0158,0.0165,0.017,passive,1
2.8205,rehab,mild_small_fast,56.3115400803,-666.6265357269,284.5092633775,-177.3738057954,0.1282365992,-149.9805108123,-104.2167,-1.2686,86.5144,786.2569,-15.7271,-736.4408,81.4762272343,28.649475637,83.907106561,-25.6169695184,-88.9010462359,-37.8393418032,6.1344701579,2.8216111599,2.3683602879,-7.2891027274,1.3512488109,5.1094507622,5.5482,1.5537,2.2066,0.00863,-0.00557,0.02312,0.00122,0.00116,0.00119,0.00078,0.00081,0.00075,0.0158,0.0165,0.017,passive,1
2.8405,rehab,mild_small_fast,54.2276828675,-666.652265411,286.260981517,-177.3768392127,0.1306971002,-149.9821523819,-71.2963,-0.7877,57.2935,868.7004,3.7996,-809.431,81.5876145017,28.7435032619,83.959911442,-25.7271479344,-88.8582530185,-37.7288096733,3.1178628066,2.5855372981,3.1659937363,-2.8985073468,1.0043939651,4.7617409617,4.7065,1.4572,1.8344,0.00657,-0.00217,0.01748,0.00122,0.00116,0.00119,0.00078,0.00081,0.00075,0.0158,0.0165,0.017,passive,1
2.8605,rehab,mild_small_fast,53.45969003,-666.6580441845,286.8010029212,-177.3795902677,0.1267829684,-149.9771635064,-69.4687,-1.1166,54.1372,-771.8596,-21.0207,585.6527,81.6009417466,28.752897129,84.0337463104,-25.7329098123,-88.8608704773,-37.6488721647,4.0017660618,2.4276245704,4.2775913822,-4.0638260459,-0.6461353336,3.7792569286,4.9743,1.3467,2.0966,0.00366,-0.00205,0.01873,0.00122,0.00116,0.00119,0.00078,0.00081,0.00075,0.0158,0.0165,0.017,passive,1
2.8805,rehab,mild_small_fast,51.4489356785,-666.6969309767,288.4264691784,-177.3800334872,0.1257488803,-149.9790124469,-102.1706,-1.6285,80.7196,-826.0063,3.1094,635.5475,81.7476851442,28.8406082447,84.1310150973,-25.8897009763,-88.8840984318,-37.5776393962,5.8745726598,2.8035144871,3.7286752475,-6.5117313578,0.5792703027,4.6708950725,5.2007,1.3265,2.228,0.0047,-0.00369,0.01766,0.00122,0.00116,0.00119,0.00078,0.00081,0.00075,0.0158,0.0165,0.017,passive,1
2.9005,rehab,mild_small_fast,49.372864692,-666.7231858115,290.0297867394,-177.3790653237,0.1274491109,-149.9807237808,-102.5089,-0.9923,79.5591,-1.2936,41.8644,-72.3395,81.835924653,28.8650377084,84.1828933203,-25.9933790666,-88.8376996652,-37.4620363618,5.4829572687,2.5210391723,3.6279914077,-4.7654895521,1.1759931432,5.3136341965,5.5671,1.4797,2.1243,0.00883,-0.00299,0.01986,0.00122,0.00116,0.00119,0.00078,0.00081,0.00075,0.0158,0.0165,0.017,passive,1
2.9205,rehab,mild_small_fast,47.3485784306,-666.7366214406,291.6088328667,-177.3779967891,0.1277232772,-149.9802678156,-102.2224,0.046,77.826,-65.7402,10.8316,-63.6209,81.9670034349,28.9414498116,84.2761347536,-26.0803205583,-88.8370587061,-37.3650940283,6.8323358035,3.9393454753,3.4079673837,-5.482494837,-0.1523743439,5.0394049811,5.5537,1.4637,2.5812,0.00574,0.00065,0.02188,0.00122,0.00116,0.00119,0.00078,0.00081,0.00075,0.0158,0.0165,0.017,passive,1
2.9405,rehab,mild_small_fast,45.2839695248,-666.7213443566,293.1428273201,-177.3748058237,0.1282989979,-149.9764770059,-105.1385,-0.559,77.0143,-58.766,-33.9004,1.6924,82.1092180851,29.0226115275,84.3192120157,-26.2126788601,-88.843794639,-37.2604601625,6.0073118039,2.4993752586,3.7961412842,-6.9262700074,-0.8080717602,4.5780648018,5.6789,1.5916,2.6183,0.00618,-0.0029,0.02249,0.00122,0.00116,0.00119,0.00078,0.00081,0.00075,0.0158,0.0165,0.017,passive,1
2.9605,rehab,mild_small_fast,43.1430368445,-666.7589813489,294.689403195,-177.3821327146,0.1291099663,-149.9836543676,-104.573,-1.31,77.8937,26.3848,-6.5516,4.544,82.2072959071,29.0414248219,84.427980405,-26.3573713586,-88.8693815765,-37.1819714363,4.2435085302,2.3036618122,4.6061061398,-6.8184997092,0.2016074428,5.8626361472,5.6858,1.6409,2.3968,0.00736,-0.00164,0.02334,0.00122,0.00116,0.00119,0.00078,0.00081,0.00075,0.0158,0.0165,0.017,passive,1
2.9805,rehab,mild_small_fast,41.1010487321,-666.7737435107,296.2585757002,-177.3837510515,0.1277734847,-149.9757660024,-104.0831,-0.8211,77.196,-71.6313,17.7407,-58.3942,82.2789584263,29.1147579999,84.5034562613,-26.4854188484,-88.8357303413,-37.0259547166,5.2978564795,3.927241793,4.3139492102,-5.4455275787,2.1562204931,6.2110126945,5.4417,1.4021,2.6672,0.00212,0.00055,0.02206,0.00122,0.00116,0.00119,0.00078,0.00081,0.00075,0.0158,0.0165,0.017,passive,1
3.0005,rehab,mild_small_fast,38.9797109646,-666.791823765,297.7772438763,-177.3762030832,0.1293260274,-149.9820286337,-107.4383,-0.6003,75.5579,-39.8905,22.5329,-89.7153,82.4192101663,29.1985144936,84.6005383734,-26.5751924618,-88.7831327568,-36.9335309285,6.3276844835,2.4422419965,2.9520357069,-4.9237216265,-0.3517532994,4.9399554548,5.6185,1.4795,2.6796,0.0028,-0.00253,0.02382,0.00122,0.00116,0.00119,0.00078,0.00081,0.00075,0.0158,0.0165,0.017,passive,1
3.0205,rehab,mild_small_fast,36.8035178655,-666.7977574856,299.2808933621,-177.3811356087,0.1257178405,-149.9804501071,-105.6788,0.0803,73.6074,137.5469,1.9052,-74.0345,82.5320658056,29.2124476798,84.6215376895,-26.6823677135,-88.8498004732,-36.8283564985,5.4176781396,2.2681394086,3.1449026219,-7.0980403094,-1.0432918316,4.8493689132,5.8491,1.7801,2.7811,0.00751,-0.00177,0.02039,0.00122,0.00116,0.00119,0.00078,0.00081,0.00075,0.0158,0.0165,0.017,passive,1
3.0405,rehab,mild_small_fast,34.7525602184,-666.7886135915,300.7215400729,-177.3809948043,0.1292744465,-149.9822984573,-101.9364,-0.5241,72.5966,63.1818,-38.3599,-99.874,82.6359172918,29.28924007,84.7263344783,-26.8591140742,-88.8248644301,-36.739556172,5.3714785752,3.9967510527,3.7545319686,-6.5592308888,1.3894974088,5.4883401739,5.5118,1.4753,2.8645,0.0078,-0.00286,0.02279,0.00122,0.00116,0.00119,0.00078,0.00081,0.00075,0.0158,0.0165,0.017,passive,1
3.0605,rehab,mild_small_fast,32.7260620284,-666.8187231189,302.1847557846,-177.3775515331,0.1248142714,-149.9804034136,-103.1515,-1.4541,69.6124,13.3965,-24.0988,-207.3963,82.7469249486,29.3723177219,84.7717189683,-26.944736949,-88.7942205769,-36.6088228915,4.9212369331,4.2698852207,4.1685856896,-4.2399951091,0.3771335727,4.7448971177,5.7394,1.498,2.9648,0.00358,0.0029,0.02,0.00122,0.00116,0.00119,0.00078,0.00081,0.00075,0.0158,0.0165,0.017,passive,1
3.0805,rehab,mild_small_fast,30.6265003886,-666.8467792608,303.5060379351,-177.3791466494,0.129213728,-149.9875954124,-101.4005,-1.4881,64.3007,120.7002,3.2887,-150.6983,82.8327667692,29.4600354788,84.8930779058,-27.0287138785,-88.8097790872,-36.5497602873,5.1970937702,2.3179977692,4.8113780444,-4.9985130458,0.2970887684,4.1031016941,5.3954,1.5909,3.0777,0.00409,0.00231,0.02118,0.00122,0.00116,0.00119,0.00078,0.00081,0.00075,0.0158,0.0165,0.017,passive,1
3.1005,rehab,mild_small_fast,28.6700406483,-666.8782467727,304.7567840794,-177.381568794,0.1265150812,-149.982882534,-98.3235,-1.3226,63.5845,117.3526,42.808,-60.5168,82.9548086995,29.4650376327,84.96417409,-27.1446774709,-88.7823370262,-36.4446988237,4.6621234988,1.7417873552,2.4016864228,-6.1710927669,0.4406093382,5.1178952682,5.8581,1.7088,3.0967,0.00503,0.00171,0.02407,0.00122,0.00116,0.00119,0.00078,0.00081,0.00075,0.0158,0.0165,0.017,passive,1
3.1205,rehab,mild_small_fast,26.6935608615,-666.8996830141,306.0494185857,-177.3753332074,0.130683742,-149.9864250818,-96.7064,0.2242,61.88,128.4562,56.1176,-158.2606,83.0192517091,29.529706973,84.9891453628,-27.2755575892,-88.7921547136,-36.3450444765,5.0323000278,3.1210822872,3.4999506924,-6.483989054,-0.2684550238,5.5989357821,5.4626,1.686,3.1041,0.00278,0.00319,0.02056,0.00122,0.00116,0.00119,0.00078,0.00081,0.00075,0.0158,0.0165,0.017,passive,1
3.1405,rehab,mild_small_fast,24.801783388,-666.8692775765,307.2319855601,-177.3742412744,0.1267501303,-149.9872598639,-93.1852,0.9221,57.2541,149.8904,-4.1385,-179.2777,83.1561007006,29.5898809242,85.1041721177,-27.404037033,-88.7930752271,-36.2207413925,5.4189515387,3.0517768102,4.2866432068,-4.7292037542,-0.5013903224,4.6240089454,5.6479,1.4657,3.243,-0.00137,0.00481,0.02332,0.00122,0.00116,0.00119,0.00078,0.00081,0.00075,0.0158,0.0165,0.017,passive,1
3.1605,rehab,mild_small_fast,22.9661512678,-666.8627986382,308.3395823463,-177.3788672008,0.1258179425,-149.9819334686,-90.7108,0.0587,54.7089,-2952.6996,-29.8317,1709.5372,83.2360097707,29.6517780454,85.160611091,-27.4647257394,-88.8122103265,-36.1600841187,4.1055118266,1.8660644383,1.8623265818,-4.3737090967,0.4341945978,3.8916577231,5.9322,1.8562,3.2413,0.00538,-0.00117,0.02163,0.00122,0.00116,0.00119,0.00078,0.00081,0.00075,0.0158,0.0165,0.017,passive,1
3.1805,rehab,mild_small_fast,21.1733507806,-666.8669300282,309.420342682,-177.382210425,0.1253814062,-149.9852895725,-211.2932,-0.2712,125.6356,-2930.4164,2.5711,1726.3526,83.3203211736,29.6645235017,85.178665181,-27.5789853969,-88.7757074432,-36.0650750835,10.9717617981,5.399093079,6.959100692,-11.5178287923,1.3560057821,9.8026119489,6.3194,2.0563,3.8106,0.00369,0.0031,0.0225,0.00122,0.00116,0.00119,0.00078,0.00081,0.00075,0.0158,0.0165,0.017,passive,1
3.2005,rehab,mild_small_fast,14.5144222698,-666.8736449164,313.3650055516,-177.3831203391,0.1256048732,-149.9863592489,-207.9275,0.1615,123.763,3211.5937,7.1315,-1964.3911,83.6748802426,29.8677417686,85.4389751187,-27.9254388911,-88.7579700952,-35.7679796408,10.8686216831,5.4527347628,7.2454121734,-10.7218170632,-0.8809200536,9.7031164634,6.4558,2.1027,3.9254,0.00447,0.00617,0.02482,0.00122,0.00116,0.00119,0.00078,0.00081,0.00075,0.0158,0.0165,0.017,passive,1
3.2205,rehab,mild_small_fast,12.8562519502,-666.8604687001,314.3708639752,-177.3814600977,0.1284909433,-149.9823746899,-82.8295,0.0141,47.0599,3267.645,-22.6314,-2053.0329,83.755066041,29.8826328922,85.468481668,-28.0078580794,-88.8109442453,-35.676950425,3.5206782802,2.5807236309,2.2246567699,-4.6237360367,-0.4385391096,4.7843147698,6.1154,1.9381,3.7101,0.00356,0.00155,0.01949,0.00122,0.00116,0.00119,0.00078,0.00081,0.00075,0.0158,0.0165,0.017,passive,1
3.2405,rehab,mild_small_fast,11.2012432402,-666.8730808747,315.2474029594,-177.3882395234,0.1196658156,-149.986784853,-77.2217,-0.7437,41.6417,334.8719,9.0039,-210.2126,83.8157073738,29.9709707138,85.5279613895,-28.1103883325,-88.7755116596,-35.57660705,3.6206581403,3.1958621126,2.4728507292,-4.337586249,0.7236238545,3.7724624388,5.6752,1.7723,3.3419,0.00559,-0.00014,0.02471,0.00122,0.00116,0.00119,0.00078,0.00081,0.00075,0.0158,0.0165,0.017,passive,1
3.2605,rehab,mild_small_fast,9.7673850932,-666.8902175935,316.036532643,-177.3875954244,0.1263329229,-149.9838648739,-69.4346,0.3743,38.6514,380.1729,28.2025,-203.5391,83.8998923666,30.0104673767,85.5673956971,-28.1813615294,-88.7819992912,-35.5260519274,3.5698972587,0.4380784799,2.5693647512,-4.3435009063,0.5116589808,1.8982260211,6.0351,1.7483,3.7217,0.00028,0.00131,0.02478,0.00122,0.00116,0.00119,0.00078,0.00081,0.00075,0.0158,0.0165,0.017,passive,1
3.2805,rehab,mild_small_fast,8.4238593074,-666.8581106191,316.7934602509,-177.3799977707,0.1228359199,-149.9848289891,-62.0148,0.3844,33.5002,434.747,-24.8005,-265.8594,83.9585032641,29.988493853,85.6307359796,-28.2841283688,-88.7550453004,-35.5006780091,3.1760857102,0.8441340101,2.003447765,-3.7324501893,-0.0762570454,2.3206820698,5.5075,-1.6247,3.5206,-0.03253,0.00496,0.03385,0.00122,0.00116,0.00119,0.00078,0.00081,0.00075,0.0158,0.0165,0.017,passive,1
3.3005,rehab,mild_small_fast,7.2867948644,-666.8748424552,317.3765387769,-177.3865909949,0.1242445,-149.9867677067,-52.0447,-0.6178,28.0171,427.2101,-34.2202,-238.3427,84.026935795,30.0442327371,85.6475336077,-28.330659537,-88.785049573,-35.4332246447,2.9061478247,2.4878043461,1.5121733374,-1.5238076948,-0.1863490244,3.3206897458,5.5694,-1.644,3.4541,-0.02974,0.00185,0.0347,0.00122,0.00116,0.00119,0.00078,0.00081,0.00075,0.0158,0.0165,0.017,passive,1
3.3205,rehab,mild_small_fast,6.3420705269,-666.8828212086,317.9141425575,-177.3853995632,0.1269273881,-149.9842012731,-44.9264,-0.9844,23.9664,387.0418,5.6896,-244.6799,84.0747491771,30.0880060268,85.6912229131,-28.3450806766,-88.7624992614,-35.3678504193,2.5512534788,1.5230757936,2.1384067378,-2.7081853476,-0.3258602178,2.0350221668,5.4708,-1.5821,3.5593,-0.02842,0.00325,0.03589,0.00122,0.00116,0.00119,0.00078,0.00081,0.00075,0.0158,0.0165,0.017,passive,1
3.3405,rehab,mild_small_fast,5.4897408,-666.9142196152,318.3351965999,-177.3849744551,0.1231465385,-149.9814833079,-36.563,-0.3902,18.2299,461.437,43.2475,-235.5061,84.1289859341,30.1051557689,85.7330698772,-28.4389869509,-88.7980839817,-35.351823758,2.1834209134,1.2583498499,1.1080020231,-3.0551287345,-0.3759263797,0.5523988555,5.5623,-1.6369,3.8353,-0.0296,0.00791,0.03767,0.00122,0.00116,0.00119,0.00078,0.00081,0.00075,0.0158,0.0165,0.017,passive,1
3.3605,rehab,mild_small_fast,4.87954857,-666.8984285052,318.6433370688,-177.3836069389,0.128143552,-149.9865183026,-26.4689,0.7455,14.5462,469.0785,10.6256,-197.3586,84.1620860137,30.1383400208,85.735542994,-28.467285826,-88.7775363166,-35.3457544651,0.6158888056,1.2213544827,1.0568058522,-0.8934029435,1.0867048147,1.5401215097,5.3236,-1.5919,3.5414,-0.02805,0.00559,0.03174,0.00122,0.00116,0.00119,0.00078,0.00081,0.00075,0.0158,0.0165,0.017,passive,1
3.3805,rehab,mild_small_fast,4.4309859528,-666.8844006995,318.9170447253,-177.3816746978,0.1266256088,-149.9810393152,-17.7999,0.0348,10.3355,440.1611,-19.6814,-264.6937,84.1536214864,30.1540099482,85.7753421113,-28.4747230686,-88.7546157891,-35.2902188976,0.2846551819,0.5764926577,0.5023453609,-0.4587485702,-0.0420847528,1.8626952731,5.0283,-1.5344,3.5917,-0.02629,0.00549,0.0299,0.00122,0.00116,0.00119,0.00078,0.00081,0.00075,0.0158,0.0165,0.017,passive,1
3.4005,rehab,mild_small_fast,4.1675522818,-666.8970348925,319.0567578616,-177.3822178549,0.1247155827,-149.9935389589,-8.8624,-0.0418,3.9585,484.3213,25.7576,-283.4185,84.1734722209,30.1613997271,85.7556368084,-28.4856357688,-88.7792197067,-35.2712466541,0.4329762242,-0.2418408916,0.6100587295,-0.3023982863,0.176495827,0.1725487611,4.9868,-1.4558,3.2317,-0.02931,0.00289,0.03333,0.00122,0.00116,0.00119,0.00078,0.00081,0.00075,0.0158,0.0165,0.017,passive,1
3.4205,rehab,mild_small_fast,4.07648884,-666.8860719721,319.0753829977,-177.3799020489,0.1264123666,-149.9901154104,1.5729,1.0651,-1.0012,488.9215,17.8679,-259.9579,84.1709405353,30.1443363125,85.7997444605,-28.4868190001,-88.747555956,-35.2833169472,-0.5864395743,-0.8118211119,1.8243016569,0.6627466556,0.0794864873,-0.2518796773,-0.0551,-1.5215,5.8951,-0.04063,0.03693,0.00982,0.00122,0.00116,0.00119,0.00078,0.00081,0.00075,0.0158,0.0165,0.017,passive,1
3.4405,rehab,mild_small_fast,4.2304700182,-666.8544291298,319.0167091082,-177.3825941743,0.1247705562,-149.9855752103,10.6944,0.6729,-6.4399,470.4055,-28.4571,-227.5881,84.150014638,30.1289268827,85.8286088747,-28.4591259025,-88.7760402472,-35.2813218412,-0.7738227722,-1.1155695194,-1.0972050773,0.3768017704,-0.6353800274,-0.0742033359,-0.0482,-1.8062,6.7564,-0.044,0.03932,0.00506,0.00122,0.00116,0.00119,0.00078,0.00081,0.00075,0.0158,0.0165,0.017,passive,1
3.4605,rehab,mild_small_fast,4.5042660996,-666.8591545535,318.8177886356,-177.3885991627,0.1219476827,-149.9899058029,20.3892,-0.0731,-10.1047,526.8028,19.7852,-231.2018,84.1399876244,30.0997135317,85.7558562574,-28.4717469292,-88.7729711571,-35.2862850806,-0.8166126761,0.1501542623,-1.8255974658,0.9491109413,0.2549616693,-1.5046772081,-0.1388,-1.658,6.4006,-0.04491,0.04008,0.005,0.00122,0.00116,0.00119,0.00078,0.00081,0.00075,0.0158,0.0165,0.017,passive,1
3.4805,rehab,mild_small_fast,5.0460365817,-666.857354754,318.6125194254,-177.3887985552,0.122108278,-149.9894074037,31.7665,1.4643,-15.6879,4015.6224,31.9234,-2212.8683,84.1173501309,30.1349330532,85.7555849761,-28.4211614649,-88.7658417804,-35.3415089296,-1.7096062555,0.5414033958,-0.9595796441,2.7612881972,-0.1065724727,-1.1965507037,-0.1013,-1.7713,7.0275,-0.04642,0.04043,0.00467,0.00122,0.00116,0.00119,0.00078,0.00081,0.00075,0.0158,0.0165,0.017,passive,1
3.5005,rehab,mild_small_fast,5.7749278283,-666.8005807469,318.1902714565,-177.3867788845,0.1244446898,-149.9821910535,181.0141,1.2038,-98.6195,3920.5337,-44.6377,-2156.3188,84.0716033742,30.1213696676,85.7174730717,-28.3612954013,-88.777234056,-35.3341471087,-8.8024484508,-4.8060434162,-5.9135517186,9.6846725714,0.1902884221,-6.7155485502,-0.0052,-1.8147,7.324,-0.04718,0.04474,0.00865,0.00122,0.00116,0.00119,0.00078,0.00081,0.00075,0.0158,0.0165,0.017,passive,1
3.5205,rehab,mild_small_fast,12.2865989796,-666.8092029644,314.6677405128,-177.3822739703,0.1248304183,-149.9886600264,188.5879,-0.3212,-101.9407,-3233.403,-29.3308,1734.0134,83.7652521929,29.9426913165,85.5190429073,-28.033774562,-88.7582302435,-35.6101308716,-10.3513903433,-5.2401492411,-6.6056559711,9.7757535757,0.0510801025,-8.5087284116,0.0622,-1.9667,7.5151,-0.05517,0.04532,0.00928,0.00122,0.00116,0.00119,0.00078,0.00081,0.00075,0.0158,0.0165,0.017,passive,1
3.5405,rehab,mild_small_fast,13.3184435543,-666.8134272392,314.1126442085,-177.3852272266,0.1249911892,-149.9906953965,51.6779,0.0306,-29.2589,-3284.1486,36.1619,1680.9309,83.6575477605,29.9117636979,85.4532468328,-27.9702652583,-88.7751908519,-35.6744962452,-2.7036501012,-1.2545428741,-2.7606814165,2.2967158506,-0.5495674601,-2.8809425347,0.1179,-1.4125,6.3248,-0.03635,0.03804,0.00872,0.00122,0.00116,0.00119,0.00078,0.00081,0.00075,0.0158,0.0165,0.017,passive,1
3.5605,rehab,mild_small_fast,14.3537165309,-666.8079803761,313.497383083,-177.3871629631,0.1252330543,-149.9942408304,57.2219,1.1253,-34.7034,363.1054,26.4387,-235.4913,83.6571061888,29.8925096016,85.4086156507,-27.941905928,-88.7802129419,-35.725368573,-2.844061152,-1.8761928984,-2.3104396157,3.02266715,0.1566335544,-2.8727057458,0.1924,-1.6993,6.3167,-0.04098,0.03423,0.0087,0.00122,0.00116,0.00119,0.00078,0.00081,0.00075,0.0158,0.0165,0.017,passive,1
3.5805,rehab,mild_small_fast,15.6073215167,-666.7684146951,312.7245063277,-177.388673376,0.1278130575,-149.9922594515,66.2022,1.0881,-38.6786,380.3488,-19.1588,-151.889,83.5437853144,29.836715982,85.3608292482,-27.8493585723,-88.7689255097,-35.789404475,-3.5680875111,-1.766082698,-1.6957048333,4.150464837,-0.5130585534,-2.9870053139,0.2115,-1.8022,6.8456,-0.04596,0.04296,0.00992,0.00122,0.00116,0.00119,0.00078,0.00081,0.00075,0.0158,0.0165,0.017,passive,1
3.6005,rehab,mild_small_fast,17.001802794,-666.7644558096,311.9502395673,-177.3901657762,0.1240589771,-149.9915900288,72.4359,0.359,-40.779,320.5096,-35.0957,-207.4991,83.5143826884,29.8218662936,85.3407874573,-27.7758873345,-88.8007352841,-35.8448487855,-3.1664977078,-1.5233346266,-2.5020071717,3.8886051459,0.0575897348,-2.3526289355,0.1467,-1.6258,6.5694,-0.04343,0.04441,0.01013,0.00122,0.00116,0.00119,0.00078,0.00081,0.00075,0.0158,0.0165,0.017,passive,1
3.6205,rehab,mild_small_fast,18.504757602,-666.7540561559,311.0933460933,-177.385666469,0.1200445359,-149.9859904191,79.0225,-0.3157,-46.9786,316.5652,11.8231,-241.4567,83.4171254061,29.7757825969,85.2607489613,-27.6938143665,-88.7666219204,-35.8835096324,-4.2271319679,-2.2537908012,-2.7442504265,4.6857363659,0.2720389826,-3.4266984307,0.2625,-1.6235,6.4507,-0.04272,0.0395,0.00732,0.00122,0.00116,0.00119,0.00078,0.00081,0.00075,0.0158,0.0165,0.017,passive,1
3.6405,rehab,mild_small_fast,20.1627044365,-666.7770844,310.0710974124,-177.3848045912,0.1231695476,-149.9874121928,85.0985,0.8319,-50.4373,288.563,36.5195,-205.543,83.3452974097,29.7317146616,85.2310174403,-27.5884578799,-88.7898537248,-35.9819167227,-4.4872068796,-1.5287517337,-2.3338546737,5.2158967997,-0.4413538624,-3.9044228074,0.3702,-1.7283,6.8567,-0.04468,0.03929,0.00863,0.00122,0.00116,0.00119,0.00078,0.00081,0.00075,0.0158,0.0165,0.017,passive,1
3.6605,rehab,mild_small_fast,21.9086980173,-666.7207806115,309.0758552101,-177.3850450752,0.1253575634,-149.9942237173,90.5651,1.1451,-55.2003,253.3002,-2.6879,-250.3286,83.2376371309,29.7146325276,85.1673947744,-27.4851784945,-88.7842760748,-36.0396865447,-5.6887171747,-2.649670727,-2.4200476404,5.4188441594,-0.2629048951,-2.9378389826,0.4311,-1.5247,6.3338,-0.03992,0.03548,0.01056,0.00122,0.00116,0.00119,0.00078,0.00081,0.00075,0.0158,0.0165,0.017,passive,1
3.6805,rehab,mild_small_fast,23.7853069196,-666.7312818045,307.8630865278,-177.3842381066,0.1242407974,-149.9920183135,95.2305,0.7244,-60.4504,172.7362,-10.1192,-166.864,83.1177487227,29.6257278325,85.1342155346,-27.3717041135,-88.8003699206,-36.099430282,-5.583463966,-3.3646774159,-3.0738779688,4.5632821647,-0.2312780951,-4.2900789817,0.4723,-1.7065,6.3142,-0.04241,0.03514,0.01067,0.00122,0.00116,0.00119,0.00078,0.00081,0.00075,0.0158,0.0165,0.017,passive,1
3.7005,rehab,mild_small_fast,25.7179187658,-666.6918057809,306.6578386264,-177.3872818086,0.1232263833,-149.9893218859,97.4745,0.7403,-61.8748,151.4332,-3.045,-134.7999,83.0142985723,29.5800454309,85.0444396556,-27.3026472079,-88.7935271987,-36.211289704,-5.2488922941,-1.7946929837,-4.5181595506,5.3538034799,-0.6671079355,-5.2952953164,0.3739,-1.5793,6.6108,-0.04095,0.03683,0.00658,0.00122,0.00116,0.00119,0.00078,0.00081,0.00075,0.0158,0.0165,0.017,passive,1
3.7205,rehab,mild_small_fast,27.684287278,-666.7016699732,305.3880933183,-177.3885696331,0.1223982584,-149.9951496994,101.2878,0.6026,-65.8424,236.7559,-17.9884,-185.1715,82.9077930309,29.5539401132,84.9534891526,-27.1575519743,-88.827054238,-36.3112420947,-4.1498175078,-1.6652437619,-4.1333474077,5.9736083916,-0.2112898529,-5.0621371642,0.4902,-1.495,6.1892,-0.03845,0.0369,0.01206,0.00122,0.00116,0.00119,0.00078,0.00081,0.00075,0.0158,0.0165,0.017,passive,1
3.7405,rehab,mild_small_fast,29.769432569,-666.6677030126,304.0241422049,-177.3875214093,0.1247722506,-149.9927809406,106.9447,0.0208,-69.2817,165.8272,-12.1271,-156.152,82.848305872,29.5134356805,84.8791057593,-27.0637028722,-88.8019787928,-36.4137751906,-4.6399664643,-3.0000373401,-4.1571676776,5.8081013002,0.4154683795,-5.0701492494,0.6002,-1.8532,6.8125,-0.04686,0.03858,0.01071,0.00122,0.00116,0.00119,0.00078,0.00081,0.00075,0.0158,0.0165,0.017,passive,1
3.7605,rehab,mild_small_fast,31.9620770245,-666.7008395491,302.6168256889,-177.386920588,0.1259439693,-149.9923805435,107.9209,0.1175,-72.0885,85.2723,45.5014,-164.7707,82.7221943724,29.4339386195,84.7872024455,-26.9252279223,-88.8104355028,-36.5140480647,-5.7102740395,-3.1410992181,-3.7162418206,7.1264296989,-0.3674264481,-4.5577513434,0.701,-1.69,6.5809,-0.04335,0.03826,0.00932,0.00122,0.00116,0.00119,0.00078,0.00081,0.00075,0.0158,0.0165,0.017,passive,1
3.7805,rehab,mild_small_fast,34.0862699573,-666.6630035709,301.1406026049,-177.3868879883,0.1223665065,-149.9917676861,110.3556,1.8408,-75.8725,122.1735,45.1873,-129.522,82.6198949104,29.3877917117,84.7304560865,-26.7786456843,-88.8166758507,-36.5960852443,-6.1077789634,-3.6317625953,-3.2903108518,6.6703686622,-0.2661873345,-4.2655350749,0.6961,-1.9578,6.4771,-0.04497,0.03577,0.01297,0.00122,0.00116,0.00119,0.00078,0.00081,0.00075,0.0158,0.0165,0.017,passive,1
3.8005,rehab,mild_small_fast,36.3763023824,-666.6272068991,299.5819249254,-177.3886169587,0.1209638779,-149.9840770414,112.8079,1.925,-77.2694,14.8772,-3.8979,-73.3678,82.4778832138,29.2886681157,84.6555900114,-26.6584131758,-88.8210829962,-36.6846694677,-6.7341234273,-4.0244563636,-4.6292810763,5.9812846387,-0.8557720758,-5.6611679166,0.8174,-1.5722,6.6545,-0.04501,0.03707,0.01082,0.00122,0.00116,0.00119,0.00078,0.00081,0.00075,0.0158,0.0165,0.017,passive,1
3.8205,rehab,mild_small_fast,38.5985849477,-666.5860044282,298.0498277318,-177.3879118415,0.1221730843,-149.9923378591,110.9507,1.6849,-78.8072,-1509.676,-19.4951,973.4059,82.3505299733,29.2268134572,84.5452848434,-26.5393942987,-88.8509067337,-36.822531961,-6.4219027745,-2.8417992044,-3.8703978695,6.4264006678,-0.768535137,-5.9315493358,0.5698,-1.76,6.6676,-0.04142,0.03848,0.01016,0.00122,0.00116,0.00119,0.00078,0.00081,0.00075,0.0158,0.0165,0.017,passive,1
3.8405,rehab,mild_small_fast,40.8143312224,-666.5598109126,296.4296357393,-177.3877477273,0.1233565538,-149.9912744258,52.4208,1.1452,-38.3331,-1272.8291,-34.3944,891.3387,82.2210071028,29.1749961476,84.5007740967,-26.4013571491,-88.8518244017,-36.9219314411,-2.9951142872,-1.0141230371,-2.9364894373,3.2243788987,0.0990829218,-1.9178080991,0.538,-1.4766,5.76,-0.03582,0.03419,0.00723,0.00122,0.00116,0.00119,0.00078,0.00081,0.00075,0.0158,0.0165,0.017,passive,1
3.8605,rehab,mild_small_fast,40.6954183201,-666.5401974608,296.5165022445,-177.381213566,0.1219420361,-149.9918908091,60.0376,0.3091,-43.1537,1793.5537,-25.5181,-1307.9566,82.2307254018,29.1862485357,84.4278252659,-26.4104191428,-88.8469434169,-36.8992442849,-2.9173707513,-1.7723232757,-3.7976216054,3.5037544857,-0.0506809234,-2.5450514855,0.6838,-1.4603,5.5571,-0.03444,0.03129,0.01022,0.00122,0.00116,0.00119,0.00078,0.00081,0.00075,0.0158,0.0165,0.017,passive,1
3.8805,rehab,mild_small_fast,43.2158335773,-666.5474459543,294.7034884857,-177.3882214407,0.1241663515,-149.9984759473,124.163,0.1245,-90.6514,1593.7887,-9.322,-1220.1857,82.1043122728,29.1041032165,84.3488692325,-26.2612069697,-88.8538516386,-37.0237335005,-6.2638848688,-3.1740351764,-3.8069214245,7.861156955,-0.10061902,-5.6801923006,0.8985,-1.5149,6.2842,-0.03985,0.03551,0.00704,0.00122,0.00116,0.00119,0.00078,0.00081,0.00075,0.0158,0.0165,0.017,passive,1
3.9005,rehab,mild_small_fast,45.6619376584,-666.5352193949,292.8904462382,-177.3875605987,0.122256246,-149.9912377008,123.7891,-0.0638,-91.9611,-43.4235,9.8355,-79.0865,81.980170007,29.0592871287,84.275548409,-26.0959728646,-88.8509681777,-37.126451977,-6.4768587456,-4.4124294401,-3.8227516416,7.9094713375,-0.6638863056,-5.8928805118,0.9432,-1.4405,6.3958,-0.0383,0.03635,0.00913,0.00122,0.00116,0.00119,0.00078,0.00081,0.00075,0.0158,0.0165,0.017,passive,1
3.9205,rehab,mild_small_fast,48.1673978957,-666.5499961951,291.0250440398,-177.3833755321,0.1228935044,-149.9895962748,122.426,0.5179,-93.8149,-124.8409,38.015,-56.1319,81.845237923,28.9276060389,84.1959591668,-25.9448281162,-88.8804070908,-37.259448721,-6.8053408808,-4.5106564734,-3.5379177168,7.834107011,-0.0399516398,-6.7632219962,0.9885,-1.4906,6.0023,-0.03899,0.0353,0.00998,0.00122,0.00116,0.00119,0.00078,0.00081,0.00075,0.0158,0.0165,0.017,passive,1
3.9405,rehab,mild_small_fast,50.5589794022,-666.5145046017,289.1378518404,-177.3887847605,0.1220962229,-149.9982347463,118.7955,1.4568,-94.2064,-139.976,7.6159,-26.4104,81.7079563718,28.8788608697,84.1340317003,-25.7826085842,-88.8525662432,-37.3969808568,-7.685996703,-2.1397084568,-4.8178878794,7.2324018457,-0.3871281759,-5.2747426147,1.2107,-1.6726,6.1748,-0.0394,0.03261,0.01677,0.00122,0.00116,0.00119,0.00078,0.00081,0.00075,0.0158,0.0165,0.017,passive,1
3.9605,rehab,mild_small_fast,52.9192168268,-666.4917224097,287.2567884896,-177.3924497538,0.1194477722,-149.9924821033,116.827,0.8225,-94.8713,-112.4301,-20.7932,-3.5562,81.5377980548,28.8420177007,84.0032436516,-25.6555320423,-88.8958922179,-37.4704384256,-6.4957480566,-2.5353466198,-4.607045651,6.7076654595,-1.0249137765,-4.8611092645,1.1992,-1.6694,6.5593,-0.04158,0.03673,0.01001,0.00122,0.00116,0.00119,0.00078,0.00081,0.00075,0.0158,0.0165,0.017,passive,1
3.9805,rehab,mild_small_fast,55.2320595563,-666.4816043912,285.3430008365,-177.3877443559,0.1250974581,-149.997566813,114.2983,0.6251,-94.3486,-108.8146,-10.3708,35.7115,81.4481264495,28.7774470049,83.9497498742,-25.5143019658,-88.8935627943,-37.5914252274,-6.6325207537,-2.6609180999,-3.805336273,7.4194668356,0.0009646791,-5.864182885,1.266,-1.6045,5.8878,-0.04124,0.03039,0.01274,0.00122,0.00116,0.00119,0.00078,0.00081,0.00075,0.0158,0.0165,0.017,passive,1
4.0005,rehab,mild_small_fast,57.4911476071,-666.4667177013,283.4828429692,-177.388705081,0.1239543307,-149.9940941964,112.4744,0.4077,-93.4428,-92.6309,-15.7597,22.0129,81.2724972247,28.7355809767,83.8510302007,-25.3587533689,-88.8958536307,-37.705005741,-6.4583290336,-3.9635835413,-5.010750466,6.2433245041,-0.5826476139,-6.4430853073,1.1095,-1.4384,5.792,-0.03709,0.03064,0.01589,0.00122,0.00116,0.00119,0.00078,0.00081,0.00075,0.0158,0.0165,0.017,passive,1
4.0205,rehab,mild_small_fast,59.7310364193,-666.4652974074,281.6052881775,-177.3948009563,0.1219958849,-149.9926535131,110.593,-0.0053,-93.4681,-123.8374,16.0292,-11.4693,81.1897932882,28.6189036633,83.7493198556,-25.2645689856,-88.9168686989,-37.8491486397,-5.2512374296,-3.9871792415,-4.0116943431,6.0771546538,-1.1315043722,-5.5539527368,1.1393,-1.5976,6.0819,-0.04004,0.03495,0.00986,0.00122,0.00116,0.00119,0.00078,0.00081,0.00075,0.0158,0.0165,0.017,passive,1
4.0405,rehab,mild_small_fast,61.9148689541,-666.4669285442,279.7441181343,-177.3868240846,0.1236858633,-149.9996510561,107.5209,1.0488,-93.9016,-86.002,28.0039,17.6924,81.0624477275,28.576093807,83.690562427,-25.1156671828,-88.9411138056,-37.9271638505,-6.86825374,-2.5845241626,-4.3165498296,7.9639757017,0.3577720203,-5.4798539598,1.1729,-1.4609,5.5687,-0.0406,0.02894,0.0089,0.00122,0.00116,0.00119,0.00078,0.00081,0.00075,0.0158,0.0165,0.017,passive,1
4.0605,rehab,mild_small_fast,64.0318733642,-666.4233436904,277.8492246224,-177.3870721126,0.1254908739,-149.9940649353,107.153,1.1149,-92.7604,-108.5648,-22.4209,41.3098,80.9150631386,28.5155226968,83.5766578624,-24.9460099575,-88.9025578181,-38.0683427981,-6.9635240693,-3.0891507231,-5.2846700868,6.5107841632,-0.1108769642,-5.9027388968,1.1786,-1.4769,5.2326,-0.03388,0.02893,0.01302,0.00122,0.00116,0.00119,0.00078,0.00081,0.00075,0.0158,0.0165,0.017,passive,1
4.0805,rehab,mild_small_fast,66.2009871229,-666.4223331291,276.0337011435,-177.3867293146,0.1247152599,-149.9898225413,103.1783,0.152,-92.2492,-180.4936,-26.8064,23.1284,80.7839067647,28.4525277781,83.4791756235,-24.8552358162,-88.9455488842,-38.1632734063,-5.8482367586,-3.3491315557,-3.3110398857,5.221481478,0.0052967598,-4.2624392274,1.3993,-1.4002,5.4848,-0.03626,0.02868,0.01368,0.00122,0.00116,0.00119,0.00078,0.00081,0.00075,0.0158,0.0165,0.017,passive,1
4.1005,rehab,mild_small_fast,68.1590065642,-666.4172633987,274.159256677,-177.3908709372,0.1246306796,-149.9930547417,99.9332,0.0426,-91.8353,-137.9459,3.8052,50.5853,80.6811336683,28.3815574346,83.444216267,-24.7371506984,-88.9023459477,-38.2388403672,-5.4593147019,-2.9839645371,-4.0441561471,6.8793102467,0.1933186382,-5.4859581868,1.2632,-1.5872,4.9504,-0.03357,0.02488,0.01293,0.00122,0.00116,0.00119,0.00078,0.00081,0.00075,0.0158,0.0165,0.017,passive,1
4.1205,rehab,mild_small_fast,70.1983155264,-666.4206279388,272.3602895871,-177.3858071029,0.1243026765,-149.9941386464,97.6605,0.3042,-90.2258,-157.4764,6.3613,23.7654,80.5655341767,28.3331691966,83.3174093776,-24.5800634064,-88.9378161386,-38.3827117338,-6.4044911275,-3.3312956382,-4.3067507698,7.7444469077,-1.3905190201,-5.0682991565,1.4592,-1.4035,5.3457,-0.03706,0.02598,0.01386,0.00122,0.00116,0.00119,0.00078,0.00081,0.00075,0.0158,0.0165,0.017,passive,1
4.1405,rehab,mild_small_fast,72.0654263139,-666.4050948212,270.5502252274,-177.3852490752,0.1229864096,-149.9924016763,93.6342,0.2971,-90.8847,-141.4345,-5.0828,0.6437,80.4249540232,28.248305609,83.2719462362,-24.4273728221,-88.9579667085,-38.4415723334,-6.4456371997,-3.3387775893,-3.2773012574,6.2366288902,-0.9501940011,-5.7761457083,1.2815,-1.2012,4.8339,-0.03204,0.02603,0.01393,0.00122,0.00116,0.00119,0.00078,0.00081,0.00075,0.0158,0.0165,0.017,passive,1
4.1605,rehab,mild_small_fast,73.9436816533,-666.4087446717,268.7249026456,-177.3888107537,0.1252859373,-149.9978142747,92.0031,0.1009,-90.2,-66.522,11.7124,18.862,80.3077086887,28.199618093,83.1863173273,-24.3305982508,-88.9758238987,-38.6137575621,-4.9670287017,-2.5541225449,-4.0938443472,5.2643911583,-0.2347111215,-6.0308783481,1.3255,-1.356,4.7836,-0.03475,0.02544,0.01195,0.00122,0.00116,0.00119,0.00078,0.00081,0.00075,0.0158,0.0165,0.017,passive,1
4.1805,rehab,mild_small_fast,75.7455509218,-666.4010586953,266.9422237649,-177.3897684496,0.1255915641,-149.9912083203,90.9733,0.7656,-90.1302,-67.0876,4.4578,38.5196,80.2262728751,28.1461407072,83.1081924623,-24.2167971758,-88.9673551533,-38.6828074674,-5.5845321512,-2.9274516286,-3.605230731,6.2610932909,-0.0043505167,-3.7427559889,1.6253,-1.4147,5.1495,-0.03511,0.02804,0.01423,0.00122,0.00116,0.00119,0.00078,0.00081,0.00075,0.0158,0.0165,0.017,passive,1
4.2005,rehab,mild_small_fast,77.5826126578,-666.3781216438,265.1196949662,-177.3923075201,0.12401452,-150.0016690959,89.3196,0.2792,-88.6593,-132.685,-14.437,84.1869,80.0843274026,28.0825200279,83.0421080981,-24.0801545191,-88.9759979193,-38.7634678017,-5.3879554353,-2.8795719462,-3.7511832855,5.4074250427,-1.4759907777,-4.5617372397,1.345,-1.429,4.8568,-0.03499,0.02622,0.01159,0.00122,0.00116,0.00119,0.00078,0.00081,0.00075,0.0158,0.0165,0.017,passive,1
4.2205,rehab,mild_small_fast,79.3183353606,-666.389890101,263.3958536481,-177.3863397481,0.1270247113,-149.995419218,85.6659,0.1881,-86.7627,-118.2509,-23.8045,-2.9671,80.0107546577,28.0309578294,82.9581451309,-24.0005001741,-89.0263947844,-38.8652769569,-6.1379723932,-1.9889894907,-4.2429777733,6.3026136085,-0.6981917655,-5.6724188418,1.369,-1.3383,4.6711,-0.03299,0.02447,0.01192,0.00122,0.00116,0.00119,0.00078,0.00081,0.00075,0.0158,0.0165,0.017,passive,1
4.2405,rehab,mild_small_fast,81.0092476653,-666.3705977462,261.6491863002,-177.3888100664,0.126171498,-149.9909748189,84.5896,-0.673,-88.7779,-34.622,-17.773,-36.8053,79.8388085069,28.0029604482,82.8723889871,-23.8280499748,-89.00392559,-38.9903645554,-6.1320526583,-2.5516752018,-3.1955196849,5.9776675573,0.43711172,-5.2498342666,1.3624,-1.4365,4.5167,-0.03136,0.02053,0.01298,0.00122,0.00116,0.00119,0.00078,0.00081,0.00075,0.0158,0.0165,0.017,passive,1
4.2605,rehab,mild_small_fast,82.701918409,-666.4168087785,259.84473616,-177.392987813,0.1229321977,-149.9981056886,84.281,-0.5228,-88.2349,7.1594,28.5831,1.7983,79.7654725513,27.9288908213,82.8303243435,-23.7613934718,-89.0089103156,-39.0752703276,-4.5362606949,-3.0083348282,-2.722203739,4.6348207621,0.004549215,-3.9321731243,1.2887,-1.3202,4.5097,-0.0326,0.02604,0.01219,0.00122,0.00116,0.00119,0.00078,0.00081,0.00075,0.0158,0.0165,0.017,passive,1
4.2805,rehab,mild_small_fast,84.3804874567,-666.3915106125,258.119789083,-177.3910671527,0.1244172272,-149.9974462583,84.876,0.4704,-88.706,-13.7174,0.708,-48.6393,79.6573580791,27.8826270551,82.7635008376,-23.6426571443,-89.0037436214,-39.1476514803,-5.428306091,-3.350554343,-4.0441305324,6.3270500726,-0.9652098695,-4.9254375839,1.5413,-1.3725,4.7568,-0.03321,0.02303,0.01294,0.00122,0.00116,0.00119,0.00078,0.00081,0.00075,0.0158,0.0165,0.017,passive,1
4.3005,rehab,mild_small_fast,86.0969564971,-666.3979945383,256.2964960112,-177.3887951644,0.1245431315,-149.9921565219,83.7323,-0.4945,-90.1805,-54.1228,-4.4257,-65.0332,79.5483403077,27.7948686476,82.6685591222,-23.5083114689,-89.0475187104,-39.272287831,-6.255996055,-3.0850772026,-4.2524011681,6.5693024443,-0.9451963564,-5.2767269896,1.7618,-1.5757,5.2259,-0.03779,0.02616,0.01516,0.00122,0.00116,0.00119,0.00078,0.00081,0.00075,0.0158,0.0165,0.017,passive,1
4.3205,rehab,mild_small_fast,87.7297794063,-666.4112906071,254.5125689596,-177.3902232249,0.1231048155,-150.0046291701,82.711,0.2933,-91.3073,2.2926,9.6188,-123.959,79.4071182369,27.759223967,82.5934047909,-23.3798850465,-89.0415514756,-39.3587205599,-5.3338420778,-2.2314824233,-4.0145471712,6.0967222847,0.3574174781,-3.9963772457,1.7136,-1.4565,4.9989,-0.03145,0.02665,0.01339,0.00122,0.00116,0.00119,0.00078,0.00081,0.00075,0.0158,0.0165,0.017,passive,1
4.3405,rehab,mild_small_fast,89.4053980641,-666.3862614749,252.6442026821,-177.3985987775,0.1269477185,-149.9928001188,83.824,-0.1097,-95.1389,-39.3347,-7.6097,-77.7612,79.3349866246,27.7056093507,82.5079772353,-23.2644425775,-89.0332220113,-39.4321429208,-4.6975072002,-2.1019426786,-3.6084209179,5.7942946651,-0.826290377,-4.3733488664,2.0193,-1.6226,5.3625,-0.03463,0.02485,0.01783,0.00122,0.00116,0.00119,0.00078,0.00081,0.00075,0.0158,0.0165,0.017,passive,1
4.3605,rehab,mild_small_fast,91.0827395036,-666.4156805373,250.7070144696,-177.3871871897,0.1236090527,-149.996920976,81.1377,-0.0111,-94.4178,-73.6123,32.416,11.2768,79.2192179489,27.6751462599,82.4490679541,-23.1481132599,-89.0746030907,-39.5336545146,-5.3265984163,-2.7918633297,-2.8168653107,5.2206705761,-0.4700614981,-6.1173738667,1.8125,-1.3741,4.8901,-0.0337,0.02362,0.01601,0.00122,0.00116,0.00119,0.00078,0.00081,0.00075,0.0158,0.0165,0.017,passive,1
4.3805,rehab,mild_small_fast,92.6509041349,-666.3867039572,248.867491398,-177.3904927969,0.1221899194,-150.0005919489,80.8795,1.1869,-94.6878,97.7826,-46.6528,-120.1129,79.1219226879,27.5939348175,82.3953026229,-23.0556157544,-89.0520244712,-39.6768378755,-5.9059159563,-3.8753043805,-4.5817643575,5.7547813898,-0.7061874139,-4.8625323465,1.9222,-1.3321,4.7085,-0.03462,0.02242,0.01682,0.00122,0.00116,0.00119,0.00078,0.00081,0.00075,0.0158,0.0165,0.017,passive,1
4.4005,rehab,mild_small_fast,94.317919905,-666.3682048817,246.9195027986,-177.3885880191,0.122186737,-149.9979789463,85.049,-1.8772,-99.2223,90.3551,-56.8266,-169.3689,78.9829813107,27.5201340847,82.2657973798,-22.9179220043,-89.1028505873,-39.7281558084,-6.3578428285,-3.3753708348,-4.1564479635,6.4394550569,-0.9148604455,-3.7325424783,1.9044,-1.4878,5.1598,-0.03802,0.02376,0.01844,0.00122,0.00116,0.00119,0.00078,0.00081,0.00075,0.0158,0.0165,0.017,passive,1
4.4205,rehab,mild_small_fast,96.0528623111,-666.4617908847,244.8985995465,-177.3928830135,0.126205423,-150.0001147457,84.4937,-1.0862,-101.4625,-93.3703,74.0208,-66.6286,78.8676089748,27.4589199841,82.2290447044,-22.7980375522,-89.088618889,-39.8261395746,-6.5724066757,-1.8577920547,-2.6162819581,5.8458130352,0.3743056303,-5.5698639755,1.9225,-1.5136,5.276,-0.03628,0.02479,0.01363,0.00122,0.00116,0.00119,0.00078,0.00081,0.00075,0.0158,0.0165,0.017,passive,1
4.4405,rehab,mild_small_fast,97.6976684811,-666.4116517347,242.8610009643,-177.3909200392,0.1234554478,-150.0000725415,81.3141,1.0837,-101.8874,-33.006,7.343,-79.3898,78.7200850436,27.4458224025,82.1611461015,-22.6840894829,-89.087878362,-39.9509503674,-6.0714620821,-2.4867726948,-4.3233329357,6.4455595379,-0.0343329379,-5.3946054612,1.98,-1.363,4.9313,-0.03286,0.02389,0.01709,0.00122,0.00116,0.00119,0.00078,0.00081,0.00075,0.0158,0.0165,0.017,passive,1
4.4605,rehab,mild_small_fast,99.3054280201,-666.4184445561,240.8231019228,-177.3889626681,0.12132212,-149.9953396739,83.1735,-0.7925,-104.6381,91.6157,-38.47,-112.5779,78.6247504915,27.3594490763,82.056111387,-22.5402151707,-89.0899922066,-40.041923793,-4.7582050486,-3.443899591,-4.130054723,6.0473376369,0.412407929,-5.1084734838,2.2761,-1.6566,5.3683,-0.03533,0.02789,0.01623,0.00122,0.00116,0.00119,0.00078,0.00081,0.00075,0.0158,0.0165,0.017,passive,1
4.4805,rehab,mild_small_fast,101.0246074708,-666.4433498351,238.6754753889,-177.3982669929,0.1211559426,-150.0020041614,84.9788,-0.4551,-106.3906,-661.4484,13.168,786.1944,78.5297568417,27.3080664188,81.9959439126,-22.4421959775,-89.0713820449,-40.1552893068,-5.2607039022,-2.8562038099,-3.6755344571,6.3318335884,-1.1439259402,-6.4995815168,2.5663,-1.5522,5.5302,-0.0379,0.0248,0.01992,0.00122,0.00116,0.00119,0.00078,0.00081,0.00075,0.0158,0.0165,0.017,passive,1
4.5005,rehab,mild_small_fast,102.7045787724,-666.4366502391,236.5674795897,-177.3945891608,0.1203190843,-149.9918706116,56.7155,-0.2657,-73.1904,-766.9671,-12.8705,855.919,78.4143223354,27.2452009239,81.9090900087,-22.2869418271,-89.1357492442,-40.3019070537,-4.0082178319,-2.7693384308,-3.8000768299,5.4012948672,-1.4535075192,-3.8673963122,1.9959,-1.2832,5.1494,-0.02864,0.02641,0.01708,0.00122,0.00116,0.00119,0.00078,0.00081,0.00075,0.0158,0.0165,0.017,passive,1
4.5205,rehab,mild_small_fast,103.2932290766,-666.4539791496,235.7478609052,-177.3922551955,0.1228779199,-149.9970592209,54.3001,-0.97,-72.1538,523.831,-9.3329,-699.5508,78.3694281284,27.1972928816,81.8439408394,-22.2261441828,-89.1295223457,-40.3099851593,-4.1568001447,-2.6193693605,-2.5576475677,4.3962510841,0.1444513751,-2.4945273009,2.1887,-1.4831,5.1469,-0.03859,0.02676,0.02128,0.00122,0.00116,0.00119,0.00078,0.00081,0.00075,0.0158,0.0165,0.017,passive,1
4.5405,rehab,mild_small_fast,104.876582163,-666.4754486817,233.6813276853,-177.3959593653,0.1230322447,-150.0032159817,77.6688,-0.639,-101.1724,543.5461,15.6318,-773.8169,78.2480503296,27.1404261495,81.806784106,-22.1110917838,-89.1299711892,-40.4016881457,-6.5717021958,-2.9037315205,-3.0589273171,6.0782086651,0.3577709324,-4.3737955257,2.4147,-1.4264,5.0645,-0.03433,0.02178,0.01923,0.00122,0.00116,0.00119,0.00078,0.00081,0.00075,0.0158,0.0165,0.017,passive,1
4.5605,rehab,mild_small_fast,106.3999802218,-666.4795410932,231.7009651243,-177.3860105533,0.1220178379,-150.0002260694,76.0419,-0.3447,-103.1065,-34.8002,-10.1372,-133.4073,78.1065600406,27.0811436208,81.7215837467,-21.9830158362,-89.1152115084,-40.4849369803,-5.3472199922,-2.884672928,-3.7262857229,5.6583797002,-0.7502736814,-5.1311595226,2.6008,1.5971,5.82,-0.0077,0.02704,0.00585,0.00122,0.00116,0.00119,0.00078,0.00081,0.00075,0.0158,0.0165,0.017,passive,1
4.5805,rehab,mild_small_fast,107.9182593218,-666.4892362184,229.557068675,-177.3971365433,0.1274391475,-149.9985309595,76.2768,-1.0445,-106.5087,31.3917,-11.1721,-74.3453,78.0341615299,27.0250392323,81.657732677,-21.8847565957,-89.1599821364,-40.6069345267,-5.3210864678,-1.9129327167,-3.5030240639,5.735147611,-1.1350102625,-5.3900018054,2.8179,1.7043,5.9525,-0.00694,0.02775,0.00476,0.00122,0.00116,0.00119,0.00078,0.00081,0.00075,0.0158,0.0165,0.017,passive,1
4.6005,rehab,mild_small_fast,109.4510510575,-666.5213225885,227.4406176045,-177.3945242765,0.1239112624,-149.9976057958,77.2976,-0.7916,-106.0803,-20.3979,38.7223,-32.4075,77.8937165819,27.0046263121,81.5814627842,-21.7536099317,-89.1606119189,-40.7005370525,-6.4143740523,-2.3784467585,-2.9162464012,6.1926739696,-0.4216770865,-5.2662448488,2.5267,1.4725,5.3654,-0.00506,0.02053,0.00973,0.00122,0.00116,0.00119,0.00078,0.00081,0.00075,0.0158,0.0165,0.017,passive,1
4.6205,rehab,mild_small_fast,111.0101632289,-666.5208991384,225.3138572219,-177.3930004833,0.1217901022,-150.0083381377,75.4609,0.5044,-107.805,-107.7935,-5.2587,-20.9639,77.7775865679,26.929901362,81.541082821,-21.637049637,-89.1768492199,-40.8175843206,-5.2764075348,-3.8344993813,-3.9591177873,5.7589264366,-0.3565034033,-4.6028467755,2.8163,1.6591,5.6799,-0.00994,0.02526,0.00921,0.00122,0.00116,0.00119,0.00078,0.00081,0.00075,0.0158,0.0165,0.017,passive,1
4.6405,rehab,mild_small_fast,112.4694852384,-666.5011484011,223.1284180665,-177.3976852575,0.12451208,-149.994537164,72.9859,-1.0019,-106.9188,-88.3044,-59.6822,20.4522,77.6826602805,26.8512463369,81.4230980727,-21.5232528743,-89.174872055,-40.8846509235,-5.7174683596,-2.8454719573,-4.1239968607,5.7202619792,0.2073897851,-4.5376097647,2.9778,1.6803,5.9964,-0.0079,0.02798,0.00831,0.00122,0.00116,0.00119,0.00078,0.00081,0.00075,0.0158,0.0165,0.017,passive,1
4.6605,rehab,mild_small_fast,113.9295974666,-666.5609760446,221.03710349,-177.3968271254,0.1220831531,-149.9990863811,71.9287,-1.8829,-106.9869,-85.2618,18.3468,-35.4217,77.5488878335,26.8160824837,81.3761229466,-21.4082391578,-89.1685536285,-40.9990887112,-5.8440806743,-2.2177269476,-2.1245664974,6.4407580409,-0.7704387249,-5.171170282,2.9851,1.6046,5.9557,-0.00918,0.02505,0.00723,0.00122,0.00116,0.00119,0.00078,0.00081,0.00075,0.0158,0.0165,0.017,passive,1
4.6805,rehab,mild_small_fast,115.3466323537,-666.576465697,218.8489420458,-177.3963313417,0.1199255672,-149.9977047701,69.5754,-0.268,-108.3357,-72.1172,33.5093,21.3934,77.4488970535,26.7625372589,81.3381154128,-21.2656225526,-89.205689604,-41.0914977348,-6.2263720246,-3.1792826695,-4.3523161368,5.9349661112,-0.2816461961,-6.1291167882,3.1436,1.7334,5.8026,-0.0054,0.02335,0.00819,0.00122,0.00116,0.00119,0.00078,0.00081,0.00075,0.0158,0.0165,0.017,passive,1
4.7005,rehab,mild_small_fast,116.712612901,-666.5716980422,216.7036750011,-177.3923733609,0.1254678537,-150.000664569,69.044,-0.5426,-106.1312,-25.7065,-1.5545,100.3946,77.2998329525,26.6889111769,81.2020303011,-21.1708405133,-89.1798194763,-41.2442533827,-6.076577947,-3.2734900514,-5.0719768024,6.2134864646,0.7118527058,-5.9222025641,3.0051,1.8346,6.0121,-0.0042,0.03123,0.00752,0.00122,0.00116,0.00119,0.00078,0.00081,0.00075,0.0158,0.0165,0.017,passive,1
4.7205,rehab,mild_small_fast,118.1083919938,-666.5981681465,214.6036954191,-177.3980246807,0.1231010888,-149.9972309798,68.5471,-0.3302,-104.3199,-117.1587,-14.8102,70.7777,77.2058339356,26.6315976569,81.1352363407,-21.017083094,-89.1772154958,-41.3283858374,-4.4839993352,-2.6836066894,-3.86423401,6.5042459587,-0.4587111511,-4.6091852237,3.2936,1.6489,5.6131,-0.00806,0.02312,0.00979,0.00122,0.00116,0.00119,0.00078,0.00081,0.00075,0.0158,0.0165,0.017,passive,1
4.7405,rehab,mild_small_fast,119.4544979817,-666.5849071808,212.5308779027,-177.392902747,0.1284738248,-150.0029476211,64.3576,-1.135,-103.3001,-181.4117,-21.6629,58.8057,77.1204729791,26.5815669094,81.0474609407,-20.910670675,-89.1981679224,-41.4286207917,-4.9562971986,-2.2946144099,-3.1006581456,5.1143768166,-0.9266305797,-4.3535352074,3.1971,1.6809,5.7193,-0.00482,0.02598,0.01112,0.00122,0.00116,0.00119,0.00078,0.00081,0.00075,0.0158,0.0165,0.017,passive,1
4.7605,rehab,mild_small_fast,120.6826976683,-666.6435669896,210.471693165,-177.3939644431,0.1252199091,-149.9962359694,61.2907,-1.1967,-101.9677,-107.3294,24.7647,104.4078,77.0075820477,26.5398130805,81.0112100149,-20.8125080214,-89.2142807189,-41.5025272457,-4.9880906948,-3.7197716615,-3.1289862282,4.7674793379,0.69432615,-4.8805845639,3.4306,1.4927,5.6093,-0.00789,0.02442,0.01244,0.00122,0.00116,0.00119,0.00078,0.00081,0.00075,0.0158,0.0165,0.017,passive,1
4.7805,rehab,mild_small_fast,121.9061243381,-666.632776943,208.4521699629,-177.3960677082,0.1270130521,-149.9989028531,60.0645,-0.1444,-99.1237,-106.0722,-2.7567,166.5554,76.9209493513,26.4327760429,80.9223014916,-20.7199715015,-89.1703948764,-41.6238441742,-5.6030940578,-2.752365512,-3.3529799506,5.7094137143,0.6721002906,-4.524148986,3.3381,1.8613,5.9819,-0.00906,0.03107,0.00603,0.00122,0.00116,0.00119,0.00078,0.00081,0.00075,0.0158,0.0165,0.017,passive,1
4.8005,rehab,mild_small_fast,123.0852763335,-666.6493422945,206.5067433705,-177.3951781978,0.1249099425,-149.9973603104,57.0478,-1.307,-95.3055,-174.6246,-27.0461,163.1442,76.7834582854,26.42971846,80.8770908168,-20.5841314728,-89.1873967073,-41.6834932051,-4.8790301785,-1.8623017894,-2.7835629069,4.7292850346,-0.5024499866,-4.6910109226,3.6923,1.8922,6.2474,-0.00458,0.02628,0.00903,0.00122,0.00116,0.00119,0.00078,0.00081,0.00075,0.0158,0.0165,0.017,passive,1
4.8205,rehab,mild_small_fast,124.1880351563,-666.6850573931,204.6399505991,-177.3940997714,0.1259778996,-150.0027361927,53.0795,-1.2262,-92.598,1580.581,12.6004,-2957.5218,76.7257881441,26.3582839713,80.8109589753,-20.5308001001,-89.1904928758,-41.8114846111,-4.1178216976,-2.4198011201,-3.6463516797,4.7869959626,-1.1045852584,-4.3080982301,3.2125,1.7027,5.4165,-0.00342,0.02553,0.00848,0.00122,0.00116,0.00119,0.00078,0.00081,0.00075,0.0158,0.0165,0.017,passive,1
4.8405,rehab,mild_small_fast,125.2084555867,-666.6983913331,202.802824362,-177.3968910795,0.1208006048,-149.9991001578,120.271,-0.803,-213.6064,1674.0782,14.5541,-3006.3356,76.6187454175,26.3329264152,80.7312367496,-20.3926516343,-89.2315801177,-41.8558171343,-11.3373779354,-5.272258642,-7.7790946012,12.7250768997,-0.7861670477,-9.6312149494,3.8164,1.9432,6.457,-0.00929,0.02559,0.01026,0.00122,0.00116,0.00119,0.00078,0.00081,0.00075,0.0158,0.0165,0.017,passive,1
4.8605,rehab,mild_small_fast,128.99887557,-666.7171771839,196.0956963434,-177.3946399201,0.1244959823,-150.0000763249,120.0426,-0.6441,-212.8514,-1866.0186,7.713,3141.5404,76.2722930267,26.1473936256,80.4997951912,-20.0217970241,-89.2219395577,-42.1967332091,-11.0005536663,-6.124070468,-8.159971732,10.5408906042,-0.4555826353,-9.8161515752,3.9733,1.9959,6.2334,-0.00606,0.02633,0.01206,0.00122,0.00116,0.00119,0.00078,0.00081,0.00075,0.0158,0.0165,0.017,passive,1
4.8805,rehab,mild_small_fast,130.0101599612,-666.7241538751,194.2887683569,-177.3984300956,0.1262678889,-150.0024102094,45.6303,-0.4945,-87.9447,-1988.4088,-4.6089,3318.9349,76.1787232708,26.0879635965,80.4048378804,-19.9710160101,-89.2498034231,-42.2484631973,-5.0374192943,-1.3770029008,-2.8769259683,5.6310640184,-0.029915152,-4.0591443432,3.8444,1.7799,5.9134,-0.00445,0.01987,0.01224,0.00122,0.00116,0.00119,0.00078,0.00081,0.00075,0.0158,0.0165,0.017,passive,1
4.9005,rehab,mild_small_fast,130.8240863013,-666.7369561959,192.5779067542,-177.3945434493,0.1242933686,-150.0003016807,40.5063,-0.8284,-80.094,-187.4725,-3.465,406.6954,76.070796255,26.0923135096,80.3847181525,-19.7965544634,-89.2231361638,-42.3590989828,-3.7009162167,-2.3019094477,-1.4286398935,5.3172416291,-0.2200193621,-3.4191554508,4.0521,1.9323,6.0479,-0.00492,0.02719,0.01412,0.00122,0.00116,0.00119,0.00078,0.00081,0.00075,0.0158,0.0165,0.017,passive,1
4.9205,rehab,mild_small_fast,131.6304101864,-666.7572906114,191.0850081899,-177.3974234018,0.1284212959,-149.998637041,38.1314,-0.6331,-71.6769,-184.0912,32.7287,376.268,76.0306866221,25.9958872186,80.3476922846,-19.758326345,-89.2586041975,-42.3852294154,-1.9090411047,-2.6192501412,-1.7440525103,2.2071287583,0.3840487287,-2.9912180062,3.6233,1.8142,5.3919,-0.00424,0.02151,0.01589,0.00122,0.00116,0.00119,0.00078,0.00081,0.00075,0.0158,0.0165,0.017,passive,1
4.9405,rehab,mild_small_fast,132.3493409952,-666.7622792773,189.7108298261,-177.394920554,0.1237639212,-149.9955850654,33.1426,0.4807,-65.0433,-252.437,14.4409,369.7593,75.9944346108,25.987543504,80.3149560521,-19.708269313,-89.2077742147,-42.4787477031,-3.1214679388,-1.7161137013,-3.4833897724,3.5367644439,1.2772580782,-3.0477158257,3.7889,1.8497,5.6454,-0.00608,0.02146,0.00964,0.00122,0.00116,0.00119,0.00078,0.00081,0.00075,0.0158,0.0165,0.017,passive,1
4.9605,rehab,mild_small_fast,132.9561145142,-666.7380614868,188.4832767728,-177.3878658304,0.1271433445,-149.9982015863,28.0339,-0.0554,-56.8866,-221.0124,-35.4303,429.642,75.9058279046,25.9272426705,80.2083566937,-19.6168557672,-89.2075138744,-42.5071380484,-3.4738700482,-1.0722458843,-1.8983217392,2.7777703491,-0.8992212476,-2.4257217938,4.05,1.6633,5.4878,-0.00618,0.02178,0.01624,0.00122,0.00116,0.00119,0.00078,0.00081,0.00075,0.0158,0.0165,0.017,passive,1
4.9805,rehab,mild_small_fast,133.4706964985,-666.7644968478,187.4353677381,-177.3983725978,0.1244595237,-149.9983075079,24.3021,-0.9365,-47.8576,-200.094,-27.4613,413.1328,75.8554798088,25.9446536686,80.2390231825,-19.5971584991,-89.2437430646,-42.5757765748,-3.2071757731,-0.6066999981,-0.3069430293,1.9935745404,-0.9317302466,-2.5735471257,3.778,1.7582,5.6258,-0.00111,0.02494,0.01291,0.00122,0.00116,0.00119,0.00078,0.00081,0.00075,0.0158,0.0165,0.017,passive,1
5.0005,rehab,mild_small_fast,133.928199013,-666.7755209156,186.5689726053,-177.3969317952,0.1234021651,-149.9972931811,20.0301,-1.1539,-40.3612,-236.5322,-39.5305,408.0957,75.7775408737,25.9029746706,80.1960789726,-19.5371127856,-89.2447830843,-42.6100799334,-2.2887320145,-1.5556079387,-1.6708886674,2.5484368141,0.6874681985,-2.2253646062,3.7255,1.5436,5.4477,-0.00626,0.02069,0.01512,0.00122,0.00116,0.00119,0.00078,0.00081,0.00075,0.0158,0.0165,0.017,passive,1
5.0205,rehab,mild_small_fast,134.2719015571,-666.8106524864,185.8209181875,-177.3949408497,0.1281156349,-150.0017191146,14.8408,-2.5177,-31.5338,-204.4719,15.7378,513.5623,75.7639305283,25.882429351,80.1721876358,-19.4952210265,-89.2162443366,-42.6647911591,-1.1746538456,-2.1869577346,0.0471206115,1.0581352792,-0.3022779259,-1.215704849,3.7794,1.5691,5.3869,-0.0071,0.02167,0.01429,0.00122,0.00116,0.00119,0.00078,0.00081,0.00075,0.0158,0.0165,0.017,passive,1
5.0405,rehab,mild_small_fast,134.5218319179,-666.8762291252,185.3076214913,-177.4007704598,0.1250294365,-149.9966604589,11.8512,-0.5244,-19.8187,-239.9436,81.366,515.1497,75.7305547198,25.8154963612,80.197963797,-19.4947873744,-89.2568742013,-42.6587081274,-1.736279301,-0.4402343471,-0.9063968029,1.2418662392,-0.5098411314,-0.3414400857,4.1676,1.6805,5.5569,-0.00669,0.02409,0.0137,0.00122,0.00116,0.00119,0.00078,0.00081,0.00075,0.0158,0.0165,0.017,passive,1
5.0605,rehab,mild_small_fast,134.7459514974,-666.8316276125,185.0281683104,-177.4052788403,0.1254635922,-150.0015996129,5.2431,0.7369,-10.9278,-307.6935,5.5657,430.5634,75.6944793562,25.8648199772,80.1359317637,-19.4455463769,-89.2366379819,-42.6784487625,-0.0465907007,0.8358101849,-0.5018849823,0.7137301679,0.674659004,-0.910723615,3.8014,1.7115,4.9306,-0.00362,0.01858,0.01158,0.00122,0.00116,0.00119,0.00078,0.00081,0.00075,0.0158,0.0165,0.017,passive,1
5.0805,rehab,mild_small_fast,134.7315550657,-666.8467516618,184.8705099734,-177.3930481247,0.1251614697,-149.9984504038,-0.4565,-0.3017,-2.5962,-211.2652,-11.9845,462.0323,75.7286910918,25.8489287686,80.1778883977,-19.4662381677,-89.2298878412,-42.695137072,0.6610031786,0.4525341088,0.5317056379,0.5482174103,-0.1528880156,-1.4009509557,3.4928,1.6217,5.2801,-0.00397,0.01825,0.01162,0.00122,0.00116,0.00119,0.00078,0.00081,0.00075,0.0158,0.0165,0.017,passive,1
5.1005,rehab,mild_small_fast,134.7276919045,-666.8436975641,184.9243199507,-177.3971236186,0.1236406344,-150.0015135822,-3.2075,0.2576,7.5535,-208.0197,-21.4954,505.6971,75.7209194834,25.8829213415,80.1571999892,-19.4236176805,-89.2427535025,-42.7344868007,0.5308623137,0.6793015477,-0.9948380214,-0.0602199076,-0.5139995419,0.160949668,6.7634,1.6509,-0.4518,0.01933,-0.02699,0.02917,0.00122,0.00116,0.00119,0.00078,0.00081,0.00075,0.0158,0.0165,0.017,passive,1
5.1205,rehab,mild_small_fast,134.6032538422,-666.8364494745,185.1726501162,-177.395656206,0.1234007088,-149.9993371334,-8.7773,-1.1616,17.6317,-260.3708,-9.6922,492.8308,75.7499255844,25.8761008305,80.1380948769,-19.468646964,-89.2504478228,-42.6886990853,0.9747254038,-0.4773264867,0.5061091127,-1.9305708087,-0.0409010985,2.0782351348,6.78,1.7406,-0.2773,0.01642,-0.02,0.02513,0.00122,0.00116,0.00119,0.00078,0.00081,0.00075,0.0158,0.0165,0.017,passive,1
5.1405,rehab,mild_small_fast,134.3766008127,-666.8901601616,185.6295869973,-177.3967060235,0.122958389,-149.9980737847,-13.6224,-0.1301,27.2667,-245.6972,29.9833,484.7487,75.7599084995,25.863828282,80.1774443537,-19.5008405129,-89.2443895464,-42.6513573954,0.5741732105,0.5738004994,1.178085054,-2.2564173637,-0.5414537116,1.5042535654,6.8899,1.7324,-0.3213,0.01945,-0.02123,0.02974,0.00122,0.00116,0.00119,0.00078,0.00081,0.00075,0.0158,0.0165,0.017,passive,1
5.1605,rehab,mild_small_fast,134.0583594178,-666.841654844,186.2633195084,-177.3976443656,0.1262327738,-150.0047944611,-18.6052,0.0378,37.0216,-2083.2477,-26.2245,4051.9611,75.7728925128,25.8990528505,80.185218279,-19.5589036586,-89.2721059713,-42.6285289426,1.9858303637,0.2418020822,1.257953241,-2.6447016694,0.6268133151,1.191700488,6.3619,1.4204,-0.2821,0.01287,-0.02039,0.02312,0.00122,0.00116,0.00119,0.00078,0.00081,0.00075,0.0158,0.0165,0.017,passive,1
