t,trajectory_type,trajectory_variant,x,y,z,rx,ry,rz,vx,vy,vz,ax,ay,az,j1,j2,j3,j4,j5,j6,dj1,dj2,dj3,dj4,dj5,dj6,fx,fy,fz,tx,ty,tz,Mx,My,Mz,Bx,By,Bz,Kx,Ky,Kz,mode,comfort
0.0006,rehab,small_fast,80.22449091612957,-666.6332753150951,262.4830649071347,-177.38934395844913,0.13297501962303995,-149.98531372305203,0.6223,0.1361,-0.7088,-20.9987,-5.1317,28.6426,84.4264032345007,30.03382692242613,85.85561166895498,-27.96629163953993,-89.09209357367621,-35.688722398546005,-0.0,-0.0,0.0008362118560488861,0.014097425672743056,-0.0,-0.0,1.5864,0.6888,2.9648,0.02331,-0.03126,-0.03467,0.0008094813674688339,0.0010025600204244256,0.0009768037125468254,0.00042057805694639683,0.0004999744705855846,0.0004168389132246375,0.011790072545409203,0.008903514593839645,0.011541634798049927,passive,1
0.0212,rehab,small_fast,80.22444005603836,-666.6331517386612,262.48395558933356,-177.38927959834234,0.13294054270220512,-149.98534542840358,0.3929,0.0837,-0.4422,-20.5976,-4.4216,25.7574,84.42639643603032,30.033752139252012,85.85560487048461,-27.966283162434895,-89.09208509657118,-35.688696967230904,0.05441495687654703,-0.0,-0.008096978215887994,0.014182196723090278,-0.0,-0.0,1.4132,0.7076,2.9941,0.00714,-0.02741,-0.03799,0.0008094813674688339,0.0010025600204244256,0.0009768037125468254,0.00042057805694639683,0.0004999744705855846,0.0004168389132246375,0.011790072545409203,0.008903514593839645,0.011541634798049927,passive,1
0.0406,rehab,small_fast,80.2242091389522,-666.6331104471881,262.4842320184728,-177.3892561020081,0.13292293726609547,-149.9853489427983,-0.0413,-0.0042,0.0478,-19.0826,-2.976,20.0118,84.4263760406192,30.033724945370512,85.85561166895498,-27.96629163953993,-89.09208509657118,-35.68871392144097,-0.05441495687654703,-0.0,-0.0007138393893100247,0.002865261501736111,-0.0,-0.06785074869791667,1.3453,0.6961,2.6401,0.00528,-0.04388,-0.031,0.0008094813674688339,0.0010025600204244256,0.0009768037125468254,0.00042057805694639683,0.0004999744705855846,0.0004168389132246375,0.011790072545409203,0.008903514593839645,0.011541634798049927,passive,1
0.0609,rehab,small_fast,80.22388367440095,-666.6330788346997,262.48462052754616,-177.3892334440901,0.1328970497501766,-149.98539335045083,-0.4884,-0.0707,0.5219,-17.667,-1.5546,15.3435,84.4263488467377,30.033690953018642,85.85561166895498,-27.96629163953993,-89.09209357367621,-35.688696967230904,-0.0,-0.0,-0.0025358294496441833,0.0031534830729166665,0.06785074869791667,-0.0,1.5419,0.7186,2.4297,0.02341,-0.02962,-0.02962,0.0008094813674688339,0.0010025600204244256,0.0009768037125468254,0.00042057805694639683,0.0004999744705855846,0.0004168389132246375,0.011790072545409203,0.008903514593839645,0.011541634798049927,passive,1
0.0807,rehab,small_fast,80.22216179589118,-666.6330962280399,262.48561395226676,-177.38916845328572,0.13285056514989807,-149.98554271820157,-0.8895,-0.1059,0.9166,-17.1164,-0.4403,13.0322,84.42619928038947,30.033602572903774,85.85561166895498,-27.966283162434895,-89.09209357367621,-35.688696967230904,-0.0,-0.05441495687654703,0.008280536915996287,-0.0031958685980902775,-0.0,-0.06785074869791667,1.739,0.7132,2.9325,0.02633,-0.03357,-0.03255,0.0008094813674688339,0.0010025600204244256,0.0009768037125468254,0.00042057805694639683,0.0004999744705855846,0.0004168389132246375,0.011790072545409203,0.008903514593839645,0.011541634798049927,passive,1
0.1009,rehab,small_fast,80.20564600904862,-666.633894814977,262.50091171604674,-177.38809435949435,0.1320729218132431,-149.98696797144433,-1.242,-0.0945,1.1968,-16.0874,0.5048,11.9523,84.42477160161084,30.03244683294013,85.85530573778813,-27.96614752875434,-89.09210205078125,-35.688696967230904,-0.16324487062964108,-0.10882991375309406,-0.03207518322633045,0.031500922309027776,-0.06785074869791667,-0.0,1.7358,0.7875,3.2547,0.02059,-0.0458,-0.0346,0.0008094813674688339,0.0010025600204244256,0.0009768037125468254,0.00042057805694639683,0.0004999744705855846,0.0004168389132246375,0.011790072545409203,0.008903514593839645,0.011541634798049927,passive,1
0.121,rehab,small_fast,80.17017582693514,-666.6369979308557,262.5352535362631,-177.38576059748996,0.1304125203829257,-149.9898826225203,-1.4842,-0.0555,1.3003,-14.2619,1.4028,11.4024,84.42171228994238,30.030046972897974,85.8542519748801,-27.96555413140191,-89.09209357367621,-35.68883260091146,-0.2176666259765625,-0.2176666259765625,-0.09101112290184096,0.06785922580295138,-0.0,-0.06785074869791667,1.5782,0.7118,2.8312,-0.01049,-0.02396,-0.03881,0.0008094813674688339,0.0010025600204244256,0.0009768037125468254,0.00042057805694639683,0.0004999744705855846,0.0004168389132246375,0.011790072545409203,0.008903514593839645,0.011541634798049927,passive,1
0.1412,rehab,small_fast,80.11203081855189,-666.641938229097,262.5940441968585,-177.38282054910107,0.12826522687299133,-149.9937478883969,-1.867,-0.0223,1.561,-16.7103,2.0245,16.3606,84.41669501880608,30.026049472317837,85.8517841301342,-27.962697347005207,-89.09210205078125,-35.68995157877604,-0.2176666259765625,-0.10882991375309406,-0.06557804523128094,0.13925340440538195,-0.0,-0.06785074869791667,1.6296,0.7238,2.79,-0.00243,-0.02483,-0.0372,0.0008094813674688339,0.0010025600204244256,0.0009768037125468254,0.00042057805694639683,0.0004999744705855846,0.0004168389132246375,0.011790072545409203,0.008903514593839645,0.011541634798049927,passive,1
0.1607,rehab,small_fast,80.07443960585111,-666.6420031223134,262.62753033693,-177.38231954932272,0.12783213106987942,-149.99472377015982,-2.1974,0.0147,1.8683,-24.1317,1.9595,27.2981,84.41341815608563,30.023500045927445,85.85028846665185,-27.959247165256077,-89.09209357367621,-35.69221496582031,-0.2176666259765625,-0.10882991375309406,-0.10726626556698639,0.2704705132378472,-0.0,-0.13570149739583334,1.6702,0.8385,2.9418,-0.01083,-0.0106,-0.0349,0.0008094813674688339,0.0010025600204244256,0.0009768037125468254,0.00042057805694639683,0.0004999744705855846,0.0004168389132246375,0.011790072545409203,0.008903514593839645,0.011541634798049927,passive,1
0.1808,rehab,small_fast,80.04278357730699,-666.6395855285003,262.6515325390908,-177.3834552297218,0.1285368811555264,-149.99411095199983,-2.6086,0.0619,2.4209,-34.4832,1.3429,41.3966,84.41063078323214,30.021467303285505,85.8488675863436,-27.954364352756077,-89.09207661946614,-35.69556342230903,-0.16324487062964108,-0.10882991375309406,-0.08529360931698639,0.3709750705295139,-0.0,-0.20355224609375,1.8073,0.7373,2.5192,0.00964,-0.0269,-0.03743,0.0008094813674688339,0.0010025600204244256,0.0009768037125468254,0.00042057805694639683,0.0004999744705855846,0.0004168389132246375,0.011790072545409203,0.008903514593839645,0.011541634798049927,passive,1
0.201,rehab,small_fast,79.98211370762033,-666.6334528973958,262.69620163779234,-177.3877299793365,0.13137298172199857,-149.99101325925153,-3.2159,0.0914,3.2612,-46.9392,0.5427,56.9605,84.40525999163637,30.017700950698096,85.84518961387106,-27.94155544704861,-89.09200032552083,-35.70389641655816,-0.2176666259765625,-0.16324487062964108,-0.1649716821047339,0.5420430501302084,-0.0,-0.339262220594618,1.6931,0.8365,2.9572,0.0021,-0.02814,-0.03411,0.0008094813674688339,0.0010025600204244256,0.0009768037125468254,0.00042057805694639683,0.0004999744705855846,0.0004168389132246375,0.011790072545409203,0.008903514593839645,0.011541634798049927,passive,1
0.221,rehab,small_fast,79.92647546216155,-666.6326884927884,262.74955076478545,-177.38942165911445,0.1325501048992088,-149.9893207693407,-4.324,0.09,4.6337,-58.2823,-0.0676,69.4224,84.40036509296682,30.013880210347693,85.84121930717241,-27.9315185546875,-89.09183078342014,-35.71037292480469,-0.3809114966062036,-0.2720815828531095,-0.2905190345084313,0.6784820556640625,-0.0,-0.4749637179904514,1.6568,0.9219,3.5298,0.01991,-0.04598,-0.03373,0.0008094813674688339,0.0010025600204244256,0.0009768037125468254,0.00042057805694639683,0.0004999744705855846,0.0004168389132246375,0.011790072545409203,0.008903514593839645,0.011541634798049927,passive,1
0.2407,rehab,small_fast,79.80699519157542,-666.632505138547,262.88363092607295,-177.39020243997635,0.13322046041682514,-149.9869268553522,-6.0992,0.0703,6.6508,-70.687,-0.5771,79.7079,84.38985465776803,30.004409941116183,85.83260564520808,-27.91204664442274,-89.09135606553819,-35.72305467393663,-0.489748208829672,-0.435333251953125,-0.3908372633528001,0.9082285563151041,-0.0,-0.6106736924913194,1.6579,0.6019,3.4698,0.01755,-0.0474,-0.04087,0.0008094813674688339,0.0010025600204244256,0.0009768037125468254,0.00042057805694639683,0.0004999744705855846,0.0004168389132246375,0.011790072545409203,0.008903514593839645,0.011541634798049927,passive,1
0.2608,rehab,small_fast,79.70334196715932,-666.6310393569611,263.00787884167875,-177.38990825380083,0.13309254455159217,-149.98523435974792,-7.5904,0.0454,8.2759,-85.5472,-1.0707,89.2384,84.3807311105256,29.99546995257387,85.8253788712001,-27.895889282226562,-89.09096611870659,-35.73368496365017,-0.5985781225827661,-0.5985781225827661,-0.4603720183419709,1.1150614420572917,-0.0,-0.7463751898871528,1.7201,0.5754,3.6171,0.0241,-0.05094,-0.04057,0.0008094813674688339,0.0010025600204244256,0.0009768037125468254,0.00042057805694639683,0.0004999744705855846,0.0004168389132246375,0.011790072545409203,0.008903514593839645,0.011541634798049927,passive,1
0.2809,rehab,small_fast,79.49630642241169,-666.6312761203014,263.24218283004524,-177.38900741114526,0.13253111067239876,-149.98349111813891,-9.4214,0.012,10.1469,-99.9086,-1.2617,96.3724,84.36255879921488,29.97878650627514,85.81163916257348,-27.86596510145399,-89.09030490451389,-35.753258599175346,-0.9250814607827971,-0.7074148348062346,-0.675713567450495,1.4303673638237846,0.06785074869791667,-0.8820851643880208,1.6272,0.7868,3.0418,0.02704,-0.03796,-0.03194,0.0008094813674688339,0.0010025600204244256,0.0009768037125468254,0.00042057805694639683,0.0004999744705855846,0.0004168389132246375,0.011790072545409203,0.008903514593839645,0.011541634798049927,passive,1
0.3009,rehab,small_fast,79.31707817936295,-666.6335366238513,263.4281504416746,-177.38854265006702,0.13222713638925693,-149.98340936974836,-11.1409,0.0027,11.7665,-112.5735,-1.0928,101.6114,84.34686113112043,29.965624667630337,85.80049646962988,-27.841771443684895,-89.08981323242188,-35.76876322428385,-1.0883331298828125,-0.87066650390625,-0.7583897656733447,1.6477796766493056,0.06785074869791667,-1.0177951388888888,1.5876,0.6556,2.9118,0.01816,-0.03404,-0.033,0.0008094813674688339,0.0010025600204244256,0.0009768037125468254,0.00042057805694639683,0.0004999744705855846,0.0004168389132246375,0.011790072545409203,0.008903514593839645,0.011541634798049927,passive,1
0.321,rehab,small_fast,78.99905761721327,-666.6315063689358,263.756474915249,-177.38816971947776,0.13196370065394245,-149.9832292735314,-13.3725,-0.0032,13.7012,-124.4041,-0.6821,107.7877,84.31896020870397,29.941707648853264,85.78175988527808,-27.798784044053818,-89.08897399902344,-35.796356201171875,-1.251584798982828,-1.0339181730062654,-0.8159864066851021,1.8998803032769096,-0.0,-1.2892066107855902,1.6245,0.841,3.6542,0.02505,-0.03426,-0.03822,0.0008094813674688339,0.0010025600204244256,0.0009768037125468254,0.00042057805694639683,0.0004999744705855846,0.0004168389132246375,0.011790072545409203,0.008903514593839645,0.011541634798049927,passive,1
0.341,rehab,small_fast,78.74773437449346,-666.6285639868437,263.99940507987185,-177.3890330251138,0.13258881091859667,-149.98326711490822,-16.4643,-0.0301,16.3555,-139.8997,0.0445,120.9681,84.29689917233911,29.923759687064898,85.76778223018835,-27.765172322591145,-89.08831278483073,-35.81799825032552,-1.4692514249593904,-1.1427480867593596,-0.9067527846534653,2.2391170925564237,0.06785074869791667,-1.4249081081814237,1.4199,0.7735,2.6954,0.01717,-0.02417,-0.02525,0.0008094813674688339,0.0010025600204244256,0.0009768037125468254,0.00042057805694639683,0.0004999744705855846,0.0004168389132246375,0.011790072545409203,0.008903514593839645,0.011541634798049927,passive,1
0.3606,rehab,small_fast,78.46763224744873,-666.6301236245029,264.2758755635685,-177.3892916780355,0.13281910790796767,-149.98334158316936,-19.3019,-0.0325,18.6897,-149.472,0.9184,131.711,84.27234989581721,29.90397613827545,85.75113957471187,-27.727711995442707,-89.08754984537761,-35.84204779730903,-1.5236663818359375,-1.305999755859375,-1.1155610037322092,2.4485100640190973,0.06785074869791667,-1.6284688313802083,1.5838,0.8156,3.5156,0.02126,-0.03108,-0.03004,0.0008094813674688339,0.0010025600204244256,0.0009768037125468254,0.00042057805694639683,0.0004999744705855846,0.0004168389132246375,0.011790072545409203,0.008903514593839645,0.011541634798049927,passive,1
0.3809,rehab,small_fast,77.9804599052192,-666.6332165072027,264.75714135796653,-177.3891990492398,0.1328044851987824,-149.98380388956087,-22.2998,-0.0126,21.25,-149.6023,1.4481,134.6814,84.22966230033647,29.86960987053295,85.72231406032449,-27.66341315375434,-89.0862528483073,-35.883543226453995,-1.9045846769125154,-1.4692514249593904,-1.242026149636448,2.95684814453125,-0.0,-1.832029554578993,1.416,0.8308,3.3402,0.00505,-0.02938,-0.03436,0.0008094813674688339,0.0010025600204244256,0.0009768037125468254,0.00042057805694639683,0.0004999744705855846,0.0004168389132246375,0.011790072545409203,0.008903514593839645,0.011541634798049927,passive,1
0.4008,rehab,small_fast,77.61552624976525,-666.6321967168838,265.10494273536654,-177.39019302175356,0.13353763882096756,-149.9836381810234,-25.429,0.0182,24.1251,-144.7874,1.4712,132.7576,84.1976551018139,29.84437394850325,85.70165350885675,-27.615373399522568,-89.0852779812283,-35.91517130533854,-2.176666259765625,-1.6325030940594059,-1.3754597276744276,3.1345876057942705,0.06785074869791667,-2.103441026475694,1.4365,0.9021,3.2597,0.01909,-0.03903,-0.02853,0.0008094813674688339,0.0010025600204244256,0.0009768037125468254,0.00042057805694639683,0.0004999744705855846,0.0004168389132246375,0.011790072545409203,0.008903514593839645,0.011541634798049927,passive,1
0.4209,rehab,small_fast,76.8812256738305,-666.6351864704146,265.7992928959581,-177.39067846003928,0.13389424106614353,-149.98364116787693,-28.3597,0.0739,27.0172,-135.6554,1.1627,126.4508,84.13330757972038,29.794527563718287,85.66022363039527,-27.521675957573784,-89.08334520128038,-35.978452894422745,-2.448754641089109,-1.9589996337890625,-1.5103685737836479,3.520075480143229,0.06785074869791667,-2.4427032470703125,1.3484,0.6183,3.6608,-0.0006,-0.03661,-0.02865,0.0008094813674688339,0.0010025600204244256,0.0009768037125468254,0.00042057805694639683,0.0004999744705855846,0.0004168389132246375,0.011790072545409203,0.008903514593839645,0.011541634798049927,passive,1
0.4409,rehab,small_fast,76.40607001851822,-666.6314821347412,266.23276958414266,-177.3915499718548,0.13457027096228164,-149.9845265531371,-31.1981,0.134,29.8556,-128.5836,0.4496,121.3893,84.09161935938467,29.762663133073563,85.63532763188428,-27.462658352322048,-89.0820821126302,-36.01858350965712,-2.557584554842203,-2.122251302889078,-1.6296069456799196,3.775338066948785,0.06785074869791667,-2.5784132215711804,1.3547,0.8496,3.9242,0.03284,-0.0436,-0.02671,0.0008094813674688339,0.0010025600204244256,0.0009768037125468254,0.00042057805694639683,0.0004999744705855846,0.0004168389132246375,0.011790072545409203,0.008903514593839645,0.011541634798049927,passive,1
0.461,rehab,small_fast,75.64684664430634,-666.627932809217,266.951897766309,-177.3912691929969,0.13436791709084786,-149.98431821793872,-33.1964,0.1299,31.6909,-120.5051,-0.4571,113.5333,84.0250283420676,29.710525663772433,85.59365300848933,-27.367299397786457,-89.08007303873698,-36.084298027886284,-2.938502849918781,-2.3943328857421875,-1.845737117351872,4.203228420681423,0.06785074869791667,-2.9176754421657987,1.3203,0.6475,3.5589,0.03102,-0.04536,-0.02692,0.0008094813674688339,0.0010025600204244256,0.0009768037125468254,0.00042057805694639683,0.0004999744705855846,0.0004168389132246375,0.011790072545409203,0.008903514593839645,0.011541634798049927,passive,1
0.481,rehab,small_fast,75.10611169117252,-666.6229427530347,267.47849754144266,-177.3903108766429,0.13364924535167647,-149.98331643874903,-35.1554,0.0709,33.3682,-111.6438,-1.1915,102.6072,83.97757501885442,29.672325058738785,85.56353578473082,-27.298804389105904,-89.07863193088107,-36.13197326660156,-2.8296661376953125,-2.503169597965656,-1.9504811504099628,4.4187672932942705,0.13570149739583334,-3.121236165364583,1.3078,0.6215,3.215,0.02821,-0.03559,-0.02801,0.0008094813674688339,0.0010025600204244256,0.0009768037125468254,0.00042057805694639683,0.0004999744705855846,0.0004168389132246375,0.011790072545409203,0.008903514593839645,0.011541634798049927,passive,1
0.5009,rehab,small_fast,74.25025974431603,-666.6188106428183,268.3170875856864,-177.38878720230292,0.13252968075019275,-149.98117944648456,-37.6985,0.0222,35.6412,-105.3172,-1.6996,93.3315,83.90249271203976,29.612294565333,85.5142604714573,-27.189195421006943,-89.07631768120659,-36.207945081922745,-3.319421144995359,-2.503169597965656,-2.1830296280360457,4.831483629014757,0.06785074869791667,-3.1890869140625,1.2596,0.6101,3.4624,0.03405,-0.03515,-0.02691,0.0008094813674688339,0.0010025600204244256,0.0009768037125468254,0.00042057805694639683,0.0004999744705855846,0.0004168389132246375,0.011790072545409203,0.008903514593839645,0.011541634798049927,passive,1
0.521,rehab,small_fast,73.63868427681874,-666.6188737007578,268.9021618085762,-177.38843123846877,0.1323133183250247,-149.9805800371051,-39.946,-0.0197,37.7242,-98.9848,-1.8087,85.6946,83.84886637772664,29.57085108993077,85.4788336423364,-27.111197577582466,-89.0746561686198,-36.261283026801216,-3.482672814095374,-2.61199951171875,-2.26340114480198,5.082753499348958,0.06785074869791667,-3.4604983859592013,1.1704,0.6436,3.8954,0.02045,-0.03561,-0.02962,0.0008094813674688339,0.0010025600204244256,0.0009768037125468254,0.00042057805694639683,0.0004999744705855846,0.0004168389132246375,0.011790072545409203,0.008903514593839645,0.011541634798049927,passive,1
0.5407,rehab,small_fast,72.66438260879285,-666.625695710708,269.8048147419328,-177.3891697311666,0.13280890350937408,-149.98038100596685,-41.8719,-0.0464,39.4454,-91.0828,-1.2281,79.8863,83.76351838064666,29.507795277208384,85.42216159329556,-26.988143920898438,-89.07212999131944,-36.345435248480904,-3.7003394400719367,-2.61199951171875,-2.396358829913753,5.17364501953125,0.06785074869791667,-3.324796888563368,1.2532,0.6264,3.9426,0.02146,-0.03479,-0.02279,0.0008094813674688339,0.0010025600204244256,0.0009768037125468254,0.00042057805694639683,0.0004999744705855846,0.0004168389132246375,0.011790072545409203,0.008903514593839645,0.011541634798049927,passive,1
0.561,rehab,small_fast,71.96852261257018,-666.6315323836778,270.42869115863454,-177.39011083835933,0.13346770895863883,-149.98179135370555,-43.3206,-0.045,40.6224,-81.0871,-0.3387,74.0479,83.70258369068108,29.464332656104965,85.38261489112779,-26.90228780110677,-89.07037523057726,-36.40398661295573,-3.918006066048499,-2.8296661376953125,-2.5354759291847153,5.538084242078993,0.13570149739583334,-3.799769083658854,1.2348,0.65,4.019,0.01823,-0.05083,-0.02514,0.0008094813674688339,0.0010025600204244256,0.0009768037125468254,0.00042057805694639683,0.0004999744705855846,0.0004168389132246375,0.011790072545409203,0.008903514593839645,0.011541634798049927,passive,1
0.5811,rehab,small_fast,70.89832044051533,-666.6291766831167,271.4296859706464,-177.3898900828729,0.1332838321758235,-149.98335032230182,-45.1355,-0.0466,42.2049,-72.1989,0.1049,68.7248,83.60875120257387,29.393941293848624,85.32109553271,-26.76802741156684,-89.06763712565105,-36.49473402235243,-3.9724210229250465,-3.2650061881188117,-2.653286622302367,5.75532701280382,0.06785074869791667,-3.799769083658854,1.2698,0.6841,3.8326,0.03927,-0.04129,-0.02542,0.0008094813674688339,0.0010025600204244256,0.0009768037125468254,0.00042057805694639683,0.0004999744705855846,0.0004168389132246375,0.011790072545409203,0.008903514593839645,0.011541634798049927,passive,1
0.6011,rehab,small_fast,69.98097390498113,-666.6265400491669,272.3126089276098,-177.38852939675843,0.13226589070552483,-149.98335194255287,-46.4193,-0.0467,43.4408,-63.3364,0.2234,63.1482,83.52830490263382,29.3323811446086,85.2665378079556,-26.65130615234375,-89.06524658203125,-36.573850843641495,-4.135672692025062,-3.2105844327718907,-2.818135931940362,5.979114108615451,0.06785074869791667,-3.9354705810546875,1.2382,0.561,3.4865,0.01908,-0.04459,-0.0276,0.0008094813674688339,0.0010025600204244256,0.0009768037125468254,0.00042057805694639683,0.0004999744705855846,0.0004168389132246375,0.011790072545409203,0.008903514593839645,0.011541634798049927,passive,1
0.6211,rehab,small_fast,69.22537144558441,-666.6242914069336,273.0322661824699,-177.3877200569652,0.1316639164405854,-149.9843828569818,-47.1442,-0.03,44.342,-49.1749,0.2851,53.4415,83.4620470103651,29.282391991945776,85.22164750807356,-26.555565728081596,-89.0633053249783,-36.6379886203342,-4.190087648901609,-3.1017545190187965,-2.85798176680461,6.158184475368923,0.13570149739583334,-4.0033213297526045,1.1127,0.6152,3.4539,0.01217,-0.04073,-0.02716,0.0008094813674688339,0.0010025600204244256,0.0009768037125468254,0.00042057805694639683,0.0004999744705855846,0.0004168389132246375,0.011790072545409203,0.008903514593839645,0.011541634798049927,passive,1
0.6412,rehab,small_fast,68.07516320197558,-666.6248337610613,274.11146011946886,-177.38866434735047,0.13233813543629316,-149.9847565624405,-48.2593,-0.0116,45.6668,-36.3466,0.2246,45.0875,83.37822866911935,29.220566702361154,85.16350698943185,-26.432630750868054,-89.06083848741319,-36.72018263075087,-4.190087648901609,-3.047339562142249,-2.9706868086711014,6.127734714084201,0.13570149739583334,-4.274732801649305,1.1932,0.4993,3.2947,0.01773,-0.03759,-0.02606,0.0008094813674688339,0.0010025600204244256,0.0009768037125468254,0.00042057805694639683,0.0004999744705855846,0.0004168389132246375,0.011790072545409203,0.008903514593839645,0.011541634798049927,passive,1
0.6609,rehab,small_fast,67.30222336157465,-666.6278278210242,274.8350440032167,-177.39003220277672,0.13334490655729314,-149.98465656457552,-49.1799,-0.0261,46.731,-24.6477,0.159,35.5598,83.30996522809019,29.17189645295096,85.11539421459236,-26.332117716471352,-89.058837890625,-36.786719428168404,-4.244502605778156,-3.1561694758953434,-2.896189170308632,6.229273478190104,0.13570149739583334,-4.342592027452257,1.1955,0.6598,4.0124,0.02784,-0.03339,-0.02435,0.0008094813674688339,0.0010025600204244256,0.0009768037125468254,0.00042057805694639683,0.0004999744705855846,0.0004168389132246375,0.011790072545409203,0.008903514593839645,0.011541634798049927,passive,1
0.6807,rehab,small_fast,66.1276136047383,-666.63358728094,275.94048166687094,-177.39164266487356,0.13452346311111937,-149.98426554351647,-49.9986,-0.0406,47.6672,-13.9577,0.2324,24.9373,83.20775702448175,29.09800387845181,85.04146764774134,-26.178919474283852,-89.05579460991753,-36.88794453938802,-4.462176030225093,-3.2650061881188117,-3.2076474935701578,6.452857123480903,0.13570149739583334,-4.139031304253472,1.0468,0.5683,3.2838,0.02171,-0.05162,-0.02102,0.0008094813674688339,0.0010025600204244256,0.0009768037125468254,0.00042057805694639683,0.0004999744705855846,0.0004168389132246375,0.011790072545409203,0.008903514593839645,0.011541634798049927,passive,1
0.7008,rehab,small_fast,65.33025497399495,-666.6339538369842,276.7007561034151,-177.3919145853916,0.13479189764154229,-149.9846399749044,-49.3474,-0.0244,47.3082,-7.9145,0.3103,17.6629,83.13812709090733,29.047579623685024,84.99066267863358,-26.074981689453125,-89.05373467339409,-36.956371731228295,-4.4077542748781715,-3.1561694758953434,-3.231244984239635,6.6813405354817705,0.20355224609375,-4.274732801649305,1.2343,0.5939,3.7107,0.04442,-0.04364,-0.02792,0.0008094813674688339,0.0010025600204244256,0.0009768037125468254,0.00042057805694639683,0.0004999744705855846,0.0004168389132246375,0.011790072545409203,0.008903514593839645,0.011541634798049927,passive,1
0.7209,rehab,small_fast,64.1190523412801,-666.630579571539,277.8743501280173,-177.39082128663662,0.13403055960360782,-149.98670240452262,-49.0,-0.0133,47.2148,-0.0264,0.2333,7.6408,83.03251285364132,28.969043693920174,84.91321450412863,-25.917137993706596,-89.05060662163628,-37.058495415581596,-4.516590987101639,-3.319421144995359,-3.3108006845606437,6.506110297309028,0.06785074869791667,-4.410442776150173,1.2405,0.5573,4.0785,0.03668,-0.03158,-0.02324,0.0008094813674688339,0.0010025600204244256,0.0009768037125468254,0.00042057805694639683,0.0004999744705855846,0.0004168389132246375,0.011790072545409203,0.008903514593839645,0.011541634798049927,passive,1
0.7406,rehab,small_fast,63.312296127871775,-666.6267509801869,278.66331485657577,-177.38961049916998,0.13308816548830407,-149.9873185353862,-49.7428,-0.0138,47.9711,4.2411,0.0637,-0.1636,82.94371123361115,28.90321410528504,84.84774523442334,-25.785259670681423,-89.0480465359158,-37.14463975694444,-4.462176030225093,-3.2650061881188117,-3.2974416902749843,6.684748331705729,0.13570149739583334,-4.139031304253472,1.0278,0.4872,3.1736,0.02022,-0.03421,-0.02369,0.0008094813674688339,0.0010025600204244256,0.0009768037125468254,0.00042057805694639683,0.0004999744705855846,0.0004168389132246375,0.011790072545409203,0.008903514593839645,0.011541634798049927,passive,1
0.7606,rehab,small_fast,62.109604618070655,-666.6292304455866,279.8284894864946,-177.38912438634947,0.13272968078770572,-149.9874531457515,-49.3865,-0.0024,47.6296,-3.623,-0.2365,0.4748,82.85584780249265,28.839464848584466,84.78055595171334,-25.65272013346354,-89.0454610188802,-37.23065694173177,-4.4077542748781715,-3.1017545190187965,-3.3435489163540377,6.733449300130208,0.13570149739583334,-4.206882052951388,1.1256,0.468,2.8818,0.02777,-0.03882,-0.02073,0.0008094813674688339,0.0010025600204244256,0.0009768037125468254,0.00042057805694639683,0.0004999744705855846,0.0004168389132246375,0.011790072545409203,0.008903514593839645,0.011541634798049927,passive,1
0.7809,rehab,small_fast,61.31210254585245,-666.6297481739418,280.59386493568405,-177.38987341567514,0.13334921212029752,-149.9869264489404,-49.7593,0.008,47.9875,-18.5716,-0.6692,5.6207,82.7859119377514,28.789509688273515,84.72707918374846,-25.546171400282116,-89.04335869683159,-37.299889458550346,-4.516590987101639,-3.047339562142249,-3.402974345896504,6.768612331814236,0.13570149739583334,-4.274732801649305,1.2126,0.5103,2.9473,0.03269,-0.04771,-0.02099,0.0008094813674688339,0.0010025600204244256,0.0009768037125468254,0.00042057805694639683,0.0004999744705855846,0.0004168389132246375,0.011790072545409203,0.008903514593839645,0.011541634798049927,passive,1
0.8007,rehab,small_fast,60.51079975930797,-666.6322890598359,281.35528996497453,-177.39037337250952,0.13371469833557265,-149.98712688533348,-49.7013,-0.018,47.6314,-18.2057,-0.7195,-3.4816,82.71548658314317,28.740309158174117,84.67318770909073,-25.44009738498264,-89.04129028320312,-37.36881679958767,-4.353339318001624,-2.884087893042234,-3.3850127871673887,6.724056667751736,0.06785074869791667,-4.410442776150173,1.0237,0.5948,3.4207,0.02718,-0.03929,-0.02329,0.0008094813674688339,0.0010025600204244256,0.0009768037125468254,0.00042057805694639683,0.0004999744705855846,0.0004168389132246375,0.011790072545409203,0.008903514593839645,0.011541634798049927,passive,1
0.8211,rehab,small_fast,59.093912996672316,-666.6355212905202,282.68729044648137,-177.3904440714816,0.13374879643360996,-149.988392347332,-49.925,-0.0595,47.2904,-5.5445,-0.2622,-25.8107,82.59148248351447,28.654804796275524,84.57841023360149,-25.256220499674477,-89.03770446777344,-37.48989529079861,-4.625420900854734,-3.047339562142249,-3.371409047948252,6.460579766167535,0.13570149739583334,-4.206882052951388,1.1006,0.5199,3.6829,0.03094,-0.05794,-0.02603,0.0008094813674688339,0.0010025600204244256,0.0009768037125468254,0.00042057805694639683,0.0004999744705855846,0.0004168389132246375,0.011790072545409203,0.008903514593839645,0.011541634798049927,passive,1
0.8409,rehab,small_fast,58.301002205857266,-666.6339344908785,283.4473143565853,-177.38960789486322,0.1331170350172963,-149.98764352731865,-50.7669,-0.0746,47.2846,1.075,0.2073,-43.2246,82.50457083824837,28.59355057820235,84.51166285146581,-25.126724243164062,-89.03511895073784,-37.57597181532118,-4.244502605778156,-3.2105844327718907,-3.2892903242961014,6.538603040907118,0.13570149739583334,-4.274732801649305,1.2512,0.4968,3.6131,0.04945,-0.04882,-0.02275,0.0008094813674688339,0.0010025600204244256,0.0009768037125468254,0.00042057805694639683,0.0004999744705855846,0.0004168389132246375,0.011790072545409203,0.008903514593839645,0.011541634798049927,passive,1
0.8609,rehab,small_fast,57.13094324284221,-666.6295411682956,284.5577318020801,-177.3887336675045,0.1324959582859386,-149.9844847559429,-51.6075,-0.0699,47.0069,6.1601,0.6225,-59.2973,82.40196832335822,28.522295810208462,84.43316091405283,-24.97494167751736,-89.03194851345486,-37.68000284830729,-4.190087648901609,-2.7752511808187657,-3.2576910339959775,6.061011420355903,0.13570149739583334,-4.274732801649305,1.0478,0.6565,3.9738,0.03284,-0.03893,-0.0237,0.0008094813674688339,0.0010025600204244256,0.0009768037125468254,0.00042057805694639683,0.0004999744705855846,0.0004168389132246375,0.011790072545409203,0.008903514593839645,0.011541634798049927,passive,1
0.8807,rehab,small_fast,56.34126149966416,-666.6311431427479,285.2696872614827,-177.3891672589692,0.13283084065065504,-149.9835834933303,-50.5307,-0.0346,45.0809,9.4316,1.0978,-70.2974,82.35025235922029,28.48815389198832,84.39428046198175,-24.90027533637153,-89.03038872612846,-37.73184034559462,-4.190087648901609,-2.7752511808187657,-3.207994215559251,6.193873087565104,0.06785074869791667,-4.274732801649305,1.1181,0.5524,3.1224,0.03567,-0.05037,-0.02038,0.0008094813674688339,0.0010025600204244256,0.0009768037125468254,0.00042057805694639683,0.0004999744705855846,0.0004168389132246375,0.011790072545409203,0.008903514593839645,0.011541634798049927,passive,1
0.9011,rehab,small_fast,55.133437782804506,-666.6383188051005,286.3105454330826,-177.38951168182976,0.13309947847580253,-149.98413233210553,-48.8694,0.03,42.1191,10.5841,1.3791,-78.5607,82.24456333878017,28.42243987734955,84.31785205803295,-24.75401136610243,-89.02726067437065,-37.835396660698784,-4.190087648901609,-2.7208362239422184,-3.2002031685102104,5.946036444769965,0.13570149739583334,-4.47829352484809,1.1573,0.5238,3.4114,0.03621,-0.042,-0.02357,0.0008094813674688339,0.0010025600204244256,0.0009768037125468254,0.00042057805694639683,0.0004999744705855846,0.0004168389132246375,0.011790072545409203,0.008903514593839645,0.011541634798049927,passive,1
0.9208,rehab,small_fast,54.32784379106188,-666.6400638343229,286.9806198779813,-177.39006078175882,0.1335208910968997,-149.98470235355808,-49.4022,0.0568,41.0853,10.336,1.0676,-85.6166,82.17416517805344,28.37979987116143,84.26853595393719,-24.659703572591145,-89.02517530653212,-37.90433247884115,-4.516590987101639,-2.61199951171875,-2.9990432286026456,5.78291998969184,0.13570149739583334,-4.071180555555555,1.2421,0.553,3.6033,0.04908,-0.06014,-0.02412,0.0008094813674688339,0.0010025600204244256,0.0009768037125468254,0.00042057805694639683,0.0004999744705855846,0.0004168389132246375,0.011790072545409203,0.008903514593839645,0.011541634798049927,passive,1
0.9408,rehab,small_fast,53.1236785173679,-666.6376378767683,287.96057471907926,-177.39002033799915,0.13353548483710154,-149.98498613485825,-49.3342,0.0485,39.4583,6.1185,0.2338,-86.2077,82.06853734384669,28.31702959419477,84.19790664521774,-24.52299329969618,-89.0220218234592,-38.007820977105034,-4.298924361125077,-2.61199951171875,-2.9143274892674813,5.463833279079861,0.13570149739583334,-4.342592027452257,1.0463,0.3918,3.1155,0.02773,-0.04746,-0.02071,0.0008094813674688339,0.0010025600204244256,0.0009768037125468254,0.00042057805694639683,0.0004999744705855846,0.0004168389132246375,0.011790072545409203,0.008903514593839645,0.011541634798049927,passive,1
0.9611,rehab,small_fast,52.33566761715475,-666.6316903237441,288.5851605702084,-177.3902110413565,0.13370632914100233,-149.98420465309167,-49.8243,0.047,38.3068,-5.9306,-0.7879,-80.6198,81.98197921904007,28.266360594494508,84.14241753002204,-24.413969251844616,-89.01933458116319,-38.0938720703125,-4.244502605778156,-2.503169597965656,-2.7148807638942607,5.352020263671875,0.13570149739583334,-4.139031304253472,1.0312,0.3217,3.7797,0.03397,-0.04752,-0.0245,0.0008094813674688339,0.0010025600204244256,0.0009768037125468254,0.00042057805694639683,0.0004999744705855846,0.0004168389132246375,0.011790072545409203,0.008903514593839645,0.011541634798049927,passive,1
0.9808,rehab,small_fast,51.35051837699792,-666.6262518308032,289.3437355450628,-177.38956444083757,0.13322375384913246,-149.9836722725219,-50.0112,0.0406,36.8882,-18.2923,-1.3724,-71.958,81.91296794626972,28.22711982349358,84.09955997278195,-24.33028327094184,-89.01721530490451,-38.162222968207466,-4.298924361125077,-2.448754641089109,-2.565572757532101,5.168863932291667,0.06785074869791667,-4.274732801649305,0.9952,0.4365,3.732,0.03954,-0.03677,-0.02296,0.0008094813674688339,0.0010025600204244256,0.0009768037125468254,0.00042057805694639683,0.0004999744705855846,0.0004168389132246375,0.011790072545409203,0.008903514593839645,0.011541634798049927,passive,1
1.001,rehab,small_fast,50.155933504913705,-666.6261323820105,290.20757558898026,-177.38888264630177,0.13260830777730132,-149.98341091135327,-50.2201,0.0021,35.1861,-20.1917,-0.9869,-68.6889,81.80827150250425,28.171331575601407,84.03780946637144,-24.21076456705729,-89.0140872531467,-38.26566060384115,-4.516590987101639,-2.2855029719890934,-2.4639220284943533,4.83261956108941,0.06785074869791667,-4.206882052951388,1.013,0.3994,3.4632,0.03648,-0.03814,-0.01594,0.0008094813674688339,0.0010025600204244256,0.0009768037125468254,0.00042057805694639683,0.0004999744705855846,0.0004168389132246375,0.011790072545409203,0.008903514593839645,0.011541634798049927,passive,1
1.0207,rehab,small_fast,49.34947629276775,-666.6316409573321,290.75616098464536,-177.3884154488585,0.13222439117426715,-149.98383438009213,-50.3971,-0.0382,33.6348,-16.4379,0.1512,-63.9558,81.72060522702661,28.12780776826462,83.98780671676786,-24.11535474989149,-89.01140848795573,-38.35219489203559,-4.353339318001624,-2.122251302889078,-2.3636241950611074,4.561352199978298,0.13570149739583334,-4.47829352484809,0.8996,0.2673,3.342,0.03035,-0.05491,-0.02173,0.0008094813674688339,0.0010025600204244256,0.0009768037125468254,0.00042057805694639683,0.0004999744705855846,0.0004168389132246375,0.011790072545409203,0.008903514593839645,0.011541634798049927,passive,1
1.041,rehab,small_fast,48.146473377216836,-666.6355896953515,291.5384301954542,-177.38834363149115,0.13215072341516934,-149.98381649116206,-50.2979,-0.0599,31.977,-2.7156,1.3866,-58.7103,81.61539889798306,28.078056562064898,83.93148818818649,-24.006245930989582,-89.0081787109375,-38.45616658528646,-4.462176030225093,-2.0134145906656093,-2.2048799118193068,4.328316582573785,0.13570149739583334,-4.274732801649305,0.7808,0.26,2.7766,0.02718,-0.04331,-0.01999,0.0008094813674688339,0.0010025600204244256,0.0009768037125468254,0.00042057805694639683,0.0004999744705855846,0.0004168389132246375,0.011790072545409203,0.008903514593839645,0.011541634798049927,passive,1
1.0611,rehab,small_fast,47.334658536382136,-666.637425732957,292.03495983354054,-177.38880343844255,0.1325214650993283,-149.9847841678563,-51.0208,-0.0266,31.2951,15.3018,2.1679,-55.2938,81.54440927033377,28.04626691459429,83.8958234126025,-23.936106363932293,-89.00600857204861,-38.525382147894966,-4.462176030225093,-2.067836346012531,-2.3335817544767172,4.280615912543403,0.13570149739583334,-4.47829352484809,0.7079,0.3489,2.652,0.03149,-0.04073,-0.0138,0.0008094813674688339,0.0010025600204244256,0.0009768037125468254,0.00042057805694639683,0.0004999744705855846,0.0004168389132246375,0.011790072545409203,0.008903514593839645,0.011541634798049927,passive,1
1.0811,rehab,small_fast,46.11965716767863,-666.6352118163612,292.7518523575646,-177.390388366149,0.1337734832293145,-149.98604405763797,-51.235,0.0696,30.6094,22.7878,2.2486,-45.1135,81.43811518603032,27.99985375734839,83.84471251232789,-23.833414713541668,-89.00276184082031,-38.629235161675346,-4.516590987101639,-1.9045846769125154,-2.156386422638846,4.169404771592882,0.13570149739583334,-4.342592027452257,0.6345,0.2118,2.9873,0.02664,-0.0421,-0.01432,0.0008094813674688339,0.0010025600204244256,0.0009768037125468254,0.00042057805694639683,0.0004999744705855846,0.0004168389132246375,0.011790072545409203,0.008903514593839645,0.011541634798049927,passive,1
1.1009,rehab,small_fast,45.31053476494267,-666.6305383356813,293.2316232000563,-177.39072304146035,0.13399980869037603,-149.98688417143566,-50.7179,0.1683,30.1162,20.7993,1.4896,-33.2953,81.36730231861077,27.968546801274364,83.81125723961556,-23.766148885091145,-89.00062561035156,-38.698433770073784,-4.625420900854734,-1.9045846769125154,-2.0086760568146658,4.138607449001736,0.06785074869791667,-4.410442776150173,0.6301,0.2307,2.7813,0.0304,-0.0453,-0.0167,0.0008094813674688339,0.0010025600204244256,0.0009768037125468254,0.00042057805694639683,0.0004999744705855846,0.0004168389132246375,0.011790072545409203,0.008903514593839645,0.011541634798049927,passive,1
1.1206,rehab,small_fast,44.09964978234465,-666.6267100584928,293.9494597057247,-177.38998121789302,0.13334922498420246,-149.9874825024133,-48.9961,0.2155,29.004,16.7437,0.2654,-24.4824,81.26138215017791,27.922276411906328,83.76086697720065,-23.667305840386284,-88.99740431043837,-38.80261739095052,-4.625420900854734,-1.9589996337890625,-2.1159695162631498,4.020131429036458,0.13570149739583334,-4.274732801649305,0.8098,0.2486,3.2069,0.03505,-0.0378,-0.01669,0.0008094813674688339,0.0010025600204244256,0.0009768037125468254,0.00042057805694639683,0.0004999744705855846,0.0004168389132246375,0.011790072545409203,0.008903514593839645,0.011541634798049927,passive,1
1.1406,rehab,small_fast,43.289604156802355,-666.6243606598588,294.42769777208804,-177.38885150804197,0.13246238404052696,-149.98858529280687,-47.5533,0.1825,27.9166,15.8188,-1.0285,-20.8409,81.19053529040649,27.89158811663637,83.72737091366608,-23.60245598687066,-88.99522569444444,-38.871612548828125,-4.4077542748781715,-1.9589996337890625,-2.1236381908454516,4.0619659423828125,0.13570149739583334,-4.274732801649305,0.4595,0.2898,2.9302,0.02811,-0.04165,-0.01566,0.0008094813674688339,0.0010025600204244256,0.0009768037125468254,0.00042057805694639683,0.0004999744705855846,0.0004168389132246375,0.011790072545409203,0.008903514593839645,0.011541634798049927,passive,1
1.161,rehab,small_fast,42.10902993457088,-666.6173472038272,295.1393886383833,-177.38718891466894,0.1311964021059913,-149.98693925423083,-48.4061,0.0939,28.118,4.1726,-2.1026,-13.2187,81.08721893612702,27.846024768187267,83.677340970181,-23.505783081054688,-88.99191114637587,-38.97545708550347,-4.4077542748781715,-1.7413330078125,-2.113603648572865,4.044155544704861,0.20355224609375,-4.410442776150173,0.5619,0.1864,3.0343,0.01307,-0.04294,-0.01687,0.0008094813674688339,0.0010025600204244256,0.0009768037125468254,0.00042057805694639683,0.0004999744705855846,0.0004168389132246375,0.011790072545409203,0.008903514593839645,0.011541634798049927,passive,1
1.1808,rehab,small_fast,41.32653034399221,-666.6165765102457,295.6022540894787,-177.38687369177282,0.13093086285842506,-149.98557932033896,-49.6513,-0.0028,28.4336,-21.7286,-2.2946,3.3018,81.01880592874961,27.817097276744274,83.64332822289798,-23.44114515516493,-88.98975796169705,-39.044486151801216,-4.353339318001624,-1.9045846769125154,-2.1273093648476173,4.094814724392361,0.13570149739583334,-4.47829352484809,0.7421,0.133,2.445,0.03582,-0.04942,-0.01259,0.0008094813674688339,0.0010025600204244256,0.0009768037125468254,0.00042057805694639683,0.0004999744705855846,0.0004168389132246375,0.011790072545409203,0.008903514593839645,0.011541634798049927,passive,1
1.2007,rehab,small_fast,40.526864851519306,-666.6166536761784,296.05364118324786,-177.38761794857606,0.1315824849383117,-149.98522067176424,-50.1521,-0.0452,28.4242,-43.9381,-1.4996,20.7933,80.9489108548306,27.78904678797958,83.60939025878906,-23.376040988498264,-88.98754543728299,-39.113989935980904,-4.462176030225093,-1.7413330078125,-2.1522597511215964,4.136928982204861,0.13570149739583334,-4.342592027452257,0.4378,0.0958,2.6276,0.01806,-0.04526,-0.0093,0.0008094813674688339,0.0010025600204244256,0.0009768037125468254,0.00042057805694639683,0.0004999744705855846,0.0004168389132246375,0.011790072545409203,0.008903514593839645,0.011541634798049927,passive,1
1.2206,rehab,small_fast,39.30988684221291,-666.6198605000948,296.72331255030866,-177.3895591451217,0.133142324234285,-149.9866195308754,-49.8848,-0.0257,28.2479,-38.9872,-0.2289,25.5302,80.84262356899752,27.748058810092434,83.55768109312152,-23.277672661675346,-88.9843241373698,-39.217749701605904,-4.462176030225093,-1.686918050935953,-2.176557484239635,3.985315958658854,0.20355224609375,-4.342592027452257,0.3693,0.2006,3.0951,0.02043,-0.02888,-0.01503,0.0008094813674688339,0.0010025600204244256,0.0009768037125468254,0.00042057805694639683,0.0004999744705855846,0.0004168389132246375,0.011790072545409203,0.008903514593839645,0.011541634798049927,passive,1
1.2412,rehab,small_fast,38.29190157773945,-666.6250354835427,297.2806078271964,-177.39101166351088,0.134264761067102,-149.98890654230897,-50.4975,-0.0086,28.7441,-8.7544,0.8584,15.0529,80.75378115814512,27.714521955735613,83.5138445561475,-23.19583468967014,-88.98171318901909,-39.303368462456596,-4.516590987101639,-1.6325030940594059,-2.213405193668781,4.11332024468316,0.13570149739583334,-4.342592027452257,0.4136,-0.0532,2.4994,0.01518,-0.0499,-0.01168,0.0008094813674688339,0.0010025600204244256,0.0009768037125468254,0.00042057805694639683,0.0004999744705855846,0.0004168389132246375,0.011790072545409203,0.008903514593839645,0.011541634798049927,passive,1
1.2611,rehab,small_fast,37.09088494286286,-666.6258363353968,297.9704155955599,-177.39107112758163,0.13430019005235863,-149.98904985376535,-52.2222,0.0292,30.0809,16.2928,1.0997,3.5728,80.64888755873878,27.672840533870282,83.4606941147606,-23.097746107313366,-88.97850884331596,-39.40699259440104,-4.4077542748781715,-1.795747964689047,-2.1873942460163986,4.104910956488715,0.13570149739583334,-4.206882052951388,0.403,0.1072,3.0097,0.01464,-0.03655,-0.01385,0.0008094813674688339,0.0010025600204244256,0.0009768037125468254,0.00042057805694639683,0.0004999744705855846,0.0004168389132246375,0.011790072545409203,0.008903514593839645,0.011541634798049927,passive,1
1.2807,rehab,small_fast,36.30308662467444,-666.6224994858254,298.4321607865901,-177.39098875084318,0.13431663981962025,-149.98789782392942,-52.1863,0.066,30.4916,29.3707,0.3479,-6.8553,80.5800190538463,27.64476964969446,83.42543724739906,-23.032336764865452,-88.9762963189019,-39.476259019639755,-4.190087648901609,-1.795747964689047,-2.270852268332302,4.010365804036458,0.13570149739583334,-4.206882052951388,0.4122,0.0212,2.6065,0.02537,-0.04327,-0.01354,0.0008094813674688339,0.0010025600204244256,0.0009768037125468254,0.00042057805694639683,0.0004999744705855846,0.0004168389132246375,0.011790072545409203,0.008903514593839645,0.011541634798049927,passive,1
1.3008,rehab,small_fast,35.12429665722284,-666.6141654189234,299.14472578383516,-177.389601085736,0.13322100545553592,-149.986134518844,-50.3501,0.0665,29.7073,33.7889,-0.8815,-17.6404,80.47694744450031,27.601436199528155,83.37170893603032,-22.933841281467014,-88.97304958767361,-39.57995944552951,-4.353339318001624,-1.686918050935953,-2.300282846582998,4.0802256266276045,0.06785074869791667,-4.206882052951388,0.445,0.118,2.7252,0.00916,-0.04466,-0.00939,0.0008094813674688339,0.0010025600204244256,0.0009768037125468254,0.00042057805694639683,0.0004999744705855846,0.0004168389132246375,0.011790072545409203,0.008903514593839645,0.011541634798049927,passive,1
1.3209,rehab,small_fast,34.340876084058024,-666.6131738373624,299.6170417131942,-177.38859758113523,0.1323502576794403,-149.98525032367857,-47.6282,0.0411,28.1507,38.0566,-1.6364,-29.6584,80.40853443712291,27.573494486289448,83.33492241283454,-22.868321736653645,-88.97096421983507,-39.64850531684028,-4.190087648901609,-1.6325030940594059,-2.2806556626121597,4.0298207600911455,0.20355224609375,-4.342592027452257,0.206,0.0021,3.227,0.00184,-0.0323,-0.01525,0.0008094813674688339,0.0010025600204244256,0.0009768037125468254,0.00042057805694639683,0.0004999744705855846,0.0004168389132246375,0.011790072545409203,0.008903514593839645,0.011541634798049927,passive,1
1.3411,rehab,small_fast,33.16752133649594,-666.615897439975,300.3029765589609,-177.38808013254388,0.13182408518901242,-149.98415391427136,-47.3391,-0.0248,27.5793,45.4199,-1.8947,-42.5905,80.3061562717551,27.533703039188197,83.27980721350944,-22.77097913953993,-88.96787855360243,-39.750866360134545,-4.244502605778156,-1.5780813387124846,-2.3359068313447557,4.070832994249132,0.20355224609375,-4.410442776150173,0.2596,0.0374,2.9438,0.01845,-0.03628,-0.01322,0.0008094813674688339,0.0010025600204244256,0.0009768037125468254,0.00042057805694639683,0.0004999744705855846,0.0004168389132246375,0.011790072545409203,0.008903514593839645,0.011541634798049927,passive,1
1.3606,rehab,small_fast,32.395598033424285,-666.6169466835497,300.74829782486603,-177.3881205378639,0.13195622136862295,-149.98320125702438,-47.4318,-0.0922,27.0484,40.621,-1.6336,-44.8026,80.23878343034498,27.50799802270266,83.24361215723623,-22.706866794162327,-88.96571689181857,-39.818454318576386,-4.135672692025062,-1.5780813387124846,-2.3160892902034345,3.954679701063368,0.13570149739583334,-4.206882052951388,0.2666,0.0018,2.1107,0.0296,-0.04092,-0.01219,0.0008094813674688339,0.0010025600204244256,0.0009768037125468254,0.00042057805694639683,0.0004999744705855846,0.0004168389132246375,0.011790072545409203,0.008903514593839645,0.011541634798049927,passive,1
1.3811,rehab,small_fast,31.241849611268467,-666.6226889289469,301.39009134457507,-177.38903280629532,0.13276403295217495,-149.98267026120308,-47.0289,-0.1437,26.1731,28.3969,-0.7509,-38.6396,80.13818646421527,27.471694190903467,83.1898838458675,-22.612508138020832,-88.9625973171658,-39.91850111219618,-4.298924361125077,-1.4148296696124691,-2.319386548335009,3.8704850938585067,0.13570149739583334,-4.274732801649305,0.2913,-0.1746,2.1569,0.02185,-0.04771,-0.00489,0.0008094813674688339,0.0010025600204244256,0.0009768037125468254,0.00042057805694639683,0.0004999744705855846,0.0004168389132246375,0.011790072545409203,0.008903514593839645,0.011541634798049927,passive,1
1.4007,rehab,small_fast,30.4800844889997,-666.6244970552281,301.81029298794624,-177.38956704614094,0.1331322291339717,-149.98358380560387,-47.1861,-0.1254,25.829,24.0422,0.2246,-33.6167,80.07177220712794,27.447824761419014,83.15493970814317,-22.55103217230903,-88.96066453721788,-39.983300103081596,-4.190087648901609,-1.4692514249593904,-2.103786657352259,3.706224229600694,0.13570149739583334,-4.139031304253472,0.1695,-0.0521,2.589,0.02469,-0.04314,-0.00498,0.0008094813674688339,0.0010025600204244256,0.0009768037125468254,0.00042057805694639683,0.0004999744705855846,0.0004168389132246375,0.011790072545409203,0.008903514593839645,0.011541634798049927,passive,1
1.4206,rehab,small_fast,29.729514700407655,-666.6269802197259,302.21023156920324,-177.39045167877057,0.1339115426832493,-149.98477812176276,-45.6827,-0.076,24.7186,38.3502,1.1266,-38.6883,80.0063437282449,27.425281033657566,83.12119210120476,-22.49158223470052,-88.95868089463976,-40.04685295952691,-4.135672692025062,-1.4148296696124691,-2.081718822517017,3.6990102132161455,0.13570149739583334,-4.0033213297526045,0.1996,-0.0991,1.9527,0.02051,-0.0466,-0.00306,0.0008094813674688339,0.0010025600204244256,0.0009768037125468254,0.00042057805694639683,0.0004999744705855846,0.0004168389132246375,0.011790072545409203,0.008903514593839645,0.011541634798049927,passive,1
1.4407,rehab,small_fast,28.46446576889246,-666.6264682110068,302.89092001465724,-177.3909820348834,0.1344547925153357,-149.98586184584633,-44.4195,-0.0457,23.8035,64.2551,1.5663,-53.2675,79.89601135253906,27.386570543345837,83.06476479709738,-22.392315334743923,-88.95528157552083,-40.15496148003472,-3.8635911091719524,-1.360414712735922,-2.0046173700011605,3.33815680609809,0.13570149739583334,-3.7319098578559027,-0.0395,-0.1061,2.7579,0.00769,-0.04191,-0.00533,0.0008094813674688339,0.0010025600204244256,0.0009768037125468254,0.00042057805694639683,0.0004999744705855846,0.0004168389132246375,0.011790072545409203,0.008903514593839645,0.011541634798049927,passive,1
1.4607,rehab,small_fast,27.770450027191995,-666.626576650899,303.260099847335,-177.3909976160117,0.13448854564464896,-149.98618645451722,-43.144,-0.0005,22.8439,83.1686,1.4043,-66.5468,79.83550496620707,27.365726433177986,83.0340561064163,-22.3388671875,-88.95343356662326,-40.214530097113716,-3.754754396948484,-1.251584798982828,-1.8871941896948483,3.2311248779296875,0.06785074869791667,-3.596208360460069,0.098,-0.1752,2.6735,0.02368,-0.04682,0.0006,0.0008094813674688339,0.0010025600204244256,0.0009768037125468254,0.00042057805694639683,0.0004999744705855846,0.0004168389132246375,0.011790072545409203,0.008903514593839645,0.011541634798049927,passive,1
1.4807,rehab,small_fast,26.774168735031527,-666.6271271165422,303.79055998861395,-177.39020518135987,0.13371380295503502,-149.98558847736138,-41.7078,0.0173,21.6752,99.2754,1.0123,-81.4521,79.74868170105584,27.335928737527073,82.99010399544593,-22.263514200846355,-88.95084804958768,-40.30108981662326,-3.428251058748453,-1.1971630436359066,-1.6989989327912283,3.05619133843316,0.06785074869791667,-3.528349134657118,0.1075,-0.1044,2.7748,0.03632,-0.03656,-0.00282,0.0008094813674688339,0.0010025600204244256,0.0009768037125468254,0.00042057805694639683,0.0004999744705855846,0.0004168389132246375,0.011790072545409203,0.008903514593839645,0.011541634798049927,passive,1
1.5007,rehab,small_fast,26.146073401673412,-666.6250287076386,304.11550460851447,-177.38974763946044,0.13337592398463927,-149.98582427013477,-39.9272,0.0179,20.0469,110.9529,0.6592,-96.1403,79.69390642524945,27.317416502697633,82.9635491701636,-22.217322455512154,-88.94914415147569,-40.35509745279948,-3.428251058748453,-1.0883331298828125,-1.59647799954556,2.8015814887152777,0.13570149739583334,-3.1890869140625,0.1206,-0.109,2.3492,0.01341,-0.03368,-0.00283,0.0008094813674688339,0.0010025600204244256,0.0009768037125468254,0.00042057805694639683,0.0004999744705855846,0.0004168389132246375,0.011790072545409203,0.008903514593839645,0.011541634798049927,passive,1
1.5209,rehab,small_fast,25.247286128221297,-666.6282312291858,304.5592915807861,-177.38870990546178,0.13254482546576718,-149.98591830167655,-36.6535,0.0217,17.1877,120.1601,0.3216,-110.4591,79.61564243429959,27.29283323382387,82.92634114180461,-22.154430813259548,-88.94671122233073,-40.4325442843967,-3.319421144995359,-0.979496417659344,-1.394461452370823,2.4518246120876737,-0.0,-3.2569376627604165,-0.0461,-0.1124,2.3543,0.00694,-0.04053,-0.00024,0.0008094813674688339,0.0010025600204244256,0.0009768037125468254,0.00042057805694639683,0.0004999744705855846,0.0004168389132246375,0.011790072545409203,0.008903514593839645,0.011541634798049927,passive,1
1.5409,rehab,small_fast,24.67266639502569,-666.6244068230873,304.8218874547325,-177.3884421098266,0.13233720334898538,-149.98701522743417,-34.0912,0.0035,14.9254,131.0233,-0.18,-124.32,79.56553090917002,27.27750268312964,82.90538145764039,-22.116953531901043,-88.94518534342448,-40.48112657335069,-2.992917806795328,-0.9250814607827971,-1.2115078161258508,2.20672607421875,0.06785074869791667,-2.9176754421657987,-0.0823,-0.1613,2.2744,-0.00445,-0.03794,-0.00867,0.0008094813674688339,0.0010025600204244256,0.0009768037125468254,0.00042057805694639683,0.0004999744705855846,0.0004168389132246375,0.011790072545409203,0.008903514593839645,0.011541634798049927,passive,1
1.5607,rehab,small_fast,23.85998542664806,-666.6250806681637,305.1663243690335,-177.38738100899639,0.13139110051224034,-149.98912500070827,-31.7085,0.0228,12.645,137.6976,-0.514,-130.6846,79.49478602645421,27.257875499158803,82.87743294593132,-22.06865946451823,-88.9430914984809,-40.549206203884545,-2.7752511808187657,-0.7618297916827815,-1.0524983925394493,1.8255615234375,0.06785074869791667,-2.714114718967014,-0.0777,-0.1056,2.27,0.00744,-0.034,-0.00058,0.0008094813674688339,0.0010025600204244256,0.0009768037125468254,0.00042057805694639683,0.0004999744705855846,0.0004168389132246375,0.011790072545409203,0.008903514593839645,0.011541634798049927,passive,1
1.5807,rehab,small_fast,23.358732981447332,-666.6259486408698,305.34322418552097,-177.38769590781033,0.13163442861252403,-149.99005240706822,-28.8454,0.0464,9.9288,139.4492,-0.565,-127.5503,79.45116704053218,27.247704987478727,82.86274145145228,-22.042066786024304,-88.94177754720052,-40.59159172905816,-2.6664212670656715,-0.544163165706219,-0.8275370078511758,1.524285210503472,0.13570149739583334,-2.6462639702690973,-0.012,-0.2169,1.6581,0.02039,-0.03265,-0.00379,0.0008094813674688339,0.0010025600204244256,0.0009768037125468254,0.00042057805694639683,0.0004999744705855846,0.0004168389132246375,0.011790072545409203,0.008903514593839645,0.011541634798049927,passive,1
1.6009,rehab,small_fast,22.689035217739853,-666.6241361117022,305.54429943455006,-177.38859842346386,0.13237406123438458,-149.99027939156468,-26.0772,0.02,7.2882,141.8406,-0.5387,-119.8336,79.39284976166074,27.235522128567837,82.84666986748724,-22.010828653971355,-88.93997192382812,-40.64932081434462,-2.2855029719890934,-0.3809114966062036,-0.5518046464070235,1.0749732123480902,0.06785074869791667,-2.307001749674479,0.029,-0.2094,1.9009,0.00397,-0.03349,-0.00207,0.0008094813674688339,0.0010025600204244256,0.0009768037125468254,0.00042057805694639683,0.0004999744705855846,0.0004168389132246375,0.011790072545409203,0.008903514593839645,0.011541634798049927,passive,1
1.6208,rehab,small_fast,22.29328178588008,-666.6247937895321,305.6427912711204,-177.38879915580998,0.1325428358736969,-149.99022419704838,-23.4511,-0.0293,4.8676,148.9365,-0.2898,-113.6889,79.35842230768488,27.22947148993464,82.83897399902344,-21.995739407009548,-88.93887837727864,-40.683627658420136,-2.067836346012531,-0.32649653972965653,-0.3994509253171411,0.7880995008680556,0.06785074869791667,-1.9677310519748263,-0.0493,-0.4207,2.172,-0.01312,-0.05026,-0.00785,0.0008094813674688339,0.0010025600204244256,0.0009768037125468254,0.00042057805694639683,0.0004999744705855846,0.0004168389132246375,0.011790072545409203,0.008903514593839645,0.011541634798049927,passive,1
1.6406,rehab,small_fast,21.945456650208314,-666.6255285519004,305.71616915321187,-177.38845034749806,0.13224741935721535,-149.98940405454104,-20.2184,-0.0466,2.6379,162.1688,-0.028,-109.6486,79.32816911451887,27.224719359142945,82.83380036306853,-21.98529561360677,-88.93787807888455,-40.71457756890191,-1.8501697200359684,-0.32649653972965653,-0.20409687910929764,0.5195787217881944,0.06785074869791667,-1.832029554578993,0.0612,-0.3451,2.1007,0.00832,-0.0438,-0.00204,0.0008094813674688339,0.0010025600204244256,0.0009768037125468254,0.00042057805694639683,0.0004999744705855846,0.0004168389132246375,0.011790072545409203,0.008903514593839645,0.011541634798049927,passive,1
1.6609,rehab,small_fast,21.423792245177975,-666.6188223351821,305.75384234539416,-177.38953161756876,0.13319603282775574,-149.9895130561297,-16.8781,-0.0198,0.6714,179.6696,0.3175,-106.2485,79.28268734771426,27.220205174814357,82.83350802884243,-21.977623833550346,-88.9363776312934,-40.75985378689236,-1.360414712735922,-0.0,0.011591391988319925,0.051905314127604164,0.06785074869791667,-1.4249081081814237,-0.1348,-0.3651,1.838,-0.00326,-0.03906,-0.00095,0.0008094813674688339,0.0010025600204244256,0.0009768037125468254,0.00042057805694639683,0.0004999744705855846,0.0004168389132246375,0.011790072545409203,0.008903514593839645,0.011541634798049927,passive,1
1.6807,rehab,small_fast,21.18391734128019,-666.6278695976656,305.73368221142397,-177.3903096122812,0.13387500724557932,-149.9891921825007,-13.2893,-0.0054,-1.1339,190.6305,0.961,-101.6782,79.2619792069539,27.221490085715114,82.83431704681699,-21.97802225748698,-88.93567403157552,-40.780885484483505,-1.1971630436359066,0.10882991375309406,0.05035627006304146,-0.10923597547743055,0.06785074869791667,-1.153496636284722,0.0895,-0.3339,2.2702,0.00967,-0.0497,-0.00568,0.0008094813674688339,0.0010025600204244256,0.0009768037125468254,0.00042057805694639683,0.0004999744705855846,0.0004168389132246375,0.011790072545409203,0.008903514593839645,0.011541634798049927,passive,1
1.701,rehab,small_fast,20.89478580680313,-666.6305502685801,305.68546531261694,-177.3895043558065,0.13320540440299128,-149.99079869537368,-9.2793,0.029,-3.2315,199.3106,1.3995,-101.1075,79.23690644821318,27.222781795086245,82.84061243038366,-21.985914442274304,-88.93485175238715,-40.804434882269966,-0.8162515470297029,0.10882991375309406,0.3943044832437345,-0.5775197347005209,0.06785074869791667,-0.8142344156901041,-0.1971,-0.3333,1.8365,-0.00675,-0.02509,0.00159,0.0008094813674688339,0.0010025600204244256,0.0009768037125468254,0.00042057805694639683,0.0004999744705855846,0.0004168389132246375,0.011790072545409203,0.008903514593839645,0.011541634798049927,passive,1
1.7207,rehab,small_fast,20.770769843403286,-666.6279034036085,305.629433920553,-177.38754892447974,0.13151774449219603,-149.99125204095347,-5.4355,0.0595,-5.2558,201.7257,1.0203,-103.7916,79.22610367878829,27.224195876924117,82.84873660248105,-21.997706095377605,-88.93447028266058,-40.81491258409288,-0.544163165706219,0.16324487062964108,0.5988228675162438,-0.9002939860026041,0.06785074869791667,-0.5428229437934028,-0.0642,-0.1646,2.1204,0.00531,-0.03224,-0.00185,0.0008094813674688339,0.0010025600204244256,0.0009768037125468254,0.00042057805694639683,0.0004999744705855846,0.0004168389132246375,0.011790072545409203,0.008903514593839645,0.011541634798049927,passive,1
1.7411,rehab,small_fast,20.705353719441636,-666.6223184299378,305.49454546886045,-177.3846666572989,0.129007269255841,-149.989806272337,-0.184,0.064,-7.9561,199.7901,-0.0405,-107.4768,79.22035897132194,27.228920813834314,82.8655492197169,-22.02283223470052,-88.93416510687933,-40.82238091362847,0.2720815828531095,0.2720815828531095,0.8116421841158725,-1.2251366509331596,-0.0,-0.06785074869791667,0.044,-0.1575,1.5346,0.01517,-0.0287,-0.00033,0.0008094813674688339,0.0010025600204244256,0.0009768037125468254,0.00042057805694639683,0.0004999744705855846,0.0004168389132246375,0.011790072545409203,0.008903514593839645,0.011541634798049927,passive,1
1.7606,rehab,small_fast,20.762799684377352,-666.6204183529175,305.3551807938535,-177.3841569714862,0.12854288478483494,-149.9849030319114,3.0812,0.0792,-9.5591,192.9602,-1.0169,-107.4021,79.2253286531656,27.23521619740099,82.87960845645111,-22.043872409396702,-88.93411424424913,-40.822550455729164,0.3809114966062036,0.489748208829672,0.9447426371055074,-1.3581424289279513,-0.0,0.06785074869791667,-0.1225,-0.2856,1.1457,-0.00524,-0.02863,-0.00051,0.0008094813674688339,0.0010025600204244256,0.0009768037125468254,0.00042057805694639683,0.0004999744705855846,0.0004168389132246375,0.011790072545409203,0.008903514593839645,0.011541634798049927,passive,1
1.781,rehab,small_fast,20.90524858274894,-666.6195895785318,305.0770586048817,-177.3849993887845,0.12935605457976038,-149.97873324992517,6.5428,0.0619,-11.5796,183.3861,-1.8575,-103.4516,79.23770866771736,27.248602385568148,82.90553102398863,-22.08219740125868,-88.93412272135417,-40.81676907009548,0.7074148348062346,0.6529998779296875,1.2548072739402847,-1.821679009331597,-0.0,0.5428229437934028,-0.1499,-0.1776,1.4658,0.00308,-0.02693,-0.00042,0.0008094813674688339,0.0010025600204244256,0.0009768037125468254,0.00042057805694639683,0.0004999744705855846,0.0004168389132246375,0.011790072545409203,0.008903514593839645,0.011541634798049927,passive,1
1.8007,rehab,small_fast,21.03954756976968,-666.6177085891081,304.85520759693037,-177.38609391253212,0.13061487115444534,-149.97972718440388,10.2363,-0.0048,-13.9301,175.1086,-2.2868,-96.851,79.24936124593904,27.259289580996672,82.92602841216738,-22.11212158203125,-88.93419901529948,-40.804451836480034,0.8162515470297029,0.7074148348062346,1.3142870912457456,-1.9972568088107638,-0.0,0.9499359130859375,-0.2351,-0.1587,1.4947,0.00519,-0.02146,0.00684,0.0008094813674688339,0.0010025600204244256,0.0009768037125468254,0.00042057805694639683,0.0004999744705855846,0.0004168389132246375,0.011790072545409203,0.008903514593839645,0.011541634798049927,passive,1
1.8209,rehab,small_fast,21.30514336305709,-666.6215855577534,304.4951848187649,-177.38642925002915,0.13149588725856967,-149.98372053799352,13.7129,-0.0845,-15.9694,169.7425,-2.0452,-90.1428,79.27253723144531,27.27751628007039,82.95863387608291,-22.162967258029514,-88.93447875976562,-40.77784220377604,1.1971630436359066,0.8162515470297029,1.4624393576442605,-2.2878604465060763,-0.06785074869791667,1.2892066107855902,-0.1532,-0.2433,1.4947,-0.00831,-0.02918,-0.00242,0.0008094813674688339,0.0010025600204244256,0.0009768037125468254,0.00042057805694639683,0.0004999744705855846,0.0004168389132246375,0.011790072545409203,0.008903514593839645,0.011541634798049927,passive,1
1.8407,rehab,small_fast,21.545924215105444,-666.6228431587778,304.2222809941375,-177.38710544311175,0.13251899113020876,-149.98594953530554,16.8321,-0.1316,-17.5403,176.7644,-1.3162,-90.4082,79.2935037140799,27.29137836116375,82.98311516790106,-22.200851440429688,-88.93478393554688,-40.755064222547745,1.4692514249593904,0.87066650390625,1.4790072299466275,-2.4966854519314237,-0.06785074869791667,1.6284688313802083,-0.2111,-0.2193,1.7565,-0.01079,-0.02729,-0.00292,0.0008094813674688339,0.0010025600204244256,0.0009768037125468254,0.00042057805694639683,0.0004999744705855846,0.0004168389132246375,0.011790072545409203,0.008903514593839645,0.011541634798049927,passive,1
1.8611,rehab,small_fast,21.8390032731117,-666.627353461464,303.9331898412165,-177.38737234637384,0.13306598307245535,-149.9871182358462,20.3538,-0.1394,-19.1176,180.574,-0.1069,-86.1075,79.3190863580987,27.306586539391244,83.00849385780863,-22.241711086697048,-88.93529256184895,-40.728768242730034,1.795747964689047,0.979496417659344,1.6350525204497988,-2.6273600260416665,-0.0,1.7641703287760415,-0.2773,-0.2985,1.2147,-0.02279,-0.02754,-0.00044,0.0008094813674688339,0.0010025600204244256,0.0009768037125468254,0.00042057805694639683,0.0004999744705855846,0.0004168389132246375,0.011790072545409203,0.008903514593839645,0.011541634798049927,passive,1
1.8808,rehab,small_fast,22.465835946329182,-666.6266356584673,303.3770829077073,-177.38837899634038,0.1342106615808035,-149.98797438851608,23.9352,-0.1265,-20.6538,168.6932,1.2404,-72.2154,79.37366447826423,27.3350721302599,83.05843542117884,-22.320353190104168,-88.93664889865451,-40.674218071831596,1.9589996337890625,1.0339181730062654,1.8284282117786974,-2.912258572048611,-0.06785074869791667,2.103441026475694,-0.4078,-0.3338,1.7774,-0.02454,-0.02703,-0.00014,0.0008094813674688339,0.0010025600204244256,0.0009768037125468254,0.00042057805694639683,0.0004999744705855846,0.0004168389132246375,0.011790072545409203,0.008903514593839645,0.011541634798049927,passive,1
1.901,rehab,small_fast,22.87197396481148,-666.6307381066395,303.0420179709371,-177.3881782016672,0.13388696971223132,-149.9887321191355,27.1644,-0.0739,-21.8734,148.8082,2.2836,-57.2854,79.40914569514813,27.352877324170404,83.08800196883702,-22.369215223524304,-88.93780178493924,-40.63853793674045,2.2855029719890934,1.1971630436359066,1.8709458455000774,-3.0874125162760415,-0.06785074869791667,2.374852498372396,-0.322,-0.1895,1.291,-0.00801,-0.0275,0.00608,0.0008094813674688339,0.0010025600204244256,0.0009768037125468254,0.00042057805694639683,0.0004999744705855846,0.0004168389132246375,0.011790072545409203,0.008903514593839645,0.011541634798049927,passive,1
1.9211,rehab,small_fast,23.546269315793197,-666.634543141516,302.5146790972694,-177.38771177303835,0.13297620489991835,-149.99035127762278,31.4141,-0.0115,-23.9448,129.9624,2.5588,-46.281,79.4680408440014,27.380805440468365,83.134870623598,-22.446840074327255,-88.93993801540799,-40.57891845703125,2.7208362239422184,1.1971630436359066,2.035516417852723,-3.3957672119140625,-0.13570149739583334,2.6462639702690973,-0.1222,-0.2575,1.3971,-0.01094,-0.03385,-0.00259,0.0008094813674688339,0.0010025600204244256,0.0009768037125468254,0.00042057805694639683,0.0004999744705855846,0.0004168389132246375,0.011790072545409203,0.008903514593839645,0.011541634798049927,passive,1
1.9409,rehab,small_fast,24.046179980644418,-666.6328689658034,302.1365035430693,-177.3878667144367,0.1328161903463848,-149.99087489964933,33.5865,0.0454,-24.7311,108.0481,2.0013,-35.4278,79.51161903910118,27.400527803024442,83.16874060300317,-22.501788669162327,-88.94143846299913,-40.53544786241319,2.8296661376953125,1.305999755859375,2.1705340394879333,-3.560545179578993,-0.06785074869791667,2.8498246934678817,-0.1705,-0.3696,1.0618,-0.00666,-0.0307,0.00437,0.0008094813674688339,0.0010025600204244256,0.0009768037125468254,0.00042057805694639683,0.0004999744705855846,0.0004168389132246375,0.011790072545409203,0.008903514593839645,0.011541634798049927,passive,1
1.9607,rehab,small_fast,24.875303789902123,-666.6305061242,301.5374529113355,-177.3883962013621,0.13304856872857682,-149.98924044876375,34.5027,0.0851,-24.4734,89.6239,0.9197,-27.3731,79.58385958529935,27.43222907038018,83.22150353157875,-22.587890625,-88.94365946451823,-40.46582539876302,3.2105844327718907,1.360414712735922,2.233950171140161,-3.6820814344618054,-0.06785074869791667,2.985526190863715,-0.1101,-0.2998,1.2538,-0.00166,-0.04677,0.00093,0.0008094813674688339,0.0010025600204244256,0.0009768037125468254,0.00042057805694639683,0.0004999744705855846,0.0004168389132246375,0.011790072545409203,0.008903514593839645,0.011541634798049927,passive,1
1.9807,rehab,small_fast,25.460749076413176,-666.6280812336049,301.1340872262833,-177.38797641510965,0.13252286215498293,-149.98858716042383,35.6525,0.0953,-24.6612,77.6366,-0.3556,-22.7476,79.63486850851834,27.453603461237236,83.25739945515548,-22.64738294813368,-88.9452616373698,-40.416149563259545,3.373836101871906,1.360414712735922,2.345098363290919,-3.807542588975694,-0.13570149739583334,3.2569376627604165,-0.2142,-0.1924,1.6712,-0.0038,-0.0359,0.00217,0.0008094813674688339,0.0010025600204244256,0.0009768037125468254,0.00042057805694639683,0.0004999744705855846,0.0004168389132246375,0.011790072545409203,0.008903514593839645,0.011541634798049927,passive,1
2.001,rehab,small_fast,26.397743446993324,-666.6246961099401,300.49642146020386,-177.38838703299007,0.13267254237019377,-149.98684714407838,37.3153,0.0761,-25.2813,70.886,-1.409,-19.3011,79.71651133924428,27.487922139687115,83.31281378717706,-22.739181518554688,-88.94776238335503,-40.33729553222656,3.428251058748453,1.4148296696124691,2.352311540358137,-3.7479485405815973,-0.13570149739583334,3.392647637261285,-0.2293,-0.2609,1.685,-0.00241,-0.04106,-0.0038,0.0008094813674688339,0.0010025600204244256,0.0009768037125468254,0.00042057805694639683,0.0004999744705855846,0.0004168389132246375,0.011790072545409203,0.008903514593839645,0.011541634798049927,passive,1
2.0211,rehab,small_fast,27.04086967437226,-666.6235046939255,300.07031832453146,-177.38786151782372,0.1321288373085998,-149.9867409440801,38.8917,0.0163,-25.8291,85.4228,-1.8772,-27.1214,79.7725783244218,27.511111722134128,83.34984505530632,-22.80188666449653,-88.94949171278212,-40.28205023871528,3.5915027278484684,1.4148296696124691,2.308162273746906,-3.953874376085069,-0.13570149739583334,3.528349134657118,-0.0771,-0.359,1.203,0.00207,-0.027,-0.00313,0.0008094813674688339,0.0010025600204244256,0.0009768037125468254,0.00042057805694639683,0.0004999744705855846,0.0004168389132246375,0.011790072545409203,0.008903514593839645,0.011541634798049927,passive,1
2.041,rehab,small_fast,27.6990650233491,-666.6233841058041,299.6343122465614,-177.38780815416612,0.1320175513390688,-149.98780108808444,40.9901,-0.0429,-26.6249,114.8537,-1.69,-42.3213,79.82998460826308,27.53519870267056,83.38695790508005,-22.865007188585068,-88.95128038194444,-40.22430419921875,3.809169353825031,1.5236663818359375,2.356370227171643,-3.9133792453342013,-0.13570149739583334,3.8676198323567705,-0.1967,-0.2215,1.0862,-0.01311,-0.03156,-0.00067,0.0008094813674688339,0.0010025600204244256,0.0009768037125468254,0.00042057805694639683,0.0004999744705855846,0.0004168389132246375,0.011790072545409203,0.008903514593839645,0.011541634798049927,passive,1
2.0607,rehab,small_fast,28.721624697253123,-666.6261717889813,298.97071129861774,-177.38769093941167,0.13184214032866534,-149.98990732231428,43.4072,-0.0815,-27.5403,125.5374,-0.9295,-43.5553,79.91922812886757,27.572617483611154,83.44229745392752,-22.960789998372395,-88.95406934950087,-40.13404846191406,3.809169353825031,1.4692514249593904,2.298759989219137,-3.981221516927083,-0.06785074869791667,3.8676198323567705,0.0307,-0.1569,1.3496,-0.01284,-0.02875,-0.00506,0.0008094813674688339,0.0010025600204244256,0.0009768037125468254,0.00042057805694639683,0.0004999744705855846,0.0004168389132246375,0.011790072545409203,0.008903514593839645,0.011541634798049927,passive,1
2.0808,rehab,small_fast,29.430577188812904,-666.630050116251,298.5197313700058,-177.38805934546437,0.132080659406148,-149.99031086885768,45.2698,-0.0893,-27.9833,114.5737,0.1124,-31.2107,79.98113500009669,27.598642028204285,83.47877124748608,-23.02477518717448,-88.95599365234375,-40.07247077094184,4.026835979801594,1.6325030940594059,2.268126081712175,-4.010416666666667,-0.13570149739583334,3.799769083658854,-0.0553,-0.1275,1.837,-0.00641,-0.02998,-0.00659,0.0008094813674688339,0.0010025600204244256,0.0009768037125468254,0.00042057805694639683,0.0004999744705855846,0.0004168389132246375,0.011790072545409203,0.008903514593839645,0.011541634798049927,passive,1
2.1011,rehab,small_fast,30.549481024513533,-666.6316324968284,297.84113439867383,-177.38886936081553,0.13266523506248845,-149.98928790879364,47.9538,-0.0614,-28.7697,92.6246,1.0652,-13.9684,80.07876783314317,27.63788959767559,83.53344454623685,-23.120676676432293,-88.95897759331596,-39.976959228515625,4.026835979801594,1.6325030940594059,2.1965721810218133,-3.8730706108940973,-0.06785074869791667,3.8676198323567705,-0.0791,-0.1073,1.7881,-0.01122,-0.02623,0.00055,0.0008094813674688339,0.0010025600204244256,0.0009768037125468254,0.00042057805694639683,0.0004999744705855846,0.0004168389132246375,0.011790072545409203,0.008903514593839645,0.011541634798049927,passive,1
2.1211,rehab,small_fast,31.31049451316407,-666.632011918972,297.38630017475396,-177.38989157368772,0.13346886493614077,-149.98858145407985,51.1654,-0.0175,-29.7754,58.2518,1.5285,8.3651,80.14516849328976,27.66445801989867,83.5694696407507,-23.18399217393663,-88.96100362141927,-39.91199069552951,4.135672692025062,1.6325030940594059,2.2006988525390625,-4.02372572157118,-0.13570149739583334,4.0033213297526045,-0.0935,-0.1228,1.0803,-0.00389,-0.03618,0.0062,0.0008094813674688339,0.0010025600204244256,0.0009768037125468254,0.00042057805694639683,0.0004999744705855846,0.0004168389132246375,0.011790072545409203,0.008903514593839645,0.011541634798049927,passive,1
2.1407,rehab,small_fast,32.66612686092091,-666.6316943835151,296.61392616325423,-177.39006659482587,0.13359919425688463,-149.98841363704435,51.9896,0.0285,-29.2162,18.0918,1.3196,30.7787,80.26345507933361,27.7099873759959,83.63079864199798,-23.294262356228298,-88.96460639105902,-39.79513380262587,4.244502605778156,1.686918050935953,2.257296118405786,-3.789520263671875,-0.13570149739583334,4.342592027452257,0.0368,-0.0508,1.5724,-0.00016,-0.03661,-0.00596,0.0008094813674688339,0.0010025600204244256,0.0009768037125468254,0.00042057805694639683,0.0004999744705855846,0.0004168389132246375,0.011790072545409203,0.008903514593839645,0.011541634798049927,passive,1
2.1609,rehab,small_fast,33.451795425874515,-666.6307948134802,296.17463338156927,-177.39036876505128,0.13383899484453893,-149.98844746904544,50.7577,0.0558,-27.7063,-15.6927,0.5902,46.8704,80.33201085458887,27.73614788999652,83.66519210362198,-23.356535169813366,-88.96670871310764,-39.727257622612846,4.4077542748781715,1.5780813387124846,2.0957032760771193,-3.923551771375868,-0.20355224609375,4.139031304253472,0.0608,0.0092,1.5281,-0.00203,-0.03516,0.00021,0.0008094813674688339,0.0010025600204244256,0.0009768037125468254,0.00042057805694639683,0.0004999744705855846,0.0004168389132246375,0.011790072545409203,0.008903514593839645,0.011541634798049927,passive,1
2.1809,rehab,small_fast,34.65715774571036,-666.627102976933,295.5352088562501,-177.3901667542384,0.1336926810393927,-149.98697644769254,49.9725,0.0576,-26.563,-33.2124,-0.2874,53.1824,80.43715599739906,27.77453885220065,83.7151064731107,-23.448265923394096,-88.96987067328558,-39.6246337890625,4.353339318001624,1.6325030940594059,2.012993085502398,-3.8091278076171875,-0.20355224609375,4.206882052951388,0.0302,-0.0859,1.7835,-0.01701,-0.02634,-0.00175,0.0008094813674688339,0.0010025600204244256,0.0009768037125468254,0.00042057805694639683,0.0004999744705855846,0.0004168389132246375,0.011790072545409203,0.008903514593839645,0.011541634798049927,passive,1
2.2009,rehab,small_fast,35.45348377962397,-666.6271192331826,295.1210226017781,-177.38947377878407,0.1331761682799519,-149.98709493762007,48.495,0.0335,-25.1759,-33.5324,-0.8858,49.3969,80.5066703569771,27.799944735989712,83.7468689266998,-23.50842793782552,-88.9719729953342,-39.5556894938151,4.244502605778156,1.5780813387124846,1.9860847397605972,-3.755984836154514,-0.13570149739583334,4.410442776150173,-0.0074,-0.0069,1.9296,-0.00779,-0.03025,0.00095,0.0008094813674688339,0.0010025600204244256,0.0009768037125468254,0.00042057805694639683,0.0004999744705855846,0.0004168389132246375,0.011790072545409203,0.008903514593839645,0.011541634798049927,passive,1
2.2208,rehab,small_fast,36.645774211206515,-666.626655706991,294.5102864815351,-177.38895568334738,0.13270764156129003,-149.98766578690004,47.5816,-0.0055,-24.1482,-15.5705,-1.0348,35.0806,80.61077533382,27.83785300679726,83.79281978796024,-23.596182929144966,-88.97524515787761,-39.45202297634548,4.516590987101639,1.6325030940594059,1.8252873184657332,-3.607635498046875,-0.13570149739583334,4.274732801649305,0.2108,0.0312,2.068,0.00884,-0.04171,-0.00049,0.0008094813674688339,0.0010025600204244256,0.0009768037125468254,0.00042057805694639683,0.0004999744705855846,0.0004168389132246375,0.011790072545409203,0.008903514593839645,0.011541634798049927,passive,1
2.2406,rehab,small_fast,37.43932795498973,-666.6276942831768,294.1101618155992,-177.38867777690146,0.13249365232297705,-149.9887386394889,47.7628,-0.0373,-23.7806,10.2459,-0.782,16.7741,80.68009253775719,27.863163712001082,83.8221551876257,-23.65332709418403,-88.97742377387152,-39.38229031032986,4.4077542748781715,1.5780813387124846,1.769567055277305,-3.5065121120876737,-0.13570149739583334,4.139031304253472,0.2157,0.056,1.5387,-0.00086,-0.02517,-0.0032,0.0008094813674688339,0.0010025600204244256,0.0009768037125468254,0.00042057805694639683,0.0004999744705855846,0.0004168389132246375,0.011790072545409203,0.008903514593839645,0.011541634798049927,passive,1
2.261,rehab,small_fast,38.23250903107385,-666.628918361689,293.71937815089314,-177.38852083408509,0.1322655706138347,-149.98897141500453,48.9608,-0.0579,-24.0425,33.3063,-0.2342,0.1567,80.74939614475363,27.88821607533068,83.85026006415339,-23.70886908637153,-88.97967020670573,-39.31339687771267,4.4077542748781715,1.5780813387124846,1.6954909220780476,-3.3777533637152777,-0.06785074869791667,4.139031304253472,0.1856,0.0296,2.2485,0.00557,-0.03671,-0.00661,0.0008094813674688339,0.0010025600204244256,0.0009768037125468254,0.00042057805694639683,0.0004999744705855846,0.0004168389132246375,0.011790072545409203,0.008903514593839645,0.011541634798049927,passive,1
2.2809,rehab,small_fast,39.427111881612156,-666.6292446206993,293.12965999932493,-177.38917201237,0.13284515678773942,-149.98910379594375,50.6648,-0.0403,-24.5498,47.8199,0.3941,-11.8462,80.85373906805964,27.926260315545715,83.8918395089631,-23.790800306532116,-88.98289998372395,-39.20986599392361,4.244502605778156,1.5236663818359375,1.6364869976987932,-3.3543226453993054,-0.20355224609375,4.274732801649305,0.1529,0.1102,1.7943,-0.01384,-0.02227,-0.01097,0.0008094813674688339,0.0010025600204244256,0.0009768037125468254,0.00042057805694639683,0.0004999744705855846,0.0004168389132246375,0.011790072545409203,0.008903514593839645,0.011541634798049927,passive,1
2.3007,rehab,small_fast,40.22254239194557,-666.6325557844765,292.74250662415346,-177.38934819405745,0.13307265577037916,-149.988714693134,50.9992,-0.0077,-24.4992,36.6117,0.8413,-11.3906,80.92326022610806,27.951883750386756,83.9182175740157,-23.844621446397568,-88.98500230577257,-39.14135403103298,4.4077542748781715,1.686918050935953,1.681445282284576,-3.3373853895399304,-0.20355224609375,4.274732801649305,0.1677,0.1462,1.8592,-0.00789,-0.02119,-0.00596,0.0008094813674688339,0.0010025600204244256,0.0009768037125468254,0.00042057805694639683,0.0004999744705855846,0.0004168389132246375,0.011790072545409203,0.008903514593839645,0.011541634798049927,passive,1
2.321,rehab,small_fast,41.637974299003716,-666.6318111415114,292.07053026250276,-177.3905414650387,0.13401120823873053,-149.9875153461573,51.1682,0.0116,-24.4743,3.3066,0.8586,-0.9193,81.0469108052773,27.996311754283337,83.96374013164255,-23.936767578125,-88.98887634277344,-39.019970364040795,4.4077542748781715,1.6325030940594059,1.622998832476021,-3.3016543918185763,-0.13570149739583334,4.206882052951388,0.2325,0.1646,1.9659,-0.01224,-0.0295,-0.01001,0.0008094813674688339,0.0010025600204244256,0.0009768037125468254,0.00042057805694639683,0.0004999744705855846,0.0004168389132246375,0.011790072545409203,0.008903514593839645,0.011541634798049927,passive,1
2.3411,rehab,small_fast,42.44780395466748,-666.6306777849037,291.67998398125195,-177.39168445015932,0.13489723909214277,-149.98595263248177,51.4674,0.0273,-24.7455,-28.4914,0.49,7.5171,81.11765568799312,28.022241120291227,83.98980546705793,-23.989410400390625,-88.99108039008246,-38.95139906141493,4.298924361125077,1.6325030940594059,1.6847561373568998,-3.242094251844618,-0.13570149739583334,4.342592027452257,0.227,0.1046,1.6833,-0.01142,-0.03049,-0.00897,0.0008094813674688339,0.0010025600204244256,0.0009768037125468254,0.00042057805694639683,0.0004999744705855846,0.0004168389132246375,0.011790072545409203,0.008903514593839645,0.011541634798049927,passive,1
2.3615,rehab,small_fast,43.637187364883154,-666.6286722008118,291.11760595944304,-177.3914004127478,0.13464534921923313,-149.9851647746913,51.7542,0.0355,-25.1951,-48.4201,-0.1113,6.581,81.22157710613591,28.059727885935565,84.02803326597308,-24.068620469835068,-88.99434407552083,-38.84918212890625,4.298924361125077,1.6325030940594059,1.6284580041866492,-3.3213551839192705,-0.13570149739583334,4.071180555555555,0.3652,0.2288,2.0876,0.00497,-0.02642,-0.00602,0.0008094813674688339,0.0010025600204244256,0.0009768037125468254,0.00042057805694639683,0.0004999744705855846,0.0004168389132246375,0.011790072545409203,0.008903514593839645,0.011541634798049927,passive,1
2.3807,rehab,small_fast,44.410611732341316,-666.6266131707098,290.7321134472702,-177.39136478266875,0.13463016267296748,-149.9859030317465,49.5577,0.0317,-24.3666,-49.9634,-0.5691,-4.0,81.28916070012762,28.085215351369122,84.05447251725904,-24.122645060221352,-88.99648030598958,-38.78148396809896,4.244502605778156,1.4692514249593904,1.6076342894299196,-3.4064144558376737,-0.13570149739583334,4.139031304253472,0.3712,0.2066,1.7173,-0.00574,-0.03184,-0.00954,0.0008094813674688339,0.0010025600204244256,0.0009768037125468254,0.00042057805694639683,0.0004999744705855846,0.0004168389132246375,0.011790072545409203,0.008903514593839645,0.011541634798049927,passive,1
2.4009,rehab,small_fast,45.54940435542446,-666.628284352938,290.1650249109788,-177.38948122375876,0.13305145872276128,-149.98826704875123,46.6758,0.0048,-23.6258,-44.6,-0.7172,-19.5499,81.38877188805306,28.123327576287902,84.09326458921527,-24.20507642957899,-88.99974399142795,-38.68046230740017,4.135672692025062,1.6325030940594059,1.69727891978651,-3.4880489773220487,-0.13570149739583334,4.071180555555555,0.5365,0.1544,1.8295,-0.00211,-0.03558,-0.01137,0.0008094813674688339,0.0010025600204244256,0.0009768037125468254,0.00042057805694639683,0.0004999744705855846,0.0004168389132246375,0.011790072545409203,0.008903514593839645,0.011541634798049927,passive,1
2.4206,rehab,small_fast,46.31149977742485,-666.6287586804302,289.762218200616,-177.38911216415835,0.13275925474730865,-149.98917924803374,46.3143,-0.0257,-24.3709,-36.8034,-0.6562,-36.6537,81.45542409160349,28.15024951897045,84.12055364929803,-24.261788262261284,-89.00186326768663,-38.61355251736111,4.244502605778156,1.7413330078125,1.7098832838606126,-3.5576968722873263,-0.20355224609375,4.410442776150173,0.3874,0.2646,2.0923,-0.02046,-0.01704,-0.00896,0.0008094813674688339,0.0010025600204244256,0.0009768037125468254,0.00042057805694639683,0.0004999744705855846,0.0004168389132246375,0.011790072545409203,0.008903514593839645,0.011541634798049927,passive,1
2.441,rehab,small_fast,47.4715270299493,-666.6289897129959,289.14394443486503,-177.38813963904553,0.13207195498482652,-149.988335106951,46.552,-0.0389,-25.8122,-19.9133,-0.4,-59.8134,81.55686406805964,28.191672598961556,84.16242542833385,-24.349288940429688,-89.00494893391927,-38.51396348741319,4.244502605778156,1.7413330078125,1.8481573728051517,-3.6869388156467013,-0.13570149739583334,4.206882052951388,0.4162,0.3285,1.8534,-0.00579,-0.03301,-0.0139,0.0008094813674688339,0.0010025600204244256,0.0009768037125468254,0.00042057805694639683,0.0004999744705855846,0.0004168389132246375,0.011790072545409203,0.008903514593839645,0.011541634798049927,passive,1
2.461,rehab,small_fast,48.236975344488656,-666.629878900621,288.7138225099957,-177.38750687292867,0.13156216083136865,-149.98766604067757,47.3265,-0.0368,-27.7473,4.273,0.0542,-85.7151,81.62382900124729,28.220423330174814,84.19162485859182,-24.410035875108505,-89.00702582465277,-38.44836764865451,4.135672692025062,1.795747964689047,1.83603570012763,-3.908564249674479,-0.13570149739583334,3.9354705810546875,0.5656,0.3212,2.3038,0.00147,-0.0316,-0.01087,0.0008094813674688339,0.0010025600204244256,0.0009768037125468254,0.00042057805694639683,0.0004999744705855846,0.0004168389132246375,0.011790072545409203,0.008903514593839645,0.011541634798049927,passive,1
2.4809,rehab,small_fast,48.99225642416929,-666.6315329376222,288.2685459383866,-177.38673899136688,0.1309160382538023,-149.98731888929169,47.0512,-0.0209,-29.3556,18.0528,0.5147,-101.9932,81.6899305286974,28.250091854888613,84.2220412150468,-24.47308858235677,-89.00910271538628,-38.38333977593316,4.081257735148514,1.9045846769125154,2.034088739074103,-3.907530042860243,-0.13570149739583334,3.9354705810546875,0.6426,0.4384,2.027,0.01154,-0.02812,-0.01017,0.0008094813674688339,0.0010025600204244256,0.0009768037125468254,0.00042057805694639683,0.0004999744705855846,0.0004168389132246375,0.011790072545409203,0.008903514593839645,0.011541634798049927,passive,1
2.5012,rehab,small_fast,50.308231154137594,-666.6312063608489,287.4243544962671,-177.3871668418345,0.13123137777556163,-149.9864930097506,47.0254,-0.0073,-31.3539,4.6019,0.8172,-101.601,81.8050762214283,28.305519783850944,84.28005936122176,-24.589411417643227,-89.01265462239583,-38.27035692003038,3.9724210229250465,2.122251302889078,2.2573233122872836,-4.399854871961805,-0.13570149739583334,3.799769083658854,0.6486,0.4269,2.1684,-0.00083,-0.03187,-0.01184,0.0008094813674688339,0.0010025600204244256,0.0009768037125468254,0.00042057805694639683,0.0004999744705855846,0.0004168389132246375,0.011790072545409203,0.008903514593839645,0.011541634798049927,passive,1
2.521,rehab,small_fast,51.06217072390225,-666.6310454783327,286.9029301160061,-177.38838344785623,0.13219583930609485,-149.98512309201826,47.2633,0.0072,-33.6022,-16.0275,0.9091,-92.4599,81.8710485779413,28.339593717367343,84.3156629505724,-24.65945773654514,-89.01462978786893,-38.20655822753906,4.135672692025062,2.122251302889078,2.219217885838877,-4.5074717203776045,-0.20355224609375,3.799769083658854,0.7784,0.2845,1.5888,0.01169,-0.02652,-0.01198,0.0008094813674688339,0.0010025600204244256,0.0009768037125468254,0.00042057805694639683,0.0004999744705855846,0.0004168389132246375,0.011790072545409203,0.008903514593839645,0.011541634798049927,passive,1
2.5409,rehab,small_fast,52.163597653059846,-666.6298507130088,286.0848335384074,-177.3895832456253,0.1331245420767375,-149.98491369130292,47.2457,0.0326,-35.7008,-27.3179,0.7579,-86.2732,81.96745088785002,28.39239743676516,84.37288567571356,-24.770821465386284,-89.01756286621094,-38.11164008246528,3.9724210229250465,2.2855029719890934,2.4403109408841273,-4.753426445855035,-0.13570149739583334,4.071180555555555,0.6674,0.3784,1.3189,0.00498,-0.03271,-0.01055,0.0008094813674688339,0.0010025600204244256,0.0009768037125468254,0.00042057805694639683,0.0004999744705855846,0.0004168389132246375,0.011790072545409203,0.008903514593839645,0.011541634798049927,passive,1
2.5606,rehab,small_fast,52.8845586538143,-666.6300769965574,285.5185500081097,-177.38945744208408,0.1329818345996321,-149.98533932869944,46.5768,0.0449,-37.1162,-31.2716,0.3535,-81.7513,82.0305882822169,28.428776051738474,84.41320740350402,-24.849590725368923,-89.01951260036893,-38.04897732204861,4.026835979801594,2.3399179288656407,2.5907338963876856,-5.1094818115234375,-0.06785074869791667,3.8676198323567705,0.6411,0.476,2.2061,-0.01613,-0.02731,-0.01738,0.0008094813674688339,0.0010025600204244256,0.0009768037125468254,0.00042057805694639683,0.0004999744705855846,0.0004168389132246375,0.011790072545409203,0.008903514593839645,0.011541634798049927,passive,1
2.5811,rehab,small_fast,53.96016644947675,-666.6294543734718,284.6235305577238,-177.38900810117195,0.13261461594527138,-149.98656629085175,45.0835,0.041,-38.5417,-33.2255,-0.1854,-78.4107,82.12478788772432,28.485849210531406,84.47770449194577,-24.974560207790798,-89.02237786187065,-37.95497470431857,3.9724210229250465,2.3943328857421875,2.8040359043838956,-5.325147840711805,-0.06785074869791667,3.9354705810546875,0.6348,0.4133,2.5553,-0.00879,-0.02953,-0.0157,0.0008094813674688339,0.0010025600204244256,0.0009768037125468254,0.00042057805694639683,0.0004999744705855846,0.0004168389132246375,0.011790072545409203,0.008903514593839645,0.011541634798049927,passive,1
2.601,rehab,small_fast,54.68404528898955,-666.6283306051471,284.0008457165188,-177.3881871532481,0.13195086599479572,-149.98654423396866,43.9443,0.0431,-39.3628,-36.8931,-0.6243,-74.25,82.18818362396543,28.52540950963993,84.52304349087252,-25.06238301595052,-89.02427673339844,-37.89260016547309,3.9724210229250465,2.448754641089109,2.927645692730894,-5.487781100802951,-0.06785074869791667,3.799769083658854,0.6162,0.3189,2.1425,-0.01681,-0.0338,-0.01816,0.0008094813674688339,0.0010025600204244256,0.0009768037125468254,0.00042057805694639683,0.0004999744705855846,0.0004168389132246375,0.011790072545409203,0.008903514593839645,0.011541634798049927,passive,1
2.6211,rehab,small_fast,55.7605905256224,-666.6261732241426,283.01937289475904,-177.38720063648307,0.13116241113502203,-149.98578943996324,43.8534,0.0324,-41.2262,-35.3074,-0.9339,-72.7592,82.28247160958772,28.587506738039526,84.5947537563815,-25.200203789605034,-89.02704026963976,-37.800632052951386,3.754754396948484,2.8296661376953125,3.183376954333617,-5.91428968641493,-0.06785074869791667,4.0033213297526045,0.534,0.4772,2.5573,-0.01045,-0.02734,-0.01209,0.0008094813674688339,0.0010025600204244256,0.0009768037125468254,0.00042057805694639683,0.0004999744705855846,0.0004168389132246375,0.011790072545409203,0.008903514593839645,0.011541634798049927,passive,1
2.6407,rehab,small_fast,56.474478324130835,-666.6265471648408,282.3330568059018,-177.38669285859632,0.13081131608361993,-149.98571375232882,43.7234,-0.0038,-43.2503,-24.3289,-1.0216,-77.3809,82.3450243355024,28.631071336198563,84.64457294728496,-25.296037462022568,-89.02882893880208,-37.73924085828993,3.8635911091719524,2.7752511808187657,3.2339507754486387,-6.289588080512153,-0.20355224609375,3.7319098578559027,0.6481,0.4258,2.4205,-0.00674,-0.02411,-0.01506,0.0008094813674688339,0.0010025600204244256,0.0009768037125468254,0.00042057805694639683,0.0004999744705855846,0.0004168389132246375,0.011790072545409203,0.008903514593839645,0.011541634798049927,passive,1
2.6609,rehab,small_fast,57.54379904035852,-666.6274146139284,281.2540302257288,-177.38704929084622,0.13106162931759197,-149.98438605037308,43.0462,-0.0405,-44.5827,-11.8598,-1.0048,-78.6266,82.43874124961324,28.69964070839457,84.72225226978264,-25.444556342230904,-89.03151618109808,-37.648535834418404,3.8635911091719524,2.938502849918781,3.351972221147896,-6.357430352105035,-0.13570149739583334,3.7319098578559027,0.7746,0.6172,2.1316,0.00076,-0.02566,-0.01362,0.0008094813674688339,0.0010025600204244256,0.0009768037125468254,0.00042057805694639683,0.0004999744705855846,0.0004168389132246375,0.011790072545409203,0.008903514593839645,0.011541634798049927,passive,1
2.6809,rehab,small_fast,58.240425767064075,-666.6271706751916,280.501299419884,-177.38858790766938,0.13224104238925358,-149.9845124010949,42.8995,-0.0555,-46.2321,-0.2695,-0.9866,-80.9859,82.49979831204556,28.747318381130103,84.77610295361812,-25.545934041341145,-89.03327094184027,-37.5885009765625,3.64592448319539,3.1561694758953434,3.3733398135345762,-6.511527167426215,-0.06785074869791667,3.8676198323567705,0.6834,0.4968,1.6376,0.00336,-0.02778,-0.0106,0.0008094813674688339,0.0010025600204244256,0.0009768037125468254,0.00042057805694639683,0.0004999744705855846,0.0004168389132246375,0.011790072545409203,0.008903514593839645,0.011541634798049927,passive,1
2.7009,rehab,small_fast,58.93277628213192,-666.6275884191883,279.7370542881757,-177.38960579465484,0.13307849553353546,-149.98469891049794,42.2884,-0.0534,-47.0831,5.4606,-0.5808,-74.7613,82.56048825707767,28.795825467251316,84.83087143095413,-25.64966837565104,-89.03495788574219,-37.52879672580295,3.8635911091719524,3.1017545190187965,3.527005639406714,-6.6326141357421875,-0.13570149739583334,3.7319098578559027,0.5171,0.4614,2.4843,-0.02857,-0.02097,-0.01777,0.0008094813674688339,0.0010025600204244256,0.0009768037125468254,0.00042057805694639683,0.0004999744705855846,0.0004168389132246375,0.011790072545409203,0.008903514593839645,0.011541634798049927,passive,1
2.7213,rehab,small_fast,60.11229690775446,-666.6327743337384,278.401562198477,-177.38913977411286,0.13276080628338477,-149.98632092560092,42.9126,-0.0541,-49.0926,2.0825,0.3679,-54.2756,82.66396777464611,28.881112278097927,84.9268386387589,-25.834545559353298,-89.03789944118924,-37.425782945421005,3.5370877709719215,2.992917806795328,3.433132360477259,-6.551301744249132,-0.13570149739583334,3.799769083658854,0.5938,0.562,2.0997,0.00068,-0.02593,-0.00916,0.0008094813674688339,0.0010025600204244256,0.0009768037125468254,0.00042057805694639683,0.0004999744705855846,0.0004168389132246375,0.011790072545409203,0.008903514593839645,0.011541634798049927,passive,1
2.7408,rehab,small_fast,60.77599391596655,-666.6340238166185,277.6414976244172,-177.38762512702235,0.13161763773553983,-149.98798911111058,43.1543,-0.0572,-50.1969,1.4093,1.23,-36.9293,82.72218987493231,28.929524185633895,84.98228696313235,-25.94204372829861,-89.03957790798611,-37.36710442437066,3.64592448319539,2.992917806795328,3.4270613264329364,-6.801927354600695,-0.13570149739583334,3.664059109157986,0.681,0.5707,2.0709,-0.00573,-0.01789,-0.01082,0.0008094813674688339,0.0010025600204244256,0.0009768037125468254,0.00042057805694639683,0.0004999744705855846,0.0004168389132246375,0.011790072545409203,0.008903514593839645,0.011541634798049927,passive,1
2.7611,rehab,small_fast,61.77904536821583,-666.6322767629581,276.4784388038772,-177.38581572287325,0.13020270081676386,-149.98952051316388,43.2628,-0.0583,-50.8455,-2.8225,1.5589,-17.2107,82.81014848463606,29.003539132599784,85.06706388870089,-26.105728149414062,-89.04212103949652,-37.279459635416664,3.809169353825031,3.1017545190187965,3.64756971302599,-6.69767591688368,-0.06785074869791667,3.664059109157986,0.7383,0.5883,1.7486,-0.00346,-0.0314,-0.01155,0.0008094813674688339,0.0010025600204244256,0.0009768037125468254,0.00042057805694639683,0.0004999744705855846,0.0004168389132246375,0.011790072545409203,0.008903514593839645,0.011541634798049927,passive,1
2.7807,rehab,small_fast,62.465041301834816,-666.6305475484024,275.66414916006397,-177.38742634172814,0.131437567744818,-149.98907024808025,43.9189,-0.0159,-51.7447,-13.1407,1.3621,4.2784,82.87028095509746,29.0558125713084,85.12436139701616,-26.21499803331163,-89.04378255208333,-37.221009996202255,3.918006066048499,3.2650061881188117,3.5522279644956685,-6.751505533854166,-0.13570149739583334,3.664059109157986,0.5847,0.4873,1.573,-0.01072,-0.02921,-0.00677,0.0008094813674688339,0.0010025600204244256,0.0009768037125468254,0.00042057805694639683,0.0004999744705855846,0.0004168389132246375,0.011790072545409203,0.008903514593839645,0.011541634798049927,passive,1
2.8007,rehab,small_fast,63.50137011179256,-666.6327591850561,274.42534911688745,-177.39048635273798,0.133855527378957,-149.98780534750307,42.4125,0.0635,-50.1625,-22.6383,0.9987,21.0307,82.96116290706219,29.136449228418936,85.20947144763305,-26.379436916775173,-89.04620700412326,-37.13324652777778,3.754754396948484,3.428251058748453,3.3952784774327043,-6.949267917209201,-0.06785074869791667,3.596208360460069,0.4934,0.6294,2.5043,-0.01515,-0.01456,-0.0129,0.0008094813674688339,0.0010025600204244256,0.0009768037125468254,0.00042057805694639683,0.0004999744705855846,0.0004168389132246375,0.011790072545409203,0.008903514593839645,0.011541634798049927,passive,1
2.8211,rehab,small_fast,64.18092720246908,-666.634601521638,273.6174660602107,-177.39100618587113,0.13422428565438607,-149.9868935332081,41.586,0.1063,-49.1986,-28.1516,0.587,28.3824,83.02077869377514,29.189273343227878,85.26533447869933,-26.489181518554688,-89.04786003960503,-37.0757802327474,3.754754396948484,3.2650061881188117,3.291866944567992,-6.7523193359375,-0.06785074869791667,3.528349134657118,0.4325,0.5214,1.9281,-0.01766,-0.01031,-0.00699,0.0008094813674688339,0.0010025600204244256,0.0009768037125468254,0.00042057805694639683,0.0004999744705855846,0.0004168389132246375,0.011790072545409203,0.008903514593839645,0.011541634798049927,passive,1
2.8411,rehab,small_fast,65.18153099229798,-666.6330271340711,272.43509954031265,-177.389722343499,0.13315873306855464,-149.98722271607937,41.763,0.0839,-49.4709,-25.0002,-0.0516,21.6813,83.10854014783803,29.266340803391863,85.34853415914101,-26.653654310438366,-89.05039469401042,-36.989542643229164,3.64592448319539,3.2650061881188117,3.511545917775371,-6.948394775390625,-0.13570149739583334,3.596208360460069,0.6241,0.5157,1.9926,-0.00904,-0.0189,-0.01055,0.0008094813674688339,0.0010025600204244256,0.0009768037125468254,0.00042057805694639683,0.0004999744705855846,0.0004168389132246375,0.011790072545409203,0.008903514593839645,0.011541634798049927,passive,1
2.8606,rehab,small_fast,65.85388496472912,-666.6289275650731,271.65289563359386,-177.38840401432506,0.13215303835752212,-149.9865765067849,40.613,0.0286,-48.3605,-17.2405,-0.9227,8.1584,83.16746928904315,29.317329331199723,85.40381932022548,-26.763263278537327,-89.05203077528212,-36.93249172634548,3.7003394400719367,3.1561694758953434,3.448333740234375,-6.85225592719184,-0.13570149739583334,3.7319098578559027,0.6108,0.5849,1.7971,-0.00636,-0.01678,-0.00999,0.0008094813674688339,0.0010025600204244256,0.0009768037125468254,0.00042057805694639683,0.0004999744705855846,0.0004168389132246375,0.011790072545409203,0.008903514593839645,0.011541634798049927,passive,1
2.881,rehab,small_fast,66.87281921572617,-666.6219586993872,270.4492833320928,-177.3890166514378,0.13266318604239583,-149.98535283089038,40.533,0.0017,-48.5763,-5.0077,-1.7137,-9.5268,83.2567536004699,29.39632755695003,85.4868218450263,-26.926998562282986,-89.05444675021701,-36.84627109103732,3.754754396948484,3.428251058748453,3.4534801823077816,-6.972308688693576,-0.06785074869791667,3.664059109157986,0.4101,0.6695,1.5474,-0.01744,-0.02087,-0.00756,0.0008094813674688339,0.0010025600204244256,0.0009768037125468254,0.00042057805694639683,0.0004999744705855846,0.0004168389132246375,0.011790072545409203,0.008903514593839645,0.011541634798049927,passive,1
2.9006,rehab,small_fast,67.548181197334,-666.6233052177878,269.63685070312215,-177.3897737775104,0.13327137249314372,-149.9845098049,40.846,-0.0058,-49.2578,6.183,-1.6494,-22.4569,83.31599547131226,29.45062014135984,85.54112802637685,-27.036302354600693,-89.05604044596355,-36.78910149468316,3.809169353825031,3.373836101871906,3.393204943968518,-6.982625325520833,-0.06785074869791667,3.664059109157986,0.4282,0.4861,1.5326,-0.03585,-0.01566,-0.00927,0.0008094813674688339,0.0010025600204244256,0.0009768037125468254,0.00042057805694639683,0.0004999744705855846,0.0004168389132246375,0.011790072545409203,0.008903514593839645,0.011541634798049927,passive,1
2.9209,rehab,small_fast,68.20776711502982,-666.627566444797,268.8304056058777,-177.390001346958,0.13345339634464248,-149.98475087667472,40.998,-0.0301,-49.8208,17.4091,-0.6407,-31.3744,83.37389804349087,29.50493312118077,85.59462518975286,-27.145487467447914,-89.05765109592014,-36.732186211480034,3.5370877709719215,3.482672814095374,3.403178300007735,-6.802156236436632,-0.06785074869791667,3.596208360460069,0.4962,0.5654,2.1901,-0.03085,-0.02199,-0.01138,0.0008094813674688339,0.0010025600204244256,0.0009768037125468254,0.00042057805694639683,0.0004999744705855846,0.0004168389132246375,0.011790072545409203,0.008903514593839645,0.011541634798049927,passive,1
2.9407,rehab,small_fast,69.17760843229082,-666.6347400112653,267.62652594364266,-177.39032101334914,0.13367053466218404,-149.9865378810528,41.6439,-0.0572,-50.9167,25.8956,0.5567,-34.4492,83.45906248187075,29.586392393206605,85.67394294361077,-27.308366563585068,-89.06009250217014,-36.647067599826386,3.5915027278484684,3.1017545190187965,3.3414617859491025,-6.885918511284722,-0.06785074869791667,3.4604983859592013,0.5784,0.6478,1.6574,-0.00306,-0.01699,-0.00631,0.0008094813674688339,0.0010025600204244256,0.0009768037125468254,0.00042057805694639683,0.0004999744705855846,0.0004168389132246375,0.011790072545409203,0.008903514593839645,0.011541634798049927,passive,1
2.9607,rehab,small_fast,69.98497648506302,-666.6350856729433,266.6357736858692,-177.3897209126323,0.13323286240411353,-149.9882346643601,41.5638,-0.0667,-50.9064,14.2907,1.18,-14.8888,83.5299025431718,29.653180566164526,85.74009206035349,-27.44411892361111,-89.0621100531684,-36.57605489095052,3.428251058748453,3.319421144995359,3.139329664778001,-6.88462151421441,-0.06785074869791667,3.4604983859592013,0.4842,0.6494,1.2389,-0.01001,-0.0318,-0.00469,0.0008094813674688339,0.0010025600204244256,0.0009768037125468254,0.00042057805694639683,0.0004999744705855846,0.0004168389132246375,0.011790072545409203,0.008903514593839645,0.011541634798049927,passive,1
2.9809,rehab,small_fast,70.97867577603655,-666.6296439358846,265.44190729184777,-177.3894100877101,0.13301848884834605,-149.9874691884909,41.9184,-0.0279,-51.096,-5.5572,1.0802,10.4484,83.61701134407875,29.73376963398244,85.81949139585589,-27.606947157118054,-89.06450059678819,-36.49153815375434,3.809169353825031,3.428251058748453,3.2347937857750617,-6.683197021484375,-0.13570149739583334,3.4604983859592013,0.6376,0.4717,1.5196,-0.02195,-0.03824,-0.01239,0.0008094813674688339,0.0010025600204244256,0.0009768037125468254,0.00042057805694639683,0.0004999744705855846,0.0004168389132246375,0.011790072545409203,0.008903514593839645,0.011541634798049927,passive,1
3.001,rehab,small_fast,71.64251368901998,-666.6290073322768,264.63475861747315,-177.38997041554455,0.13345010644295952,-149.98720918462558,42.7881,0.0426,-51.739,-14.1016,0.7685,19.9775,83.67523344436495,29.78893242260017,85.87173084221264,-27.71529303656684,-89.06610276963976,-36.43479241265191,3.754754396948484,3.428251058748453,3.255162003016708,-6.72239515516493,-0.13570149739583334,3.528349134657118,0.6075,0.5533,2.1965,-0.02683,-0.03727,-0.01441,0.0008094813674688339,0.0010025600204244256,0.0009768037125468254,0.00042057805694639683,0.0004999744705855846,0.0004168389132246375,0.011790072545409203,0.008903514593839645,0.011541634798049927,passive,1
3.021,rehab,small_fast,72.6344211513651,-666.6286850994932,263.42274286515885,-177.39076807239488,0.133998960756099,-149.98602750631133,42.8229,0.095,-51.5503,-19.1994,0.3844,24.4752,83.76224026821627,29.87224767703821,85.94945775400294,-27.8778076171875,-89.06851874457465,-36.350792778862846,3.5915027278484684,3.5370877709719215,3.2321083899771814,-6.609293619791666,-0.13570149739583334,3.7319098578559027,0.4194,0.5325,1.3276,-0.034,-0.01525,-0.01138,0.0008094813674688339,0.0010025600204244256,0.0009768037125468254,0.00042057805694639683,0.0004999744705855846,0.0004168389132246375,0.011790072545409203,0.008903514593839645,0.011541634798049927,passive,1
3.0407,rehab,small_fast,73.29386582122949,-666.63025626894,262.6317440342959,-177.38987903649848,0.13335877660032505,-149.9858618277136,40.5337,0.0839,-48.936,-21.3233,-0.1717,23.8418,83.82010204957263,29.927152123781713,86.00000438123647,-27.985992431640625,-89.07012091742621,-36.294309828016495,3.5370877709719215,3.64592448319539,3.214717902759514,-6.632258097330729,-0.13570149739583334,3.4604983859592013,0.5398,0.6871,1.9312,-0.00744,-0.02295,-0.01073,0.0008094813674688339,0.0010025600204244256,0.0009768037125468254,0.00042057805694639683,0.0004999744705855846,0.0004168389132246375,0.011790072545409203,0.008903514593839645,0.011541634798049927,passive,1
3.0611,rehab,small_fast,74.27449108066072,-666.6291202442908,261.4554800763441,-177.38797508243385,0.13196981306864622,-149.98561062718082,39.1668,0.0103,-47.7437,-19.0016,-0.9299,15.4153,83.9061162967493,30.008760962155787,86.07556258097733,-28.14794752332899,-89.072511461046,-36.210361056857636,3.5915027278484684,3.482672814095374,3.122578233775526,-7.01554192437066,-0.13570149739583334,3.4604983859592013,0.5995,0.661,1.4604,-0.01488,-0.016,-0.00942,0.0008094813674688339,0.0010025600204244256,0.0009768037125468254,0.00042057805694639683,0.0004999744705855846,0.0004168389132246375,0.011790072545409203,0.008903514593839645,0.011541634798049927,passive,1
3.0812,rehab,small_fast,74.93883092477512,-666.6273023948869,260.66743390667915,-177.3870185683368,0.13127494326276026,-149.98495189238562,40.0545,-0.0386,-49.1165,-15.3583,-1.5617,6.0685,83.96437238938738,30.06374699054378,86.12555853211053,-28.25574239095052,-89.07412211100261,-36.153971354166664,3.5915027278484684,3.428251058748453,3.1425657366762065,-6.843516031901041,-0.06785074869791667,3.528349134657118,0.5558,0.703,1.2722,-0.02171,-0.00922,-0.00435,0.0008094813674688339,0.0010025600204244256,0.0009768037125468254,0.00042057805694639683,0.0004999744705855846,0.0004168389132246375,0.011790072545409203,0.008903514593839645,0.011541634798049927,passive,1
3.101,rehab,small_fast,75.92634566739154,-666.6240627723632,259.45074328441285,-177.3885391776792,0.1323783923855955,-149.98444611946152,40.6303,-0.0451,-49.8208,-5.8964,-1.5174,-3.9099,84.05096450654587,30.148863839631034,86.20102835173654,-28.416883680555554,-89.07652960883246,-36.06969197591146,3.482672814095374,3.64592448319539,3.2444884045289295,-6.766416761610243,-0.06785074869791667,3.4604983859592013,0.6043,0.6965,1.1557,-0.02188,-0.01849,-0.00922,0.0008094813674688339,0.0010025600204244256,0.0009768037125468254,0.00042057805694639683,0.0004999744705855846,0.0004168389132246375,0.011790072545409203,0.008903514593839645,0.011541634798049927,passive,1
3.1207,rehab,small_fast,76.57092882049973,-666.6265687674716,258.63006205930554,-177.3904621540819,0.13376083601747105,-149.98490455730928,40.3465,-0.0465,-49.4696,13.5362,-0.6329,-18.9002,84.1075345785311,30.206963567450494,86.25040564206567,-28.523601955837673,-89.07813178168402,-36.01386176215278,3.428251058748453,3.7003394400719367,3.0626769113068533,-6.783447265625,-0.13570149739583334,3.596208360460069,0.6491,0.6836,1.551,0.00101,-0.02659,-0.00218,0.0008094813674688339,0.0010025600204244256,0.0009768037125468254,0.00042057805694639683,0.0004999744705855846,0.0004168389132246375,0.011790072545409203,0.008903514593839645,0.011541634798049927,passive,1
3.1411,rehab,small_fast,77.20983816124355,-666.6312786284319,257.82100551944086,-177.3910842133806,0.13418050879448443,-149.9861502053771,40.6636,-0.0542,-50.0264,31.4933,0.5969,-30.1649,84.16363555606048,30.26466898398824,86.29900110830175,-28.63076951768663,-89.07975938585069,-35.95771789550781,3.5370877709719215,3.5370877709719215,2.9705644362043624,-6.677441067165798,-0.06785074869791667,3.596208360460069,0.5368,0.5977,1.2664,-0.02418,-0.02175,-0.00993,0.0008094813674688339,0.0010025600204244256,0.0009768037125468254,0.00042057805694639683,0.0004999744705855846,0.0004168389132246375,0.011790072545409203,0.008903514593839645,0.011541634798049927,passive,1
3.1608,rehab,small_fast,78.33348298461928,-666.636453186516,256.4516982703554,-177.38833364920222,0.13221647318222704,-149.98819618784904,40.9994,-0.0626,-50.5812,27.8846,1.168,-20.5964,84.26226096578164,30.36275051607944,86.38239794438428,-28.818461100260414,-89.08256530761719,-35.85914611816406,3.64592448319539,3.482672814095374,2.9498019076810023,-6.6701507568359375,-0.06785074869791667,3.664059109157986,0.6845,0.6337,1.5417,-0.02128,-0.02645,-0.01336,0.0008094813674688339,0.0010025600204244256,0.0009768037125468254,0.00042057805694639683,0.0004999744705855846,0.0004168389132246375,0.011790072545409203,0.008903514593839645,0.011541634798049927,passive,1
3.1811,rehab,small_fast,78.99852247354684,-666.6331599267147,255.66833559855434,-177.3870740666881,0.13132046992227422,-149.9872892989103,41.1198,-0.0408,-50.3271,17.5576,0.9645,-8.6069,84.32055784924195,30.418776710434717,86.43014360182356,-28.925391303168404,-89.08416748046875,-35.802951388888886,3.64592448319539,3.482672814095374,3.0726910581683167,-6.604673597547743,-0.06785074869791667,3.392647637261285,0.6342,0.6423,1.6063,-0.02809,-0.01854,-0.01384,0.0008094813674688339,0.0010025600204244256,0.0009768037125468254,0.00042057805694639683,0.0004999744705855846,0.0004168389132246375,0.011790072545409203,0.008903514593839645,0.011541634798049927,passive,1
3.2011,rehab,small_fast,80.00074696042455,-666.6315997761359,254.46201638244818,-177.3874653947956,0.13161633389658742,-149.9867581879861,41.7171,0.0131,-50.2682,12.7598,0.6408,-4.2423,84.40844167577158,30.505871914400913,86.50126240040996,-29.085566202799477,-89.08661736382378,-35.71739196777344,3.64592448319539,3.64592448319539,2.995276876015238,-6.873499552408854,-0.06785074869791667,3.7319098578559027,0.6378,0.8066,2.2194,-0.02116,-0.01377,-0.01116,0.0008094813674688339,0.0010025600204244256,0.0009768037125468254,0.00042057805694639683,0.0004999744705855846,0.0004168389132246375,0.011790072545409203,0.008903514593839645,0.011541634798049927,passive,1
3.2215,rehab,small_fast,80.65384814229664,-666.6313146409955,253.64690116278942,-177.38885048993572,0.13255015817961202,-149.98743930608302,43.2592,0.0577,-51.6565,1.0414,0.3834,10.5468,84.46573238561649,30.564889435720914,86.54855935880454,-29.191835191514755,-89.08829583062065,-35.66061231825087,3.7003394400719367,3.809169353825031,2.997887488639001,-6.720326741536458,-0.13570149739583334,3.528349134657118,0.7089,0.6446,1.7077,-0.02479,-0.0196,-0.01362,0.0008094813674688339,0.0010025600204244256,0.0009768037125468254,0.00042057805694639683,0.0004999744705855846,0.0004168389132246375,0.011790072545409203,0.008903514593839645,0.011541634798049927,passive,1
3.2408,rehab,small_fast,81.63901677025056,-666.6313874568434,252.4300807118795,-177.39047165901323,0.13369301801649927,-149.9881761235657,43.167,0.0509,-51.5751,-11.9646,-0.0298,25.7395,84.55214094407488,30.653616272576965,86.61836605260868,-29.35082329644097,-89.09076266818576,-35.575247870551216,3.5915027278484684,3.7003394400719367,2.949903884736618,-6.686130099826388,-0.20355224609375,3.596208360460069,0.5831,0.6893,1.3593,-0.02297,-0.02596,-0.00738,0.0008094813674688339,0.0010025600204244256,0.0009768037125468254,0.00042057805694639683,0.0004999744705855846,0.0004168389132246375,0.011790072545409203,0.008903514593839645,0.011541634798049927,passive,1
3.2608,rehab,small_fast,82.30917398545292,-666.6308716140717,251.650628618519,-177.3888233073112,0.132578401417215,-149.98800790846238,41.2831,-0.0016,-49.6083,-20.2565,-0.6552,29.7251,84.61090012352065,30.710988564066366,86.66346710507233,-29.456922743055554,-89.09237331814236,-35.51784091525607,3.809169353825031,3.5370877709719215,2.7797653651473544,-6.669837103949653,-0.13570149739583334,3.528349134657118,0.6078,0.7237,1.6063,-0.02226,-0.01743,-0.00989,0.0008094813674688339,0.0010025600204244256,0.0009768037125468254,0.00042057805694639683,0.0004999744705855846,0.0004168389132246375,0.011790072545409203,0.008903514593839645,0.011541634798049927,passive,1
3.2809,rehab,small_fast,83.3399148109019,-666.628669823621,250.4768273029938,-177.38668828516228,0.13107077296639,-149.98544890295605,40.9659,-0.032,-49.3162,-27.3673,-1.1127,30.2161,84.70125179479618,30.798022581799195,86.730214487208,-29.61576673719618,-89.09485710991753,-35.43182373046875,3.7003394400719367,3.64592448319539,2.8145327426419398,-6.41495598687066,-0.06785074869791667,3.664059109157986,0.5924,0.675,1.3798,-0.02381,-0.02911,-0.01497,0.0008094813674688339,0.0010025600204244256,0.0009768037125468254,0.00042057805694639683,0.0004999744705855846,0.0004168389132246375,0.011790072545409203,0.008903514593839645,0.011541634798049927,passive,1
3.3008,rehab,small_fast,84.01567494681284,-666.6302169733381,249.66425614213364,-177.38757304110476,0.1316824146299421,-149.9853563550104,40.3844,-0.0273,-48.3271,-30.6161,-0.9313,31.1396,84.76052085952003,30.858617348246053,86.77476486357132,-29.721484714084202,-89.09655253092448,-35.373831854926216,3.809169353825031,3.754754396948484,2.8225685346244584,-6.442769368489583,-0.13570149739583334,3.528349134657118,0.701,0.6928,1.468,-0.02177,-0.01536,-0.01594,0.0008094813674688339,0.0010025600204244256,0.0009768037125468254,0.00042057805694639683,0.0004999744705855846,0.0004168389132246375,0.011790072545409203,0.008903514593839645,0.011541634798049927,passive,1
3.3211,rehab,small_fast,85.01101873897396,-666.6328083730024,248.4238580256642,-177.3906369717762,0.133796340758248,-149.98704115760347,39.8854,-0.0409,-47.5381,-13.689,-0.1161,11.7146,84.84783361453822,30.951226111685877,86.84183177381459,-29.879913330078125,-89.09912109375,-35.28661092122396,3.5915027278484684,3.809169353825031,2.8803283389252012,-6.712527804904513,-0.06785074869791667,3.528349134657118,0.7621,0.8018,2.1009,-0.02572,-0.0245,-0.01807,0.0008094813674688339,0.0010025600204244256,0.0009768037125468254,0.00042057805694639683,0.0004999744705855846,0.0004168389132246375,0.011790072545409203,0.008903514593839645,0.011541634798049927,passive,1
3.3409,rehab,small_fast,85.66783796887154,-666.6346549092863,247.61400417346792,-177.3915301247101,0.1344069402781563,-149.98857614054216,40.1131,-0.0535,-48.0804,15.2269,0.8235,-24.6448,84.90545065096109,31.012011235303216,86.88562751996635,-29.985054863823784,-89.10081651475694,-35.228635999891495,3.5370877709719215,3.754754396948484,2.720258353960396,-6.703516642252604,-0.06785074869791667,3.664059109157986,0.5516,0.7172,1.1902,-0.04622,-0.00813,-0.01346,0.0008094813674688339,0.0010025600204244256,0.0009768037125468254,0.00042057805694639683,0.0004999744705855846,0.0004168389132246375,0.011790072545409203,0.008903514593839645,0.011541634798049927,passive,1
3.3608,rehab,small_fast,86.32685336424836,-666.6344734422399,246.8182378840972,-177.39120545283822,0.13417686902656606,-149.98960138234818,40.2607,-0.0399,-48.8216,24.3809,1.3726,-43.0179,84.96323764914334,31.071830976127398,86.92909014106976,-30.09036593967014,-89.10248650444878,-35.171000162760414,3.5915027278484684,3.64592448319539,2.647868241413985,-6.716834174262153,-0.13570149739583334,3.528349134657118,0.7335,0.7446,1.5102,-0.03711,-0.01902,-0.01461,0.0008094813674688339,0.0010025600204244256,0.0009768037125468254,0.00042057805694639683,0.0004999744705855846,0.0004168389132246375,0.011790072545409203,0.008903514593839645,0.011541634798049927,passive,1
3.3809,rehab,small_fast,87.3327287232373,-666.6325449111217,245.6457359966383,-177.38894139244954,0.13263620503751505,-149.9888164245354,40.4595,0.0066,-49.2924,17.6454,1.3719,-46.2033,85.05140021295831,31.160585006864945,86.99295497176671,-30.24814181857639,-89.10492791069878,-35.08538140190972,3.754754396948484,3.754754396948484,2.5850707705658262,-6.588838365342882,-0.06785074869791667,3.528349134657118,0.7105,0.7345,1.1823,-0.03248,-0.0155,-0.01268,0.0008094813674688339,0.0010025600204244256,0.0009768037125468254,0.00042057805694639683,0.0004999744705855846,0.0004168389132246375,0.011790072545409203,0.008903514593839645,0.011541634798049927,passive,1
3.4011,rehab,small_fast,87.99898342035513,-666.6342060799478,244.8584257770542,-177.387817286145,0.13181637429067244,-149.98752654774304,41.2359,0.0596,-50.3481,5.7977,1.1464,-38.8792,85.10981946888536,31.22072427579672,87.03475876609878,-30.35305447048611,-89.10657246907552,-35.02942403157552,3.64592448319539,3.754754396948484,2.5934940753596845,-6.558041042751736,-0.13570149739583334,3.4604983859592013,0.7142,0.7392,1.7111,-0.03546,-0.00844,-0.01624,0.0008094813674688339,0.0010025600204244256,0.0009768037125468254,0.00042057805694639683,0.0004999744705855846,0.0004168389132246375,0.011790072545409203,0.008903514593839645,0.011541634798049927,passive,1
3.421,rehab,small_fast,88.97207546008016,-666.6351036066728,243.6516726694684,-177.38816912641522,0.13210487887652006,-149.98710942330197,42.6953,0.0864,-52.7346,-16.9065,0.6678,-9.6578,85.1951266751431,31.312578409024983,87.09841964268448,-30.510457356770832,-89.10892910427518,-34.9462890625,3.482672814095374,3.7003394400719367,2.6569374008934097,-6.650195651584201,-0.06785074869791667,3.324796888563368,0.615,0.7998,1.3257,-0.03001,-0.01677,-0.00867,0.0008094813674688339,0.0010025600204244256,0.0009768037125468254,0.00042057805694639683,0.0004999744705855846,0.0004168389132246375,0.011790072545409203,0.008903514593839645,0.011541634798049927,passive,1
3.4408,rehab,small_fast,89.7635100858851,-666.6311345367758,242.6411352162795,-177.38927907610505,0.13295286572754625,-149.98629614240608,41.7118,0.0912,-52.4222,-41.9736,-0.2559,28.1568,85.26446427449142,31.389034006855276,87.15214795405322,-30.641131930881077,-89.11077711317274,-34.87921820746528,3.373836101871906,3.64592448319539,2.6443670291711787,-6.6593678792317705,-0.06785074869791667,3.392647637261285,0.7894,0.9181,2.2538,-0.02842,-0.027,-0.0183,0.0008094813674688339,0.0010025600204244256,0.0009768037125468254,0.00042057805694639683,0.0004999744705855846,0.0004168389132246375,0.011790072545409203,0.008903514593839645,0.011541634798049927,passive,1
3.4611,rehab,small_fast,90.69549473534516,-666.6280849314278,241.4508225259076,-177.3896576911874,0.1332576720531626,-149.98585048879025,39.5406,0.0636,-50.6194,-59.7144,-1.2696,59.7368,85.34613429909885,31.47966441541615,87.21495222337175,-30.796313815646702,-89.11300659179688,-34.799719916449654,3.482672814095374,3.7003394400719367,2.5236737846147896,-6.342553032769097,-0.13570149739583334,3.121236165364583,0.7773,0.9719,1.6224,-0.01591,-0.01957,-0.00955,0.0008094813674688339,0.0010025600204244256,0.0009768037125468254,0.00042057805694639683,0.0004999744705855846,0.0004168389132246375,0.011790072545409203,0.008903514593839645,0.011541634798049927,passive,1
3.4807,rehab,small_fast,91.32517870745085,-666.6257174378145,240.66413730690826,-177.38974726501266,0.1332861323216141,-149.98392371824238,38.3302,0.0209,-49.3628,-62.1708,-1.662,77.9638,85.40130388618695,31.54000763845916,87.25581103032178,-30.89888678656684,-89.11451551649306,-34.74761962890625,3.482672814095374,3.8635911091719524,2.616472905225093,-6.199103461371528,-0.06785074869791667,3.1890869140625,0.7251,0.7054,1.4801,-0.04048,-0.02984,-0.01267,0.0008094813674688339,0.0010025600204244256,0.0009768037125468254,0.00042057805694639683,0.0004999744705855846,0.0004168389132246375,0.011790072545409203,0.008903514593839645,0.011541634798049927,passive,1
3.5007,rehab,small_fast,92.239743764346,-666.6262180917583,239.48895770043183,-177.3907687611904,0.13395877901235767,-149.9837631576989,36.7368,-0.014,-46.6788,-46.2684,-1.3514,84.466,85.48147144884166,31.63069243478303,87.31554918950147,-31.050279405381943,-89.11677890353732,-34.66929965549045,3.319421144995359,3.809169353825031,2.610578631410504,-6.287044949001736,-0.06785074869791667,3.1890869140625,0.8888,0.901,2.015,-0.01701,-0.0346,-0.01728,0.0008094813674688339,0.0010025600204244256,0.0009768037125468254,0.00042057805694639683,0.0004999744705855846,0.0004168389132246375,0.011790072545409203,0.008903514593839645,0.011541634798049927,passive,1
3.5208,rehab,small_fast,92.83481832701108,-666.6269955889402,238.72163753928615,-177.39154068512994,0.13439751505379488,-149.98491339088034,35.6642,-0.0549,-44.4553,-8.402,-0.6669,69.8486,85.53364970896503,31.690192647499615,87.35406252417233,-31.148868136935764,-89.11835564507378,-34.61707221137153,3.2650061881188117,3.64592448319539,2.276685355913521,-6.044116550021701,-0.13570149739583334,3.324796888563368,0.7124,0.9808,1.5319,-0.03327,-0.01707,-0.01463,0.0008094813674688339,0.0010025600204244256,0.0009768037125468254,0.00042057805694639683,0.0004999744705855846,0.0004168389132246375,0.011790072545409203,0.008903514593839645,0.011541634798049927,passive,1
3.5407,rehab,small_fast,93.4265980499052,-666.6296360275709,237.9778758892288,-177.39102297462696,0.13402590808971726,-149.98667969957347,35.8175,-0.0776,-43.3551,36.5336,0.2446,45.4777,85.58554243333269,31.748428344726562,87.3910394045386,-31.246185302734375,-89.11989000108507,-34.56449720594618,3.2650061881188117,3.373836101871906,2.2629796396387687,-5.854068332248263,-0.06785074869791667,3.324796888563368,0.9173,1.0295,1.8404,-0.02647,-0.01584,-0.01511,0.0008094813674688339,0.0010025600204244256,0.0009768037125468254,0.00042057805694639683,0.0004999744705855846,0.0004168389132246375,0.011790072545409203,0.008903514593839645,0.011541634798049927,passive,1
3.561,rehab,small_fast,94.33540045937715,-666.6346128356702,236.90566901305905,-177.38900733893522,0.13268342723191934,-149.9878274544037,37.6051,-0.0412,-43.7046,68.7077,1.2072,32.5058,85.66520690917969,31.83369476016205,87.44272817479502,-31.387769911024304,-89.12217881944444,-34.48526170518663,3.428251058748453,3.5370877709719215,2.0779796638111074,-5.727903578016493,-0.13570149739583334,3.324796888563368,0.7227,0.967,1.9625,-0.03807,-0.00831,-0.01142,0.0008094813674688339,0.0010025600204244256,0.0009768037125468254,0.00042057805694639683,0.0004999744705855846,0.0004168389132246375,0.011790072545409203,0.008903514593839645,0.011541634798049927,passive,1
3.5809,rehab,small_fast,94.96626760676263,-666.6339560586076,236.21067724686574,-177.38803340666257,0.13204358698293817,-149.98736134608617,39.64,0.014,-43.5516,81.9963,1.6531,29.6116,85.72045807791228,31.8894626126431,87.47525885553644,-31.478729248046875,-89.1237555609809,-34.431491427951386,3.428251058748453,3.5915027278484684,2.0166098717415686,-5.707795884874132,-0.06785074869791667,3.4604983859592013,0.8896,0.9148,1.0643,-0.02228,-0.01027,-0.01337,0.0008094813674688339,0.0010025600204244256,0.0009768037125468254,0.00042057805694639683,0.0004999744705855846,0.0004168389132246375,0.011790072545409203,0.008903514593839645,0.011541634798049927,passive,1
