t,trajectory_type,trajectory_variant,x,y,z,rx,ry,rz,vx,vy,vz,ax,ay,az,j1,j2,j3,j4,j5,j6,dj1,dj2,dj3,dj4,dj5,dj6,fx,fy,fz,tx,ty,tz,Mx,My,Mz,Bx,By,Bz,Kx,Ky,Kz,mode,comfort
0.0007,rehab,large_fast,80.2203472380658,-666.633755959435,262.4833329146047,-177.38932350100004,0.13293949741593153,-149.98566803793184,0.4281,0.0862,-0.7235,-14.3116,-3.0674,31.0899,84.42604971404123,30.033806527015006,85.85561166895498,-27.96630859375,-89.09211052788628,-35.688722398546005,0.05441495687654703,-0.0,0.04021975073483911,0.009824964735243056,-0.0,-0.0,1.2689,0.7765,1.1786,-0.0192,-0.02195,-0.02771,0.0008396617486141622,0.0010000342736020684,0.0008439044468104839,0.0004232941719237715,0.0005001656827516854,0.0005885155405849218,0.011678491719067097,0.009392069652676582,0.01023064274340868,passive,1
0.0207,rehab,large_fast,80.22020266467307,-666.6336346341435,262.4838072305717,-177.3892972609663,0.13292146476972108,-149.98569841999233,0.2851,0.0555,-0.4477,-13.6864,-2.6007,26.7657,84.42603611710048,30.033758937722386,85.85561846742536,-27.966300116644966,-89.09211052788628,-35.68870544433594,-0.0,0.05441495687654703,-0.007886225634282177,-0.006510416666666666,-0.0,-0.06785074869791667,1.224,0.7715,1.0079,-0.01456,-0.01569,-0.02193,0.0008396617486141622,0.0010000342736020684,0.0008439044468104839,0.0004232941719237715,0.0005001656827516854,0.0005885155405849218,0.011678491719067097,0.009392069652676582,0.01023064274340868,passive,1
0.0406,rehab,large_fast,80.2201227244644,-666.6336498893123,262.48422320082483,-177.389264086997,0.1328981427789505,-149.98571365869475,-0.0067,0.0027,0.0677,-12.8156,-1.7136,19.2346,84.4260293186301,30.03373174384089,85.85560487048461,-27.966300116644966,-89.09211052788628,-35.688696967230904,-0.05441495687654703,-0.0,-0.013603739219136757,0.0098419189453125,0.06785074869791667,-0.0,1.4712,0.7948,1.35,0.0083,-0.0266,-0.02149,0.0008396617486141622,0.0010000342736020684,0.0008439044468104839,0.0004232941719237715,0.0005001656827516854,0.0005885155405849218,0.011678491719067097,0.009392069652676582,0.01023064274340868,passive,1
0.0607,rehab,large_fast,80.22013676423497,-666.6335049678078,262.4843770555653,-177.38925861040082,0.13289452697408083,-149.98572208652013,-0.3118,-0.0339,0.5152,-12.7813,-0.9261,14.0053,84.4260293186301,30.03370454995939,85.85562526589572,-27.966300116644966,-89.09211052788628,-35.68868849012587,-0.0,-0.05441495687654703,0.02597695530051052,0.013054741753472222,0.06785074869791667,0.06785074869791667,1.1881,0.6727,1.3193,-0.02329,-0.00406,-0.02767,0.0008396617486141622,0.0010000342736020684,0.0008439044468104839,0.0004232941719237715,0.0005001656827516854,0.0005885155405849218,0.011678491719067097,0.009392069652676582,0.01023064274340868,passive,1
0.081,rehab,large_fast,80.21873385475745,-666.6334603947686,262.4857509940964,-177.3891742093122,0.13283461792372608,-149.9858525182616,-0.6473,-0.0553,0.9179,-14.0201,-0.2538,11.5014,84.42590694616337,30.033588975963024,85.85561166895498,-27.96627468532986,-89.09211052788628,-35.688680013020836,-0.0,-0.05441495687654703,0.0062341973333075494,0.03582424587673611,-0.0,0.06785074869791667,1.1863,0.8109,1.3116,-0.01177,-0.01022,-0.01992,0.0008396617486141622,0.0010000342736020684,0.0008439044468104839,0.0004232941719237715,0.0005001656827516854,0.0005885155405849218,0.011678491719067097,0.009392069652676582,0.01023064274340868,passive,1
0.1006,rehab,large_fast,80.20907060246606,-666.6330873305562,262.50197071258475,-177.38804810224457,0.13202900997705053,-149.98666706423418,-0.9182,-0.0494,1.1161,-15.7684,0.2925,11.6103,84.42506393583695,30.032331258943763,85.85533293166964,-27.966122097439236,-89.09211052788628,-35.68870544433594,-0.05441495687654703,-0.10882991375309406,-0.0456449300935953,0.0035349527994791665,-0.06785074869791667,-0.0,1.2386,0.7633,1.8294,-0.00193,-0.02243,-0.02645,0.0008396617486141622,0.0010000342736020684,0.0008439044468104839,0.0004232941719237715,0.0005001656827516854,0.0005885155405849218,0.011678491719067097,0.009392069652676582,0.01023064274340868,passive,1
0.1212,rehab,large_fast,80.18011765447638,-666.6349674846833,262.53615599398603,-177.38581434421522,0.13042992972101433,-149.98902331546807,-1.1784,-0.0254,1.1786,-17.7193,0.8732,12.921,84.42256209873916,30.029897406549736,85.85431995958385,-27.965418497721352,-89.09211052788628,-35.688841078016495,-0.16324487062964108,-0.2176666259765625,-0.10696033440013923,0.10073343912760416,-0.06785074869791667,-0.0,1.223,0.6913,1.3764,0.00499,-0.02292,-0.02358,0.0008396617486141622,0.0010000342736020684,0.0008439044468104839,0.0004232941719237715,0.0005001656827516854,0.0005885155405849218,0.011678491719067097,0.009392069652676582,0.01023064274340868,passive,1
0.1407,rehab,large_fast,80.13388435448083,-666.638351595494,262.59053558432544,-177.38321033265973,0.12854485296447343,-149.99190247922147,-1.6067,-0.0075,1.4497,-20.3856,1.1948,16.2547,84.41856459815904,30.02617864325495,85.85201527812693,-27.96257866753472,-89.09210205078125,-35.68992614746094,-0.16324487062964108,-0.16324487062964108,-0.06555085134978342,0.14776441786024305,-0.0,-0.06785074869791667,1.048,0.7356,1.4058,-0.01333,-0.00288,-0.02459,0.0008396617486141622,0.0010000342736020684,0.0008439044468104839,0.0004232941719237715,0.0005001656827516854,0.0005885155405849218,0.011678491719067097,0.009392069652676582,0.01023064274340868,passive,1
0.1612,rehab,large_fast,80.10018310450829,-666.6380034274586,262.62007125487173,-177.3830292448852,0.12835089180908216,-149.99254490703305,-2.0785,0.0153,1.8364,-26.6705,1.167,25.5355,84.41562086048692,30.023901155679532,85.85062159170019,-27.959103054470486,-89.09208509657118,-35.69218953450521,-0.16324487062964108,-0.10882991375309406,-0.10323477263497834,0.2483791775173611,-0.0,-0.20355224609375,1.2358,0.6735,1.3273,-0.00305,-0.02212,-0.0238,0.0008396617486141622,0.0010000342736020684,0.0008439044468104839,0.0004232941719237715,0.0005001656827516854,0.0005885155405849218,0.011678491719067097,0.009392069652676582,0.01023064274340868,passive,1
0.1811,rehab,large_fast,80.06665873719813,-666.6364955609707,262.6426962230782,-177.38427576054448,0.12914823387538057,-149.99213846807123,-2.7172,0.0455,2.5119,-39.1588,0.867,42.0713,84.41267712281481,30.022045173267326,85.84909873433632,-27.954152425130207,-89.09205966525607,-35.695487128363716,-0.16324487062964108,-0.10882991375309406,-0.0982582923209313,0.3477393256293403,-0.0,-0.2714114718967014,1.3216,0.7806,1.6521,0.00025,-0.01975,-0.02759,0.0008396617486141622,0.0010000342736020684,0.0008439044468104839,0.0004232941719237715,0.0005001656827516854,0.0005885155405849218,0.011678491719067097,0.009392069652676582,0.01023064274340868,passive,1
0.201,rehab,large_fast,80.00904393376916,-666.6326410193421,262.6819824880905,-177.38746080434794,0.13129369210711547,-149.9900678050707,-3.4703,0.0649,3.4002,-54.1826,0.368,60.9994,84.40759186697478,30.018795504428372,85.84601222878635,-27.943776448567707,-89.09194946289062,-35.70253160264757,-0.2176666259765625,-0.2176666259765625,-0.19553080643757734,0.5068037245008681,-0.0,-0.2714114718967014,1.393,0.7281,1.3298,0.0079,-0.00945,-0.0282,0.0008396617486141622,0.0010000342736020684,0.0008439044468104839,0.0004232941719237715,0.0005001656827516854,0.0005885155405849218,0.011678491719067097,0.009392069652676582,0.01023064274340868,passive,1
0.2207,rehab,large_fast,79.9349837565016,-666.6319466000875,262.7516258507616,-177.38907695572792,0.1324562123978949,-149.9885361004008,-4.4961,0.0609,4.6038,-65.3374,-0.0555,73.6134,84.40107893235613,30.013757837880956,85.84117851635017,-27.931688096788193,-89.09170362684462,-35.710440741644966,-0.435333251953125,-0.3809114966062036,-0.31710785214263615,0.6784142388237847,-0.0,-0.4749637179904514,1.1944,0.7791,1.5556,0.01269,-0.01001,-0.02354,0.0008396617486141622,0.0010000342736020684,0.0008439044468104839,0.0004232941719237715,0.0005001656827516854,0.0005885155405849218,0.011678491719067097,0.009392069652676582,0.01023064274340868,passive,1
0.2412,rehab,large_fast,79.80974656944984,-666.6316275721225,262.89021387413646,-177.38958725374727,0.13289153936125223,-149.98664719333172,-6.0077,0.0506,6.3215,-76.2053,-0.5389,83.2573,84.39007220882,30.00389325736773,85.83255125744508,-27.912165323893227,-89.09126281738281,-35.723114013671875,-0.544163165706219,-0.489748208829672,-0.4046381582127939,0.8917236328125,-0.0,-0.6106736924913194,1.1179,0.7439,1.5772,0.00155,-0.01132,-0.01915,0.0008396617486141622,0.0010000342736020684,0.0008439044468104839,0.0004232941719237715,0.0005001656827516854,0.0005885155405849218,0.011678491719067097,0.009392069652676582,0.01023064274340868,passive,1
0.261,rehab,large_fast,79.70447922336939,-666.6304005811922,263.0128135443829,-177.38948354775053,0.132876793679604,-149.98503116919238,-7.9619,0.0364,8.4411,-87.1987,-1.0368,90.7211,84.3808126921701,29.995075641292157,85.82533128190748,-27.895914713541664,-89.09088982476128,-35.73380364312066,-0.6529998779296875,-0.5985781225827661,-0.47339788757928525,1.1101447211371527,-0.0,-0.7463751898871528,1.1568,0.6427,1.4494,-0.00692,-0.01878,-0.01863,0.0008396617486141622,0.0010000342736020684,0.0008439044468104839,0.0004232941719237715,0.0005001656827516854,0.0005885155405849218,0.011678491719067097,0.009392069652676582,0.01023064274340868,passive,1
0.2808,rehab,large_fast,79.49624716375524,-666.6304671340899,263.2403174982375,-177.38917369769933,0.13270563667857113,-149.9833569521882,-10.1832,0.0065,10.7258,-96.6832,-1.2205,94.9502,84.36253840380375,29.978813700156635,85.81183631821435,-27.865948147243923,-89.09025404188368,-35.75341118706597,-0.9250814607827971,-0.7618297916827815,-0.627736762018487,1.472557915581597,-0.0,-0.9499359130859375,1.3035,0.7725,2.2635,0.01799,-0.03239,-0.02817,0.0008396617486141622,0.0010000342736020684,0.0008439044468104839,0.0004232941719237715,0.0005001656827516854,0.0005885155405849218,0.011678491719067097,0.009392069652676582,0.01023064274340868,passive,1
0.3011,rehab,large_fast,79.31801242083213,-666.6326916838706,263.42035823420474,-177.389197966534,0.13272921042376498,-149.98313681064857,-11.8086,-0.0089,12.236,-107.0238,-1.0332,99.8753,84.34692911582418,29.966059769734297,85.80084999008935,-27.84172905815972,-89.08977932400174,-35.76896667480469,-1.0883331298828125,-0.87066650390625,-0.7648415140586324,1.588219536675347,0.06785074869791667,-1.0856458875868056,1.3682,0.6216,1.9111,0.00995,-0.03478,-0.03361,0.0008396617486141622,0.0010000342736020684,0.0008439044468104839,0.0004232941719237715,0.0005001656827516854,0.0005885155405849218,0.011678491719067097,0.009392069652676582,0.01023064274340868,passive,1
0.3212,rehab,large_fast,79.00096737062911,-666.6311085924498,263.7417861900142,-177.38932069290334,0.13282260147535158,-149.9828863102718,-13.7913,-0.0281,13.9671,-119.1056,-0.6167,107.4164,84.31911657352259,29.942666233176052,85.78224257667466,-27.798784044053818,-89.0889400906033,-35.796542697482636,-1.305999755859375,-1.1427480867593596,-0.8331117535581684,1.965272691514757,0.06785074869791667,-1.2892066107855902,1.2233,0.6558,2.0451,0.00595,-0.03157,-0.02878,0.0008396617486141622,0.0010000342736020684,0.0008439044468104839,0.0004232941719237715,0.0005001656827516854,0.0005885155405849218,0.011678491719067097,0.009392069652676582,0.01023064274340868,passive,1
0.3408,rehab,large_fast,78.74982345461207,-666.6286750148756,263.9862434998271,-177.3899712737953,0.1332928155147672,-149.98284574457506,-16.1058,-0.0557,15.9661,-128.0741,0.0766,113.8706,84.29707593256884,29.924670682095066,85.76816974299969,-27.76529100206163,-89.08827887641058,-35.81824408637153,-1.4692514249593904,-1.1971630436359066,-0.9416153407332921,2.159177992078993,0.06785074869791667,-1.4249081081814237,1.2047,0.705,2.0785,0.00876,-0.02187,-0.02497,0.0008396617486141622,0.0010000342736020684,0.0008439044468104839,0.0004232941719237715,0.0005001656827516854,0.0005885155405849218,0.011678491719067097,0.009392069652676582,0.01023064274340868,passive,1
0.3608,rehab,large_fast,78.31885060991364,-666.6319445752633,264.41728498824995,-177.3899876922282,0.133376534605939,-149.98285021844933,-18.8777,-0.0492,18.3484,-136.8328,0.9923,121.001,84.25931042963916,29.893982386825108,85.74214519840656,-27.70745171440972,-89.08710055881076,-35.855348375108505,-1.7413330078125,-1.4148296696124691,-1.1806359621557858,2.65456305609809,-0.0,-1.696319580078125,1.0281,0.6657,2.0789,0.00335,-0.02932,-0.02279,0.0008396617486141622,0.0010000342736020684,0.0008439044468104839,0.0004232941719237715,0.0005001656827516854,0.0005885155405849218,0.011678491719067097,0.009392069652676582,0.01023064274340868,passive,1
0.381,rehab,large_fast,77.97964836251366,-666.6342606794708,264.74602091917063,-177.39012532384504,0.13350373658889148,-149.98363239891995,-22.0561,-0.0162,21.2032,-150.9991,1.6414,132.9236,84.22959431563274,29.8704732762705,85.72242283585048,-27.66321818033854,-89.08621893988715,-35.883780585394966,-1.9589996337890625,-1.5236663818359375,-1.2767527363087872,2.925143771701389,-0.0,-1.9677310519748263,1.0769,0.5685,2.3283,-0.00165,-0.02825,-0.02308,0.0008396617486141622,0.0010000342736020684,0.0008439044468104839,0.0004232941719237715,0.0005001656827516854,0.0005885155405849218,0.011678491719067097,0.009392069652676582,0.01023064274340868,passive,1
0.4008,rehab,large_fast,77.61180653423669,-666.6340313798403,265.09524136805834,-177.39105290869006,0.13417945428345968,-149.98369365537386,-25.0283,0.0225,23.8711,-157.5882,1.737,136.3402,84.19734237217666,29.845203361888924,85.70159912109375,-27.615068223741318,-89.08525254991319,-35.915425618489586,-2.0134145906656093,-1.686918050935953,-1.3767446385751856,3.1397501627604165,0.06785074869791667,-2.0355902777777777,1.0461,0.6618,2.3255,-0.0014,-0.02717,-0.02569,0.0008396617486141622,0.0010000342736020684,0.0008439044468104839,0.0004232941719237715,0.0005001656827516854,0.0005885155405849218,0.011678491719067097,0.009392069652676582,0.01023064274340868,passive,1
0.421,rehab,large_fast,76.98358786371543,-666.6366632682025,265.6948783441249,-177.39069203253646,0.13387555341405602,-149.98407088037195,-28.133,0.0739,26.6543,-147.6643,1.3624,122.656,84.14230195602568,29.80214185053759,85.66621988126548,-27.535552978515625,-89.08365037706163,-35.96918741861979,-2.3943328857421875,-1.8501697200359684,-1.4839769117903001,3.5448710123697915,0.06785074869791667,-2.4427032470703125,0.9547,0.4923,1.9072,-0.00669,-0.03258,-0.02903,0.0008396617486141622,0.0010000342736020684,0.0008439044468104839,0.0004232941719237715,0.0005001656827516854,0.0005885155405849218,0.011678491719067097,0.009392069652676582,0.01023064274340868,passive,1
0.4407,rehab,large_fast,76.39668984563664,-666.6319770634706,266.2353882649482,-177.39117210354235,0.13425335937380234,-149.98462800657722,-30.9164,0.1249,28.9617,-124.5617,0.467,96.6944,84.09081034141012,29.76239799272896,85.63547719823252,-27.463014390733505,-89.08209058973524,-36.019295586480034,-2.61199951171875,-2.122251302889078,-1.567122204468982,3.813841078016493,-0.0,-2.5784132215711804,0.9918,0.4252,1.2969,0.00618,-0.0409,-0.02298,0.0008396617486141622,0.0010000342736020684,0.0008439044468104839,0.0004232941719237715,0.0005001656827516854,0.0005885155405849218,0.011678491719067097,0.009392069652676582,0.01023064274340868,passive,1
0.4609,rehab,large_fast,75.63826550193743,-666.6277530969836,266.9457039448958,-177.3904538046256,0.1337633816374959,-149.98409929438682,-34.0401,0.129,31.2907,-105.0102,-0.6762,72.837,84.02428051032642,29.710641237768797,85.59492432244933,-27.36967298719618,-89.08003913031683,-36.085289849175346,-2.884087893042234,-2.2310880151125465,-1.7741016350170173,4.0761566162109375,0.06785074869791667,-2.9176754421657987,0.8539,0.6603,1.4132,0.00903,-0.03123,-0.01603,0.0008396617486141622,0.0010000342736020684,0.0008439044468104839,0.0004232941719237715,0.0005001656827516854,0.0005885155405849218,0.011678491719067097,0.009392069652676582,0.01023064274340868,passive,1
0.4811,rehab,large_fast,75.09503243849935,-666.623802901411,267.44864310109193,-177.38988544145462,0.13326463481116013,-149.9831305402955,-36.0202,0.0752,32.512,-95.005,-1.5124,57.192,83.97663003147238,29.673922699276762,85.56637754534731,-27.303780449761284,-89.07863193088107,-36.13316006130642,-3.1017545190187965,-2.3943328857421875,-1.849911378161742,4.225497775607638,0.13570149739583334,-3.121236165364583,0.9773,0.6985,1.7111,0.0206,-0.02928,-0.01715,0.0008396617486141622,0.0010000342736020684,0.0008439044468104839,0.0004232941719237715,0.0005001656827516854,0.0005885155405849218,0.011678491719067097,0.009392069652676582,0.01023064274340868,passive,1
0.501,rehab,large_fast,74.23153715596975,-666.6213053980775,268.23529146303184,-177.38877038131224,0.13247455842614708,-149.9814637337454,-37.2448,0.0181,32.8687,-86.2965,-1.8695,43.9589,83.90090186997216,29.61697191295057,85.52100455406868,-27.20062255859375,-89.07625834147136,-36.20937771267361,-3.373836101871906,-2.2855029719890934,-1.9737523145014697,4.275877210828993,0.06785074869791667,-3.2569376627604165,1.0875,0.7093,2.1087,0.0352,-0.0308,-0.0157,0.0008396617486141622,0.0010000342736020684,0.0008439044468104839,0.0004232941719237715,0.0005001656827516854,0.0005885155405849218,0.011678491719067097,0.009392069652676582,0.01023064274340868,passive,1
0.5208,rehab,large_fast,73.61544588786873,-666.6221000325852,268.76898587975893,-177.3891542835763,0.13275965257782626,-149.98105026397127,-37.4763,-0.033,32.4977,-84.2908,-1.5918,39.0539,83.84690161978844,29.57853336145382,85.48936447294632,-27.128516303168404,-89.07459682888455,-36.262969970703125,-3.482672814095374,-2.503169597965656,-1.9461437263111077,4.452777438693576,0.06785074869791667,-3.596208360460069,1.1868,0.6068,2.3298,0.01924,-0.03523,-0.02049,0.0008396617486141622,0.0010000342736020684,0.0008439044468104839,0.0004232941719237715,0.0005001656827516854,0.0005885155405849218,0.011678491719067097,0.009392069652676582,0.01023064274340868,passive,1
0.5412,rehab,large_fast,72.6407497029829,-666.6268616520298,269.5915336242637,-177.38995704208102,0.13337987949349958,-149.98084958543743,-39.5489,-0.0718,33.6286,-87.6023,-0.7877,40.0242,83.76150603341584,29.519699398833925,85.4398240193282,-27.016686333550346,-89.07196044921875,-36.347291734483505,-3.64592448319539,-2.557584554842203,-2.1562912440536044,4.788428412543403,0.13570149739583334,-3.528349134657118,0.9002,0.6098,2.1127,0.00952,-0.02535,-0.01845,0.0008396617486141622,0.0010000342736020684,0.0008439044468104839,0.0004232941719237715,0.0005001656827516854,0.0005885155405849218,0.011678491719067097,0.009392069652676582,0.01023064274340868,passive,1
0.5607,rehab,large_fast,71.94741614890839,-666.630479063383,270.1561555433586,-177.39033061034002,0.13363123116985312,-149.9819059924074,-42.7411,-0.0646,35.6583,-96.4271,-0.0409,46.1608,83.70078209603187,29.479214507754484,85.40607641238978,-26.940299140082466,-89.07015482584636,-36.40608893500434,-3.809169353825031,-2.7208362239422184,-2.071133604144106,4.7724151611328125,0.13570149739583334,-3.8676198323567705,0.9027,0.4529,2.1477,0.00169,-0.02979,-0.02529,0.0008396617486141622,0.0010000342736020684,0.0008439044468104839,0.0004232941719237715,0.0005001656827516854,0.0005885155405849218,0.011678491719067097,0.009392069652676582,0.01023064274340868,passive,1
0.5807,rehab,large_fast,71.23920299708438,-666.6325008240725,270.74401038003873,-177.38990756976196,0.13329914547525076,-149.98290394616947,-44.0953,-0.0395,36.0941,-109.0847,0.2376,55.6173,83.63873925539527,29.437111580725944,85.37125464713219,-26.86216566297743,-89.06830681694878,-36.46624247233073,-4.026835979801594,-2.6664212670656715,-2.2223519806814664,4.95224846733941,0.06785074869791667,-3.7319098578559027,0.8655,0.378,1.8188,0.00533,-0.04217,-0.01768,0.0008396617486141622,0.0010000342736020684,0.0008439044468104839,0.0004232941719237715,0.0005001656827516854,0.0005885155405849218,0.011678491719067097,0.009392069652676582,0.01023064274340868,passive,1
0.6011,rehab,large_fast,70.14710244979436,-666.62892675994,271.65253922888814,-177.38826903486583,0.13211960204932313,-149.9833158524575,-46.4078,-0.0078,37.3086,-108.2533,0.1393,53.1616,83.54298959864248,29.371479147731666,85.31881124666421,-26.743375990125866,-89.0653567843967,-36.56021965874566,-3.918006066048499,-2.6664212670656715,-2.2580507486173422,5.011427137586805,0.13570149739583334,-4.071180555555555,0.83,0.6181,2.6774,0.00213,-0.02537,-0.0176,0.0008396617486141622,0.0010000342736020684,0.0008439044468104839,0.0004232941719237715,0.0005001656827516854,0.0005885155405849218,0.011678491719067097,0.009392069652676582,0.01023064274340868,passive,1
0.6209,rehab,large_fast,69.39803954793815,-666.6278941894172,272.2647074311826,-177.38727806704696,0.13136993696650298,-149.98374162840602,-48.6759,0.0094,38.4812,-84.4366,-0.0099,33.6455,83.47733677023709,29.327513439820546,85.28301050167272,-26.662979125976562,-89.06336466471355,-36.62452697753906,-4.081257735148514,-2.7752511808187657,-2.2571669474686726,5.03662109375,0.13570149739583334,-3.8676198323567705,0.7356,0.435,2.6973,-0.01429,-0.03646,-0.01999,0.0008396617486141622,0.0010000342736020684,0.0008439044468104839,0.0004232941719237715,0.0005001656827516854,0.0005885155405849218,0.011678491719067097,0.009392069652676582,0.01023064274340868,passive,1
0.6408,rehab,large_fast,68.05684495118453,-666.6271922044577,273.3117897438647,-177.38790627266522,0.13176548017244638,-149.9844256888216,-49.6956,-0.0169,38.584,-48.7586,-0.1949,7.4042,83.35980481440478,29.25243793147625,85.22048496963954,-26.521275838216145,-89.05982123480902,-36.73975626627604,-4.353339318001624,-2.61199951171875,-2.1743751752494584,5.135201348198785,0.06785074869791667,-4.0033213297526045,0.9446,0.407,2.2814,0.01426,-0.0417,-0.02119,0.0008396617486141622,0.0010000342736020684,0.0008439044468104839,0.0004232941719237715,0.0005001656827516854,0.0005885155405849218,0.011678491719067097,0.009392069652676582,0.01023064274340868,passive,1
0.6611,rehab,large_fast,67.27841784305416,-666.6274070589442,273.9001372675839,-177.38925846612742,0.13274427914790535,-149.98476877948514,-51.5871,-0.0628,39.3513,-16.3384,-0.2358,-15.4581,83.29159576113861,29.210416586092204,85.1846162399443,-26.439759996202255,-89.05775282118056,-36.80669148763021,-4.298924361125077,-2.61199951171875,-2.2542028143854425,5.118145412868923,0.06785074869791667,-4.206882052951388,0.9553,0.3967,2.4691,0.00957,-0.03804,-0.02239,0.0008396617486141622,0.0010000342736020684,0.0008439044468104839,0.0004232941719237715,0.0005001656827516854,0.0005885155405849218,0.011678491719067097,0.009392069652676582,0.01023064274340868,passive,1
0.6807,rehab,large_fast,66.10252332379508,-666.6308737770477,274.7765639662367,-177.39115842057265,0.13417481539987733,-149.9843830621884,-51.7203,-0.0805,38.742,8.5766,0.0011,-34.3756,83.18858533802599,29.148380543925974,85.13030326012337,-26.318045722113716,-89.05455695258246,-36.90869649251302,-4.353339318001624,-2.503169597965656,-2.26186469049737,5.173077053493923,0.06785074869791667,-4.274732801649305,0.613,0.4529,2.6174,0.00379,-0.02847,-0.0155,0.0008396617486141622,0.0010000342736020684,0.0008439044468104839,0.0004232941719237715,0.0005001656827516854,0.0005885155405849218,0.011678491719067097,0.009392069652676582,0.01023064274340868,passive,1
0.7011,rehab,large_fast,65.30845272891051,-666.6329308341975,275.3595176478757,-177.39208009126523,0.13491239971452634,-149.98450311346048,-49.8114,-0.0551,36.896,25.7275,0.4578,-50.3576,83.11902338915532,29.107154619575727,85.09427136713916,-26.237597995334202,-89.05237833658855,-36.97721693250868,-4.353339318001624,-2.6664212670656715,-2.362366478041847,5.001051161024305,0.13570149739583334,-4.206882052951388,0.7187,0.3472,2.16,0.00782,-0.02514,-0.01691,0.0008396617486141622,0.0010000342736020684,0.0008439044468104839,0.0004232941719237715,0.0005001656827516854,0.0005885155405849218,0.011678491719067097,0.009392069652676582,0.01023064274340868,passive,1
0.7211,rehab,large_fast,64.09738018109958,-666.6368852119602,276.2524410602441,-177.3910178281859,0.13414336363384663,-149.9863501209066,-49.2025,-0.0211,35.9569,31.3691,0.9244,-59.6991,83.01296725131498,29.044255171671953,85.03986320873298,-26.118579440646702,-89.04914008246527,-37.08006117078993,-4.462176030225093,-2.557584554842203,-2.251143502716971,5.0034840901692705,0.13570149739583334,-4.274732801649305,0.6068,0.374,1.8867,0.00791,-0.0289,-0.01485,0.0008396617486141622,0.0010000342736020684,0.0008439044468104839,0.0004232941719237715,0.0005001656827516854,0.0005885155405849218,0.011678491719067097,0.009392069652676582,0.01023064274340868,passive,1
0.7408,rehab,large_fast,63.28465650025632,-666.6369841634247,276.8474091444051,-177.38984543733943,0.13327255055440176,-149.9874699571101,-48.1941,0.0056,34.5768,28.5637,0.9865,-63.3141,82.94177366955445,29.00216584158416,85.00412364997486,-26.040174696180554,-89.04696146647136,-37.14923434787326,-4.353339318001624,-2.61199951171875,-2.1290769671449565,4.841054280598958,0.13570149739583334,-4.274732801649305,0.5354,0.3579,2.1561,0.00029,-0.04173,-0.01861,0.0008396617486141622,0.0010000342736020684,0.0008439044468104839,0.0004232941719237715,0.0005001656827516854,0.0005885155405849218,0.011678491719067097,0.009392069652676582,0.01023064274340868,passive,1
0.7609,rehab,large_fast,62.08380023737776,-666.6331540286708,277.72040906014627,-177.38803112994702,0.13192118577437917,-149.9875959360747,-47.8583,0.0305,33.385,10.8135,0.5682,-56.2742,82.83653334815904,28.9401909856513,84.9520745607886,-25.92535230848524,-89.04368082682292,-37.253028021918404,-4.244502605778156,-2.557584554842203,-2.0993744500792855,4.649827745225695,0.13570149739583334,-4.206882052951388,0.4934,0.3031,1.8642,-0.00398,-0.02175,-0.01679,0.0008396617486141622,0.0010000342736020684,0.0008439044468104839,0.0004232941719237715,0.0005001656827516854,0.0005885155405849218,0.011678491719067097,0.009392069652676582,0.01023064274340868,passive,1
0.781,rehab,large_fast,61.28521391569973,-666.6288697156137,278.2694106620985,-177.38794744897922,0.13187864076698175,-149.98726133875107,-48.9809,0.0364,32.9474,-23.6267,0.0514,-36.9862,82.76652949871404,28.900861834535505,84.91940111216933,-25.85138956705729,-89.04146830240886,-37.32251485188802,-4.353339318001624,-2.3399179288656407,-2.0438989318243346,4.543499416775173,0.13570149739583334,-4.274732801649305,0.4932,0.3142,2.0969,-0.00475,-0.03053,-0.01134,0.0008396617486141622,0.0010000342736020684,0.0008439044468104839,0.0004232941719237715,0.0005001656827516854,0.0005885155405849218,0.011678491719067097,0.009392069652676582,0.01023064274340868,passive,1
0.8007,rehab,large_fast,60.48073869909067,-666.6296341684123,278.800033338537,-177.3879318539124,0.13189273681855768,-149.98784818885179,-49.156,0.0289,31.9274,-40.7358,-0.1818,-24.6112,82.69607695022432,28.863293487246672,84.88705399012801,-25.779435899522568,-89.03926425509982,-37.391552395290795,-4.298924361125077,-2.176666259765625,-1.8891385522219213,4.36354743109809,0.13570149739583334,-4.206882052951388,0.4309,0.1928,1.2318,0.0108,-0.04676,-0.00433,0.0008396617486141622,0.0010000342736020684,0.0008439044468104839,0.0004232941719237715,0.0005001656827516854,0.0005885155405849218,0.011678491719067097,0.009392069652676582,0.01023064274340868,passive,1
0.8211,rehab,large_fast,59.27116195667725,-666.632035927573,279.55150297745877,-177.38950469445464,0.13306623798456813,-149.98814825101687,-49.5642,-0.0003,31.1179,-35.9781,-0.146,-22.1852,82.59017717720258,28.810020673393023,84.84057964664875,-25.674633449978298,-89.03597513834636,-37.495947943793404,-4.298924361125077,-2.3399179288656407,-1.9381487251508354,4.246554904513888,0.13570149739583334,-4.206882052951388,0.4594,0.2039,1.9982,-0.00277,-0.03425,-0.01061,0.0008396617486141622,0.0010000342736020684,0.0008439044468104839,0.0004232941719237715,0.0005001656827516854,0.0005885155405849218,0.011678491719067097,0.009392069652676582,0.01023064274340868,passive,1
0.841,rehab,large_fast,58.48092152374061,-666.6325277166465,280.0343112755882,-177.39065210991293,0.13394767394502172,-149.98721176984756,-50.7356,-0.0222,30.9828,-30.0678,-0.089,-19.7024,82.52097554726176,28.775763181176515,84.8106867724126,-25.60697767469618,-89.03377109103732,-37.5653076171875,-4.353339318001624,-2.176666259765625,-1.885460579749381,4.142286512586805,0.13570149739583334,-4.342592027452257,0.347,0.308,2.6084,-0.00064,-0.02504,-0.01486,0.0008396617486141622,0.0010000342736020684,0.0008439044468104839,0.0004232941719237715,0.0005001656827516854,0.0005885155405849218,0.011678491719067097,0.009392069652676582,0.01023064274340868,passive,1
0.8611,rehab,large_fast,57.10260412098596,-666.6336786057833,280.866201427481,-177.39142635036615,0.13460313233708873,-149.9846212853822,-52.0142,-0.0071,31.145,-14.8108,-0.0662,-23.7341,82.40028230270536,28.716861233852878,84.75950788743425,-25.492257012261284,-89.02984619140625,-37.687267727322045,-4.190087648901609,-2.122251302889078,-1.8176934270575495,4.12626478407118,0.20355224609375,-4.410442776150173,0.4294,0.2225,1.4234,0.01853,-0.03702,-0.00536,0.0008396617486141622,0.0010000342736020684,0.0008439044468104839,0.0004232941719237715,0.0005001656827516854,0.0005885155405849218,0.011678491719067097,0.009392069652676582,0.01023064274340868,passive,1
0.8807,rehab,large_fast,56.3110592268867,-666.6329898372446,281.3513852974644,-177.3901446896427,0.1336293599562833,-149.98398674269302,-52.7679,0.0183,31.2353,3.255,-0.0944,-30.9353,82.33097189723856,28.682481369169633,84.73053280669863,-25.42844984266493,-89.02763366699219,-37.75647481282552,-4.4077542748781715,-2.122251302889078,-1.8375041697284962,3.863855997721354,0.13570149739583334,-4.410442776150173,0.4777,0.0671,2.1152,0.00126,-0.04617,-0.0173,0.0008396617486141622,0.0010000342736020684,0.0008439044468104839,0.0004232941719237715,0.0005001656827516854,0.0005885155405849218,0.011678491719067097,0.009392069652676582,0.01023064274340868,passive,1
0.9008,rehab,large_fast,55.108254189812456,-666.632161296424,282.0621664024039,-177.3886481091795,0.13244023385591042,-149.98417116379628,-50.5248,0.0326,29.4036,19.8762,-0.1748,-37.539,82.22567718808014,28.63206391287322,84.68798797909577,-25.33429463704427,-89.02434455023871,-37.860497368706596,-4.462176030225093,-2.176666259765625,-1.6707920792079207,3.911641438802083,0.13570149739583334,-4.546152750651042,0.2503,0.1768,2.4587,-0.00309,-0.04744,-0.01015,0.0008396617486141622,0.0010000342736020684,0.0008439044468104839,0.0004232941719237715,0.0005001656827516854,0.0005885155405849218,0.011678491719067097,0.009392069652676582,0.01023064274340868,passive,1
0.9211,rehab,large_fast,54.30401810775442,-666.6312954900934,282.5253574199304,-177.38794700876738,0.13187681765391449,-149.9847743992035,-50.2845,0.0159,28.7162,33.951,-0.3992,-43.3974,82.15527902735342,28.599213704024212,84.66012104903118,-25.272411770290798,-89.02215745713976,-37.929577297634545,-4.244502605778156,-2.0134145906656093,-1.6868024769395884,3.811815049913194,0.20355224609375,-4.410442776150173,0.2739,0.1235,1.8971,0.00487,-0.02853,-0.00604,0.0008396617486141622,0.0010000342736020684,0.0008439044468104839,0.0004232941719237715,0.0005001656827516854,0.0005885155405849218,0.011678491719067097,0.009392069652676582,0.01023064274340868,passive,1
0.9409,rehab,large_fast,53.1018456489928,-666.627632383317,283.19778668969127,-177.38823679842199,0.13209320141665706,-149.9845913300953,-50.387,-0.0123,28.151,34.932,-0.7022,-40.8542,82.05001831054688,28.55137286799969,84.61926904055152,-25.180231730143227,-89.01883443196614,-38.033955891927086,-4.298924361125077,-1.9589996337890625,-1.7685268893100248,3.86855231391059,0.13570149739583334,-4.47829352484809,0.1195,0.0514,2.1685,0.00184,-0.02919,-0.00563,0.0008396617486141622,0.0010000342736020684,0.0008439044468104839,0.0004232941719237715,0.0005001656827516854,0.0005885155405849218,0.011678491719067097,0.009392069652676582,0.01023064274340868,passive,1
0.9611,rehab,large_fast,52.31552405735553,-666.6299723645079,283.6375974324078,-177.388423382483,0.1322658437938024,-149.9838231972966,-48.7751,-0.0376,26.7012,24.4511,-0.693,-29.907,81.98122458882851,28.52089532531134,84.59122535025719,-25.11939154730903,-89.01662190755208,-38.10281541612413,-4.462176030225093,-1.9045846769125154,-1.7863524786316523,3.7146843804253473,0.20355224609375,-4.274732801649305,0.0728,-0.1322,1.6989,-0.01017,-0.02711,-0.00878,0.0008396617486141622,0.0010000342736020684,0.0008439044468104839,0.0004232941719237715,0.0005001656827516854,0.0005885155405849218,0.011678491719067097,0.009392069652676582,0.01023064274340868,passive,1
0.9809,rehab,large_fast,51.126715731916,-666.6330917303977,284.28105411661045,-177.3896853590638,0.1332535863941837,-149.98354901867933,-48.4823,-0.0506,26.2987,2.5484,-0.3178,-10.3369,81.87723518598197,28.476338150477645,84.54967989779935,-25.028584798177082,-89.01334126790364,-38.20603264702691,-4.298924361125077,-1.9589996337890625,-1.7530807646194306,3.816740247938368,0.20355224609375,-4.342592027452257,0.128,-0.0174,1.0976,0.00255,-0.03626,-0.0026,0.0008396617486141622,0.0010000342736020684,0.0008439044468104839,0.0004232941719237715,0.0005001656827516854,0.0005885155405849218,0.011678491719067097,0.009392069652676582,0.01023064274340868,passive,1
1.0011,rehab,large_fast,50.328593365616726,-666.6342084514831,284.71121759602505,-177.39037956643716,0.13382590972163408,-149.98363378441343,-48.5519,-0.0493,26.3402,-12.381,0.1941,6.1969,81.80741489523709,28.446588044119352,84.52191494479038,-24.968092176649304,-89.01112874348958,-38.27507019042969,-4.298924361125077,-1.7413330078125,-1.7336167439375774,3.9130910237630205,0.06785074869791667,-4.410442776150173,0.0723,0.0801,1.4014,0.01437,-0.02239,-0.00539,0.0008396617486141622,0.0010000342736020684,0.0008439044468104839,0.0004232941719237715,0.0005001656827516854,0.0005885155405849218,0.011678491719067097,0.009392069652676582,0.01023064274340868,passive,1
1.0212,rehab,large_fast,49.12747477133188,-666.6361506456955,285.3563060875801,-177.39153103417172,0.13469170420223087,-149.9835795867695,-49.5857,-0.0433,27.0721,-20.1378,0.6789,16.7581,81.70236493101214,28.402302808100632,84.47971683917659,-24.877031114366318,-89.00786505805121,-38.379126654730904,-4.353339318001624,-1.9045846769125154,-1.8236012978128868,3.778262668185764,0.13570149739583334,-4.410442776150173,0.041,-0.0127,1.6831,0.00436,-0.03599,-0.00453,0.0008396617486141622,0.0010000342736020684,0.0008439044468104839,0.0004232941719237715,0.0005001656827516854,0.0005885155405849218,0.011678491719067097,0.009392069652676582,0.01023064274340868,passive,1
1.041,rehab,large_fast,48.323177072846846,-666.6353445515543,285.79274912616205,-177.39188518212484,0.13497128065825734,-149.98380661007036,-50.0819,-0.013,27.5082,-38.7799,0.9523,29.839,81.6320007626373,28.372307956808864,84.4514284039488,-24.816199408637154,-89.00566948784721,-38.44856262207031,-4.298924361125077,-1.9045846769125154,-1.7882832442179766,3.806143866644965,0.20355224609375,-4.342592027452257,-0.0605,0.0288,2.095,-0.01061,-0.02501,-0.00833,0.0008396617486141622,0.0010000342736020684,0.0008439044468104839,0.0004232941719237715,0.0005001656827516854,0.0005885155405849218,0.011678491719067097,0.009392069652676582,0.01023064274340868,passive,1
1.0612,rehab,large_fast,47.51239985266843,-666.6346127722635,286.24544643414765,-177.39088080640943,0.13420248572641494,-149.98464963422268,-50.4889,0.0226,27.9059,-35.3551,0.9339,25.6497,81.56107911969175,28.341408908957302,84.42240573392056,-24.755443996853298,-89.00345696343315,-38.51793924967448,-4.462176030225093,-1.9589996337890625,-1.835519016379177,3.810331556532118,0.13570149739583334,-4.47829352484809,0.0039,-0.0045,1.6699,0.01523,-0.03167,-0.00052,0.0008396617486141622,0.0010000342736020684,0.0008439044468104839,0.0004232941719237715,0.0005001656827516854,0.0005885155405849218,0.011678491719067097,0.009392069652676582,0.01023064274340868,passive,1
1.0811,rehab,large_fast,46.09963817143472,-666.6331474476991,287.04024224346995,-177.38911858343357,0.1327312280112937,-149.98566726733432,-51.5594,0.027,28.6563,-8.477,0.6505,5.4942,81.43752371910774,28.287660202177445,84.37068976978264,-24.64859856499566,-88.9996846516927,-38.63924662272135,-4.462176030225093,-1.9589996337890625,-1.9298273974125928,3.842281765407986,0.13570149739583334,-4.410442776150173,-0.1135,-0.1346,1.136,-0.00891,-0.02685,0.00154,0.0008396617486141622,0.0010000342736020684,0.0008439044468104839,0.0004232941719237715,0.0005001656827516854,0.0005885155405849218,0.011678491719067097,0.009392069652676582,0.01023064274340868,passive,1
1.1007,rehab,large_fast,45.289323425408504,-666.6336010233216,287.4914370131224,-177.38838825747578,0.13211444499278602,-149.98661128229858,-51.3517,0.0327,28.5632,10.4127,0.175,-9.7442,81.3666836578067,28.257522583007812,84.34060653837601,-24.587232801649304,-88.99753146701389,-38.708436754014755,-4.4077542748781715,-1.9045846769125154,-1.8555201162206065,3.909615410698785,0.13570149739583334,-4.206882052951388,0.0408,-0.073,2.1579,0.01271,-0.03269,-3e-05,0.0008396617486141622,0.0010000342736020684,0.0008439044468104839,0.0004232941719237715,0.0005001656827516854,0.0005885155405849218,0.011678491719067097,0.009392069652676582,0.01023064274340868,passive,1
1.1209,rehab,large_fast,44.07778605361189,-666.6330880051609,288.1641702650032,-177.38760735754073,0.13146437921527362,-149.98721721628914,-52.0961,0.0398,28.8423,24.7291,-0.3905,-19.8671,81.26075669090346,28.212788647944382,84.29528113639,-24.495018853081596,-88.99426778157552,-38.81269666883681,-4.571005943978187,-1.8501697200359684,-1.836110483301748,3.783433702256944,0.06785074869791667,-4.47829352484809,0.1139,-0.0475,1.6765,0.02425,-0.03199,-4e-05,0.0008396617486141622,0.0010000342736020684,0.0008439044468104839,0.0004232941719237715,0.0005001656827516854,0.0005885155405849218,0.011678491719067097,0.009392069652676582,0.01023064274340868,passive,1
1.1407,rehab,large_fast,43.272697147677064,-666.6328379066447,288.5991142197883,-177.38809396974656,0.1318791415198427,-149.98791524608717,-51.3234,0.0264,28.1269,34.5324,-0.7948,-23.7228,81.1903721271175,28.18405831214225,84.265191106513,-24.433458116319443,-88.99208068847656,-38.88167487250434,-4.298924361125077,-1.7413330078125,-1.8680361001798422,3.867967393663194,0.20355224609375,-4.206882052951388,-0.0979,-0.0679,1.9056,-0.01093,-0.03974,-0.00551,0.0008396617486141622,0.0010000342736020684,0.0008439044468104839,0.0004232941719237715,0.0005001656827516854,0.0005885155405849218,0.011678491719067097,0.009392069652676582,0.01023064274340868,passive,1
1.1609,rehab,large_fast,42.08631342168505,-666.632366871175,289.25515859926935,-177.3885966090421,0.13229219686110674,-149.9867312786155,-47.9356,0.0032,25.9974,32.6144,-0.8713,-17.6504,81.08665466308594,28.14123474725402,84.21911107431544,-24.340735541449654,-88.98881700303819,-38.985510932074654,-4.298924361125077,-1.686918050935953,-1.8834346355778155,3.987460666232639,0.13570149739583334,-4.206882052951388,-0.1712,-0.2142,1.2573,-0.00391,-0.04413,-0.00065,0.0008396617486141622,0.0010000342736020684,0.0008439044468104839,0.0004232941719237715,0.0005001656827516854,0.0005885155405849218,0.011678491719067097,0.009392069652676582,0.01023064274340868,passive,1
1.181,rehab,large_fast,41.295711444319565,-666.6324620931252,289.6861523806275,-177.38950149132916,0.13301483802666417,-149.98609824521566,-48.1837,-0.0224,26.1719,22.0499,-0.7325,-4.4543,81.01755501020072,28.113361018719058,84.18815763870089,-24.278640747070312,-88.98666381835938,-39.05453152126736,-4.298924361125077,-1.8501697200359684,-1.9489582930461016,3.9335462782118054,0.13570149739583334,-4.342592027452257,-0.1935,-0.0581,1.5764,0.00828,-0.02819,-0.00018,0.0008396617486141622,0.0010000342736020684,0.0008439044468104839,0.0004232941719237715,0.0005001656827516854,0.0005885155405849218,0.011678491719067097,0.009392069652676582,0.01023064274340868,passive,1
1.2009,rehab,large_fast,40.097339766555756,-666.6298643431394,290.3319174570042,-177.39146359569585,0.13467616400016588,-149.98540041007863,-48.864,-0.0408,26.8563,10.6111,-0.3853,9.5293,80.91278378326113,28.07155722438699,84.14154732581413,-24.184460110134548,-88.9833492702908,-39.15891859266493,-4.190087648901609,-1.795747964689047,-2.021640739818611,3.9556037055121527,0.13570149739583334,-4.342592027452257,-0.0772,-0.0821,1.2822,0.0121,-0.03207,-0.00102,0.0008396617486141622,0.0010000342736020684,0.0008439044468104839,0.0004232941719237715,0.0005001656827516854,0.0005885155405849218,0.011678491719067097,0.009392069652676582,0.01023064274340868,passive,1
1.2208,rehab,large_fast,39.28122216913398,-666.6325387731998,290.7774452464478,-177.39175972479504,0.13489082570421268,-149.98705364179088,-48.1241,-0.0425,26.9585,-8.7883,0.2915,25.4026,80.84152901526726,28.043431952448174,84.10879229555036,-24.121102227105034,-88.98122999403212,-39.227795071072045,-4.571005943978187,-1.7413330078125,-2.046108434696009,3.9576212565104165,0.13570149739583334,-4.274732801649305,-0.1553,-0.1134,2.0896,-0.00805,-0.03359,0.00178,0.0008396617486141622,0.0010000342736020684,0.0008439044468104839,0.0004232941719237715,0.0005001656827516854,0.0005885155405849218,0.011678491719067097,0.009392069652676582,0.01023064274340868,passive,1
1.2411,rehab,large_fast,38.46524325249435,-666.6352563855744,291.22301020287637,-177.39241548670094,0.13531061800168465,-149.98899040113793,-49.3103,-0.0323,28.2037,-34.3653,0.9765,41.0279,80.77030823962524,28.015544626972464,84.07551378306776,-24.057057698567707,-88.97919548882378,-39.296349419487846,-4.571005943978187,-1.795747964689047,-2.1347604883779394,3.969328138563368,0.13570149739583334,-4.342592027452257,-0.4391,-0.2442,1.7778,-0.01891,-0.031,0.00271,0.0008396617486141622,0.0010000342736020684,0.0008439044468104839,0.0004232941719237715,0.0005001656827516854,0.0005885155405849218,0.011678491719067097,0.009392069652676582,0.01023064274340868,passive,1
1.2607,rehab,large_fast,37.2667841538713,-666.6369025219304,291.9222443202573,-177.39095918830904,0.13420201875331245,-149.98885291879543,-50.2956,-0.0074,29.2056,-35.5306,1.1525,37.8405,80.66563898974125,27.972034416576424,84.02404256386332,-23.96071539984809,-88.97592332628038,-39.4000498453776,-4.353339318001624,-1.7413330078125,-2.1554006444345606,4.101520114474826,0.13570149739583334,-4.0033213297526045,-0.2974,-0.1809,1.781,0.01127,-0.02578,0.00352,0.0008396617486141622,0.0010000342736020684,0.0008439044468104839,0.0004232941719237715,0.0005001656827516854,0.0005885155405849218,0.011678491719067097,0.009392069652676582,0.01023064274340868,passive,1
1.2807,rehab,large_fast,36.28526722079832,-666.6366228409752,292.50952006575125,-177.38933950936104,0.13295853019527892,-149.98726517350994,-49.9935,0.0242,29.3498,-23.5877,0.7562,23.3854,80.57989668137957,27.935710189366105,83.98066832287476,-23.880394829644096,-88.97318522135417,-39.48645697699653,-4.190087648901609,-1.8501697200359684,-2.1878021542388613,3.957061767578125,0.13570149739583334,-4.410442776150173,-0.2013,-0.1421,1.3037,0.01549,-0.03397,0.00483,0.0008396617486141622,0.0010000342736020684,0.0008439044468104839,0.0004232941719237715,0.0005001656827516854,0.0005885155405849218,0.011678491719067097,0.009392069652676582,0.01023064274340868,passive,1
1.301,rehab,large_fast,35.29778540275492,-666.6340868913717,293.1044316712711,-177.38751737766393,0.13142026214963573,-149.98582434309495,-50.6095,0.0611,29.7816,-13.9766,0.0026,10.5782,80.49363089079904,27.89892366617033,83.93685218131188,-23.79949781629774,-88.9705318874783,-39.57323710123698,-4.298924361125077,-1.795747964689047,-2.106927550665223,3.9195929633246527,0.06785074869791667,-4.139031304253472,-0.5181,-0.2392,1.1842,-0.01763,-0.0287,0.00518,0.0008396617486141622,0.0010000342736020684,0.0008439044468104839,0.0004232941719237715,0.0005001656827516854,0.0005885155405849218,0.011678491719067097,0.009392069652676582,0.01023064274340868,passive,1
1.321,rehab,large_fast,34.30798507982145,-666.6317892218436,293.693635373924,-177.3865805893606,0.13057083671849387,-149.98535734406354,-51.5154,0.0752,30.2555,5.3309,-0.6789,-3.261,80.40718833998878,27.86285098236386,83.89249896058942,-23.717676798502605,-88.96793789333768,-39.65921190049913,-4.298924361125077,-1.7413330078125,-2.293470779267868,4.16581047905816,0.13570149739583334,-4.342592027452257,-0.3251,-0.2886,1.5557,-0.01665,-0.03548,-0.00107,0.0008396617486141622,0.0010000342736020684,0.0008439044468104839,0.0004232941719237715,0.0005001656827516854,0.0005885155405849218,0.011678491719067097,0.009392069652676582,0.01023064274340868,passive,1
1.3412,rehab,large_fast,33.12638732122453,-666.6307481938502,294.372100273121,-177.38811472398098,0.13186599173495342,-149.98365086747967,-51.2966,0.0313,30.0392,20.514,-0.9434,-8.7202,80.30401475358717,27.82201936929533,83.83902219262454,-23.61814710828993,-88.96472507052951,-39.76295471191406,-4.462176030225093,-1.7413330078125,-2.2934571823271193,4.193081325954861,0.13570149739583334,-4.342592027452257,-0.3052,-0.2081,1.3525,0.00095,-0.04217,0.00756,0.0008396617486141622,0.0010000342736020684,0.0008439044468104839,0.0004232941719237715,0.0005001656827516854,0.0005885155405849218,0.011678491719067097,0.009392069652676582,0.01023064274340868,passive,1
1.3612,rehab,large_fast,32.330070815008334,-666.6284915357625,294.82915390557184,-177.38923501990948,0.13288017196296922,-149.98299308345244,-50.3892,-0.0283,29.4066,22.4866,-0.6912,-2.5942,80.23446640165726,27.79455354898283,83.80289512105507,-23.550889756944443,-88.96252950032552,-39.83239067925347,-4.353339318001624,-1.6325030940594059,-2.2155603087774596,4.264416164822048,0.20355224609375,-4.274732801649305,-0.1805,-0.1985,1.3114,0.02374,-0.04433,0.00344,0.0008396617486141622,0.0010000342736020684,0.0008439044468104839,0.0004232941719237715,0.0005001656827516854,0.0005885155405849218,0.011678491719067097,0.009392069652676582,0.01023064274340868,passive,1
1.381,rehab,large_fast,31.125911671176322,-666.6304642929316,295.52621580996396,-177.39059923251057,0.13404667987047095,-149.98298799585464,-49.7387,-0.0655,29.2404,21.0344,-0.0665,6.8186,80.12941643743231,27.75371513744392,83.74634544448097,-23.448477851019966,-88.95933363172743,-39.936277601453995,-4.516590987101639,-1.7413330078125,-2.394720398553527,4.255438910590278,0.13570149739583334,-4.342592027452257,-0.6157,-0.2829,1.6657,-0.01467,-0.02075,0.00223,0.0008396617486141622,0.0010000342736020684,0.0008439044468104839,0.0004232941719237715,0.0005001656827516854,0.0005885155405849218,0.011678491719067097,0.009392069652676582,0.01023064274340868,passive,1
1.4008,rehab,large_fast,30.320522332629302,-666.6321103981232,296.00647405490474,-177.39097995551265,0.134340853557625,-149.98349481144373,-48.3147,-0.0601,28.9743,17.2143,0.6737,15.7521,80.05918143999459,27.7259093936127,83.70717265818378,-23.37887234157986,-88.95725674099393,-40.00521341959635,-4.516590987101639,-1.795747964689047,-2.386854568330368,4.277742173936632,0.13570149739583334,-4.139031304253472,-0.4441,-0.4253,0.9537,-0.01684,-0.03217,0.00677,0.0008396617486141622,0.0010000342736020684,0.0008439044468104839,0.0004232941719237715,0.0005001656827516854,0.0005885155405849218,0.011678491719067097,0.009392069652676582,0.01023064274340868,passive,1
1.4211,rehab,large_fast,29.10424655164939,-666.6367590443008,296.7478919989333,-177.39042200566257,0.13389705961333767,-149.98484252081366,-48.6266,-0.0046,30.0744,3.7112,1.2998,28.0418,79.95316609297649,27.683602512472927,83.6462923559812,-23.27317131890191,-88.954103257921,-40.108676486545136,-4.462176030225093,-1.686918050935953,-2.5958803384610922,4.416605631510417,0.13570149739583334,-4.342592027452257,-0.4886,-0.415,1.1698,-0.01473,-0.03217,0.00544,0.0008396617486141622,0.0010000342736020684,0.0008439044468104839,0.0004232941719237715,0.0005001656827516854,0.0005885155405849218,0.011678491719067097,0.009392069652676582,0.01023064274340868,passive,1
1.4407,rehab,large_fast,28.29744460437866,-666.6382570678172,297.24818401089965,-177.39018519750948,0.13371882366253407,-149.98559742748665,-49.2823,0.0615,31.2059,-15.378,1.3021,39.6378,79.88282911848313,27.65519170477839,83.60495765610497,-23.201573689778645,-88.95200941297743,-40.17744276258681,-4.298924361125077,-1.686918050935953,-2.6591333068243346,4.534420437282986,0.13570149739583334,-4.342592027452257,-0.5015,-0.3322,1.1556,-0.01049,-0.02657,0.00594,0.0008396617486141622,0.0010000342736020684,0.0008439044468104839,0.0004232941719237715,0.0005001656827516854,0.0005885155405849218,0.011678491719067097,0.009392069652676582,0.01023064274340868,passive,1
1.4612,rehab,large_fast,27.500553720007613,-666.6347329044503,297.7654583544492,-177.3894106913756,0.13306730523120133,-149.98473567591762,-49.8302,0.1003,32.1242,-34.4248,0.474,49.3598,79.81328076655322,27.625482389242343,83.56303828777654,-23.128780788845486,-88.94990709092882,-40.24702284071181,-4.4077542748781715,-1.9045846769125154,-2.5541717227142637,4.654693603515625,0.13570149739583334,-4.47829352484809,-0.5088,-0.2726,1.1411,0.00697,-0.02649,0.01248,0.0008396617486141622,0.0010000342736020684,0.0008439044468104839,0.0004232941719237715,0.0005001656827516854,0.0005885155405849218,0.011678491719067097,0.009392069652676582,0.01023064274340868,passive,1
1.4808,rehab,large_fast,26.309487776766282,-666.6297005921211,298.5491680892222,-177.38878143689143,0.13249826078819393,-149.98412066388454,-50.556,0.093,32.9324,-43.6212,-0.7717,53.5858,79.70935934841043,27.581054385345762,83.49840522992729,-23.01733228895399,-88.94682990180121,-40.35029093424479,-4.4077542748781715,-1.8501697200359684,-2.7554540350885675,4.638129340277778,0.06785074869791667,-4.206882052951388,-0.5547,-0.2523,1.4316,0.00917,-0.02691,0.01249,0.0008396617486141622,0.0010000342736020684,0.0008439044468104839,0.0004232941719237715,0.0005001656827516854,0.0005885155405849218,0.011678491719067097,0.009392069652676582,0.01023064274340868,passive,1
1.5012,rehab,large_fast,25.314312077015714,-666.6251721425563,299.20954185508526,-177.38861279574482,0.1323471951616154,-149.98445254083134,-50.7895,0.0481,33.4724,-29.6681,-2.0352,44.862,79.62254288172957,27.54402991568688,83.44316085966507,-22.922609117296005,-88.94427829318576,-40.43569776746962,-4.353339318001624,-1.795747964689047,-2.8240913919883197,4.856677585177951,0.13570149739583334,-4.206882052951388,-0.5734,-0.3011,1.2079,0.00046,-0.02047,0.00996,0.0008396617486141622,0.0010000342736020684,0.0008439044468104839,0.0004232941719237715,0.0005001656827516854,0.0005885155405849218,0.011678491719067097,0.009392069652676582,0.01023064274340868,passive,1
1.5211,rehab,large_fast,24.107357143824732,-666.6221799520678,300.00704759883246,-177.38905333910594,0.13279216513243874,-149.98583471738326,-51.8014,-0.0171,34.5788,-4.1458,-2.4556,34.4089,79.51730935880454,27.50014578942025,83.37484982934329,-22.806566026475693,-88.94116719563802,-40.538228352864586,-4.244502605778156,-1.8501697200359684,-2.9163126426168007,4.936108059353298,0.13570149739583334,-4.274732801649305,-0.7429,-0.2623,1.0377,-0.01165,-0.03207,0.01544,0.0008396617486141622,0.0010000342736020684,0.0008439044468104839,0.0004232941719237715,0.0005001656827516854,0.0005885155405849218,0.011678491719067097,0.009392069652676582,0.01023064274340868,passive,1
1.5412,rehab,large_fast,23.295822633391296,-666.6266182960427,300.535492518935,-177.39028862488237,0.13386177627418608,-149.98654293368392,-52.4026,-0.0847,35.607,17.4066,-1.6301,31.6185,79.44667325161471,27.472258463944538,83.32726733519299,-22.72728814019097,-88.93910725911458,-40.60725741916232,-4.571005943978187,-1.795747964689047,-2.9983497846244584,4.9922434488932295,0.13570149739583334,-4.546152750651042,-0.61,-0.3225,1.5343,-0.00457,-0.03052,0.01028,0.0008396617486141622,0.0010000342736020684,0.0008439044468104839,0.0004232941719237715,0.0005001656827516854,0.0005885155405849218,0.011678491719067097,0.009392069652676582,0.01023064274340868,passive,1
1.5612,rehab,large_fast,22.074822446909725,-666.6340920118242,301.3652249237502,-177.3910342821454,0.13444114921375916,-149.98810809278385,-52.2885,-0.1283,36.7008,34.4554,0.0712,34.0935,79.340447152015,27.428986200011604,83.25241617637106,-22.60496351453993,-88.9361063639323,-40.710533989800346,-4.516590987101639,-1.7413330078125,-3.158977244159963,5.28090582953559,0.06785074869791667,-4.274732801649305,-0.6599,-0.2864,1.2423,-0.00941,-0.03388,0.00992,0.0008396617486141622,0.0010000342736020684,0.0008439044468104839,0.0004232941719237715,0.0005001656827516854,0.0005885155405849218,0.011678491719067097,0.009392069652676582,0.01023064274340868,passive,1
1.5809,rehab,large_fast,21.272817971369104,-666.6371348387892,301.93874660970357,-177.39156291517804,0.1348813263791356,-149.98831138343022,-50.3592,-0.1272,36.6141,42.1591,1.7544,40.1439,79.27064725668123,27.399263287534808,83.20042827341815,-22.520395914713543,-88.93410576714409,-40.779173109266495,-4.353339318001624,-1.9589996337890625,-3.308162878055384,5.41457282172309,0.13570149739583334,-4.546152750651042,-0.7166,-0.2626,1.1167,-0.00156,-0.04123,0.01285,0.0008396617486141622,0.0010000342736020684,0.0008439044468104839,0.0004232941719237715,0.0005001656827516854,0.0005885155405849218,0.011678491719067097,0.009392069652676582,0.01023064274340868,passive,1
1.6008,rehab,large_fast,20.077433130945625,-666.6384872172811,302.8306576800679,-177.39221911832757,0.1354638449166682,-149.98803359903016,-48.2024,-0.0637,36.6146,43.8883,2.569,44.5866,79.16656947371983,27.353217247689123,83.11945849125928,-22.389246622721355,-88.93109639485677,-40.882042778862846,-4.4077542748781715,-1.8501697200359684,-3.4915516164043163,5.603595309787326,0.06785074869791667,-4.410442776150173,-0.6312,-0.2191,1.2882,0.01198,-0.02421,0.01865,0.0008396617486141622,0.0010000342736020684,0.0008439044468104839,0.0004232941719237715,0.0005001656827516854,0.0005885155405849218,0.011678491719067097,0.009392069652676582,0.01023064274340868,passive,1
1.6209,rehab,large_fast,19.275901007214735,-666.6361557683248,303.4531996149069,-177.39205537196793,0.13530727071106055,-149.98827787609852,-47.706,0.0491,37.9906,39.9672,2.3421,48.0066,79.09674918297493,27.320972102703433,83.06347988619663,-22.299075656467014,-88.92912122938368,-40.95059712727865,-4.462176030225093,-2.067836346012531,-3.512633673035272,5.71746826171875,0.13570149739583334,-4.274732801649305,-0.7212,-0.4195,1.1316,-0.00849,-0.02742,0.01534,0.0008396617486141622,0.0010000342736020684,0.0008439044468104839,0.0004232941719237715,0.0005001656827516854,0.0005885155405849218,0.011678491719067097,0.009392069652676582,0.01023064274340868,passive,1
1.6408,rehab,large_fast,18.083117890959315,-666.6338068988553,304.42591808873857,-177.39100572883657,0.1342524148835805,-149.98789623424832,-47.4672,0.1461,39.4414,25.7374,1.4187,52.564,78.99289574953589,27.271302478148204,82.97539210555577,-22.159542507595486,-88.92627292209201,-41.05325486924913,-4.135672692025062,-2.176666259765625,-3.7571542569906407,5.850965711805555,0.06785074869791667,-4.342592027452257,-0.6428,-0.4153,1.0968,-0.00585,-0.0256,0.01502,0.0008396617486141622,0.0010000342736020684,0.0008439044468104839,0.0004232941719237715,0.0005001656827516854,0.0005885155405849218,0.011678491719067097,0.009392069652676582,0.01023064274340868,passive,1
1.6611,rehab,large_fast,17.30702046063283,-666.6329716845264,305.0914582331614,-177.39011523431225,0.1335192455905473,-149.9873051855965,-47.6166,0.1656,40.8677,5.3524,-0.0511,58.3113,78.92532575248491,27.237847205435877,82.91440982629757,-22.064124213324654,-88.92432318793402,-41.120334201388886,-4.190087648901609,-2.122251302889078,-3.857554067479502,5.986209445529513,0.13570149739583334,-4.206882052951388,-0.7481,-0.2211,1.5491,-0.005,-0.03146,0.01506,0.0008396617486141622,0.0010000342736020684,0.0008439044468104839,0.0004232941719237715,0.0005001656827516854,0.0005885155405849218,0.011678491719067097,0.009392069652676582,0.01023064274340868,passive,1
1.6809,rehab,large_fast,16.544205924742833,-666.6286245486241,305.76781185694557,-177.38910249860663,0.13267692658965718,-149.986022609968,-47.8401,0.0955,42.0949,-4.2503,-1.8353,57.5571,78.85885710763459,27.203712085686107,82.85275449847231,-21.96752760145399,-88.92239040798611,-41.18698967827691,-4.135672692025062,-2.122251302889078,-3.8373898043490873,6.069598727756076,0.13570149739583334,-3.9354705810546875,-0.7644,-0.3204,1.3058,0.00807,-0.04089,0.01677,0.0008396617486141622,0.0010000342736020684,0.0008439044468104839,0.0004232941719237715,0.0005001656827516854,0.0005885155405849218,0.011678491719067097,0.009392069652676582,0.01023064274340868,passive,1
1.7009,rehab,large_fast,15.406755139088654,-666.6242431996304,306.78531977933557,-177.38834281758974,0.13205106382769566,-149.98576439650432,-47.2853,-0.0125,42.5917,12.7459,-3.2251,38.2549,78.75981019275024,27.153267435508198,82.75830334956103,-21.82050069173177,-88.91959296332465,-41.28462897406684,-4.081257735148514,-2.067836346012531,-3.984488307839573,6.076838175455729,0.13570149739583334,-4.0033213297526045,-0.6115,-0.4453,1.3711,-0.00248,-0.04703,0.01187,0.0008396617486141622,0.0010000342736020684,0.0008439044468104839,0.0004232941719237715,0.0005001656827516854,0.0005885155405849218,0.011678491719067097,0.009392069652676582,0.01023064274340868,passive,1
1.7209,rehab,large_fast,14.472215719014459,-666.6233711714359,307.6255868565139,-177.38864683608236,0.13225736599174712,-149.98537671501342,-46.9952,-0.077,43.2367,44.8967,-3.1947,11.0468,78.678507285543,27.11256499337678,82.67844171807317,-21.697006225585938,-88.91737196180556,-41.36492411295573,-3.918006066048499,-2.067836346012531,-3.9164764102142637,6.206224229600695,0.13570149739583334,-3.8676198323567705,-0.7191,-0.293,1.6136,-0.00812,-0.03388,0.01528,0.0008396617486141622,0.0010000342736020684,0.0008439044468104839,0.0004232941719237715,0.0005001656827516854,0.0005885155405849218,0.011678491719067097,0.009392069652676582,0.01023064274340868,passive,1
1.7407,rehab,large_fast,13.380505901834296,-666.6269336280444,308.6255903694785,-177.39010115157703,0.13351394740382172,-149.98573409514935,-46.4219,-0.1097,43.5756,72.6274,-1.6286,-8.6441,78.58362783299815,27.06547198909344,82.58084967584894,-21.547427707248264,-88.914794921875,-41.45775689019097,-3.9724210229250465,-1.9045846769125154,-4.199177203792156,6.303515964084201,0.06785074869791667,-3.7319098578559027,-0.6936,-0.259,1.7228,-0.01546,-0.0369,0.00933,0.0008396617486141622,0.0010000342736020684,0.0008439044468104839,0.0004232941719237715,0.0005001656827516854,0.0005885155405849218,0.011678491719067097,0.009392069652676582,0.01023064274340868,passive,1
1.7607,rehab,large_fast,12.671197695141203,-666.6345314092669,309.2941429962641,-177.39067018175504,0.13409675369215165,-149.98673669702407,-45.2096,-0.1504,43.5477,94.1326,0.5939,-23.2073,78.52208128069887,27.034953655582843,82.5143266432356,-21.447669135199654,-88.91309102376302,-41.51717291937934,-3.809169353825031,-1.9589996337890625,-4.276394230304378,6.37375725640191,0.13570149739583334,-3.596208360460069,-0.6843,-0.2223,1.8276,-0.0145,-0.0338,0.00962,0.0008396617486141622,0.0010000342736020684,0.0008439044468104839,0.0004232941719237715,0.0005001656827516854,0.0005885155405849218,0.011678491719067097,0.009392069652676582,0.01023064274340868,passive,1
1.7808,rehab,large_fast,11.655913486845387,-666.6420590691544,310.29934646872704,-177.3907991883495,0.13428236261173018,-149.98650554668248,-42.299,-0.1555,42.5941,108.496,2.1832,-34.3377,78.43393911229502,26.988989197381652,82.41488541706954,-21.29926045735677,-88.91064961751302,-41.60386827256944,-3.428251058748453,-1.9589996337890625,-4.072535297658184,6.064944797092013,0.13570149739583334,-3.4604983859592013,-0.8712,-0.2315,1.303,-0.01661,-0.02551,0.0165,0.0008396617486141622,0.0010000342736020684,0.0008439044468104839,0.0004232941719237715,0.0005001656827516854,0.0005885155405849218,0.011678491719067097,0.009392069652676582,0.01023064274340868,passive,1
1.801,rehab,large_fast,11.006301264161271,-666.6397250621662,310.9693498654305,-177.39077676789796,0.1342826607728227,-149.9867259629644,-38.764,-0.0644,40.8096,116.6908,2.4644,-41.5863,78.37743022654315,26.957709435189123,82.3497492724126,-21.201087103949654,-88.90912373860677,-41.65904574924045,-3.482672814095374,-1.9045846769125154,-3.982224417204904,6.115553114149305,0.13570149739583334,-3.1890869140625,-0.6554,-0.3146,1.0259,0.00048,-0.03107,0.0113,0.0008396617486141622,0.0010000342736020684,0.0008439044468104839,0.0004232941719237715,0.0005001656827516854,0.0005885155405849218,0.011678491719067097,0.009392069652676582,0.01023064274340868,passive,1
1.8209,rehab,large_fast,10.077303652257916,-666.6361614247455,311.95764329025934,-177.39137750307344,0.13469569736647627,-149.98621165132133,-36.5001,0.0595,40.1449,120.7739,1.866,-47.2517,78.29663720461402,26.912118892858523,82.25262632464418,-21.05508592393663,-88.90704684787326,-41.73870510525173,-3.047339562142249,-1.8501697200359684,-4.12904418341004,5.8538818359375,0.06785074869791667,-3.121236165364583,-0.5991,-0.2587,1.5779,-0.0001,-0.02266,0.01038,0.0008396617486141622,0.0010000342736020684,0.0008439044468104839,0.0004232941719237715,0.0005001656827516854,0.0005885155405849218,0.011678491719067097,0.009392069652676582,0.01023064274340868,passive,1
1.8408,rehab,large_fast,9.494080447980915,-666.6384046809346,312.6135945756533,-177.39082768887556,0.1341893392346979,-149.98586121782938,-35.0116,0.1262,39.9329,117.8938,1.0188,-50.3699,78.24599539879524,26.88261353143371,82.18749017998724,-20.959582858615452,-88.90571594238281,-41.78861829969618,-3.047339562142249,-1.795747964689047,-3.988322645130724,6.10170152452257,0.06785074869791667,-2.985526190863715,-0.6323,-0.3102,1.6043,-0.01784,-0.03763,0.01524,0.0008396617486141622,0.0010000342736020684,0.0008439044468104839,0.0004232941719237715,0.0005001656827516854,0.0005885155405849218,0.011678491719067097,0.009392069652676582,0.01023064274340868,passive,1
1.8608,rehab,large_fast,8.68001535999554,-666.6367815504805,313.592165588219,-177.38880543081478,0.1324089872748841,-149.9852497174947,-32.7308,0.1093,38.6751,108.9195,-0.1714,-49.922,78.17522332219794,26.838185527537128,82.09163854617884,-20.819744533962673,-88.90383402506511,-41.858418782552086,-2.7752511808187657,-1.795747964689047,-3.8623401906230663,5.837953355577257,0.06785074869791667,-2.9176754421657987,-0.5792,-0.2624,1.2677,-0.00856,-0.03056,0.00898,0.0008396617486141622,0.0010000342736020684,0.0008439044468104839,0.0004232941719237715,0.0005001656827516854,0.0005885155405849218,0.011678491719067097,0.009392069652676582,0.01023064274340868,passive,1
1.8811,rehab,large_fast,8.169621199583144,-666.6310244342086,314.219871509233,-177.38822335084527,0.13186140310308625,-149.9851245164727,-30.8317,0.0225,37.876,104.4899,-1.7688,-49.609,78.13077492289024,26.80943479632387,82.03027555257967,-20.729022555881077,-88.90269809299045,-41.90196567111545,-2.6664212670656715,-1.795747964689047,-3.7753469637124843,5.674336751302083,0.06785074869791667,-2.510553995768229,-0.4606,-0.1253,1.8848,-0.00564,-0.04009,0.00888,0.0008396617486141622,0.0010000342736020684,0.0008439044468104839,0.0004232941719237715,0.0005001656827516854,0.0005885155405849218,0.011678491719067097,0.009392069652676582,0.01023064274340868,passive,1
1.9008,rehab,large_fast,7.681843656370669,-666.6249926986972,314.82402530796,-177.38823345666825,0.13188671217491676,-149.9863659498968,-28.5583,-0.057,36.7697,118.8446,-2.6133,-60.0125,78.08829128152072,26.78196897601137,81.97065976586673,-20.640614827473957,-88.90162997775607,-41.94220648871528,-2.557584554842203,-1.6325030940594059,-3.7048264305190286,5.384623209635417,0.06785074869791667,-2.374852498372396,-0.4626,-0.0368,1.6258,0.00918,-0.03477,0.01017,0.0008396617486141622,0.0010000342736020684,0.0008439044468104839,0.0004232941719237715,0.0005001656827516854,0.0005885155405849218,0.011678491719067097,0.009392069652676582,0.01023064274340868,passive,1
1.9209,rehab,large_fast,6.900065706516503,-666.631972925087,315.8119253491236,-177.3890483091306,0.13267685400643087,-149.9890377075012,-25.6037,-0.0819,35.0305,145.1183,-1.9619,-77.5128,78.02051053188815,26.739784467338335,81.86860792707688,-20.493189493815105,-88.8999515109592,-42.005649142795136,-2.176666259765625,-1.4692514249593904,-3.5027758909924196,5.182698567708333,0.06785074869791667,-1.9677310519748263,-0.3588,-0.0759,1.3847,0.00181,-0.02729,0.01048,0.0008396617486141622,0.0010000342736020684,0.0008439044468104839,0.0004232941719237715,0.0005001656827516854,0.0005885155405849218,0.011678491719067097,0.009392069652676582,0.01023064274340868,passive,1
1.9409,rehab,large_fast,6.512118778388863,-666.6378504004185,316.3478287457965,-177.38961962678724,0.13316825598006374,-149.98976448234046,-22.8426,-0.0935,33.5323,165.7825,-0.373,-89.644,77.98691928976834,26.717417499806622,81.8124525617845,-20.412877400716145,-88.89916314019096,-42.03760782877604,-2.0134145906656093,-1.360414712735922,-3.40301513671875,4.863374498155382,-0.0,-1.8998803032769096,-0.3474,-0.0429,1.6946,0.01271,-0.04094,0.00797,0.0008396617486141622,0.0010000342736020684,0.0008439044468104839,0.0004232941719237715,0.0005001656827516854,0.0005885155405849218,0.011678491719067097,0.009392069652676582,0.01023064274340868,passive,1
1.9608,rehab,large_fast,6.02431607519395,-666.6426956793771,317.1146269074222,-177.39015236064822,0.1336691765690751,-149.98981293791638,-19.7705,-0.1158,31.9668,181.997,1.1831,-100.6391,77.94461240862856,26.68517235482093,81.73269970582263,-20.298817952473957,-88.89814588758681,-42.07857767740885,-1.686918050935953,-1.360414712735922,-3.1523827278968133,4.6032460530598955,0.06785074869791667,-1.4927588568793402,-0.4005,-0.0767,1.2993,0.01196,-0.02691,0.00742,0.0008396617486141622,0.0010000342736020684,0.0008439044468104839,0.0004232941719237715,0.0005001656827516854,0.0005885155405849218,0.011678491719067097,0.009392069652676582,0.01023064274340868,passive,1
1.9807,rehab,large_fast,5.754128973151581,-666.6424570686171,317.6033808280827,-177.3898849553685,0.13343946336461782,-149.9897844537264,-16.0124,-0.0919,29.984,193.1332,1.9398,-110.7981,77.92111689501469,26.664226267597464,81.68283292562654,-20.227618747287327,-88.89760335286458,-42.10129631890191,-1.305999755859375,-1.251584798982828,-2.9792188889909497,4.299613104926215,-0.0,-1.2213473849826388,-0.308,-0.0443,1.737,-0.00016,-0.04054,0.00833,0.0008396617486141622,0.0010000342736020684,0.0008439044468104839,0.0004232941719237715,0.0005001656827516854,0.0005885155405849218,0.011678491719067097,0.009392069652676582,0.01023064274340868,passive,1
2.001,rehab,large_fast,5.446213245467041,-666.6418259509489,318.2794077208516,-177.38971909144888,0.1332691541249495,-149.98887447165956,-10.6849,0.0038,26.8516,200.689,1.9332,-120.8372,77.89431052632851,26.635455140973082,81.61354291557085,-20.12892829047309,-88.89703538682726,-42.12789747450087,-0.9250814607827971,-1.1427480867593596,-2.762633219803914,3.969302707248264,-0.0,-0.8820851643880208,-0.3851,0.0609,1.3908,-0.00161,-0.03916,0.0103,0.0008396617486141622,0.0010000342736020684,0.0008439044468104839,0.0004232941719237715,0.0005001656827516854,0.0005885155405849218,0.011678491719067097,0.009392069652676582,0.01023064274340868,passive,1
2.0208,rehab,large_fast,5.287185464775159,-666.6381246984135,318.6938602857651,-177.38975812843327,0.13331782400313166,-149.98963709673853,-6.9498,0.078,24.5072,207.5446,1.5817,-133.918,77.88039405747216,26.617507179184717,81.57153516712755,-20.06850348578559,-88.89678955078125,-42.14036729600694,-0.7074148348062346,-1.0339181730062654,-2.5533287123878403,3.6390431722005205,-0.0,-0.678524441189236,-0.25,0.0242,1.4109,-0.00044,-0.03574,0.00849,0.0008396617486141622,0.0010000342736020684,0.0008439044468104839,0.0004232941719237715,0.0005001656827516854,0.0005885155405849218,0.011678491719067097,0.009392069652676582,0.01023064274340868,passive,1
2.0407,rehab,large_fast,5.140595338239343,-666.6382461723341,319.25171667091286,-177.38984041808635,0.1334449758039146,-149.9907156594892,-3.3026,0.098,22.0024,206.2485,1.0128,-144.9169,77.86759253775719,26.59417482885984,81.51376856435644,-19.986902872721355,-88.89662848578558,-42.15116712782118,-0.32649653972965653,-0.9250814607827971,-2.3204743035949105,3.1580437554253473,-0.0,-0.2714114718967014,-0.1627,0.0968,1.594,0.00996,-0.04088,0.00852,0.0008396617486141622,0.0010000342736020684,0.0008439044468104839,0.0004232941719237715,0.0005001656827516854,0.0005885155405849218,0.011678491719067097,0.009392069652676582,0.01023064274340868,passive,1
2.0607,rehab,large_fast,5.147365878990993,-666.6380441605968,319.58579913783785,-177.38923938558355,0.13298816161968247,-149.98783924639895,0.6702,0.0737,19.1753,196.035,0.1172,-151.2201,77.86808202762415,26.58017677835899,81.4795722583733,-19.93939717610677,-88.89663696289062,-42.15301513671875,0.16324487062964108,-0.87066650390625,-2.0405404874593907,2.7711062961154513,-0.0,-0.0,-0.2871,0.1695,1.9854,0.01257,-0.04489,0.00704,0.0008396617486141622,0.0010000342736020684,0.0008439044468104839,0.0004232941719237715,0.0005001656827516854,0.0005885155405849218,0.011678491719067097,0.009392069652676582,0.01023064274340868,passive,1
2.0809,rehab,large_fast,5.22899008156753,-666.6352464006217,320.0214776565261,-177.3882755595113,0.1323020947833319,-149.98215816331034,4.5816,0.0452,16.0183,183.9923,-0.8563,-154.7361,77.87495528117265,26.561671341999922,81.43549777493618,-19.878048366970486,-88.896730211046,-42.151124742296005,0.489748208829672,-0.7074148348062346,-1.6030997096902073,2.2720167371961804,-0.0,0.2714114718967014,-0.2785,0.2609,1.3959,0.00517,-0.02685,0.01174,0.0008396617486141622,0.0010000342736020684,0.0008439044468104839,0.0004232941719237715,0.0005001656827516854,0.0005885155405849218,0.011678491719067097,0.009392069652676582,0.01023064274340868,passive,1
2.1009,rehab,large_fast,5.344311737362866,-666.6333730867468,320.261288632802,-177.38758130689365,0.1319849931419446,-149.98013699628677,8.403,0.032,12.6403,178.277,-1.1275,-158.0561,77.88480626474512,26.55150083031985,81.41132921275526,-19.84469943576389,-88.89685736762152,-42.14291042751736,0.6529998779296875,-0.544163165706219,-1.4312751694480972,1.8988545735677083,-0.0,0.7463751898871528,-0.2438,0.3351,2.021,0.00572,-0.02059,0.00983,0.0008396617486141622,0.0010000342736020684,0.0008439044468104839,0.0004232941719237715,0.0005001656827516854,0.0005885155405849218,0.011678491719067097,0.009392069652676582,0.01023064274340868,passive,1
2.121,rehab,large_fast,5.493903358116943,-666.6344359647297,320.4601610524167,-177.38677790094226,0.13170307697949077,-149.9815756876029,12.1631,0.0127,9.2186,183.5176,-0.6317,-167.7879,77.89768936610457,26.543431045985457,81.39087261539875,-19.817428588867188,-88.89707777235243,-42.1282704671224,0.87066650390625,-0.489748208829672,-1.137050968585628,1.5366702609592013,0.06785074869791667,1.0177951388888888,-0.1706,0.2697,1.4836,0.01237,-0.02748,0.01023,0.0008396617486141622,0.0010000342736020684,0.0008439044468104839,0.0004232941719237715,0.0005001656827516854,0.0005885155405849218,0.011678491719067097,0.009392069652676582,0.01023064274340868,passive,1
2.1407,rehab,large_fast,5.85100559059188,-666.6332954644342,320.67789670691224,-177.38737439074725,0.13286535455101037,-149.9858803627137,15.3495,0.0026,5.9772,182.8329,0.115,-174.3072,77.92847963843015,26.53476299625812,81.36770342836286,-19.785512288411457,-88.89784918891058,-42.09280225965712,1.305999755859375,-0.16324487062964108,-0.5582224024404393,0.7739173041449653,0.06785074869791667,1.4927588568793402,-0.1642,0.3656,0.9985,0.00747,-0.03801,0.00951,0.0008396617486141622,0.0010000342736020684,0.0008439044468104839,0.0004232941719237715,0.0005001656827516854,0.0005885155405849218,0.011678491719067097,0.009392069652676582,0.01023064274340868,passive,1
2.161,rehab,large_fast,6.118174362499226,-666.6366184983058,320.7325621017691,-177.3881799809524,0.13379977592450798,-149.98808002047537,18.7387,-0.003,2.5992,173.0536,0.6873,-175.3441,77.95164202699567,26.533362511361,81.36053784058825,-19.77654351128472,-88.89854431152344,-42.06733703613281,1.6325030940594059,0.10882991375309406,-0.28092639281017945,0.3731621636284722,-0.0,1.696319580078125,0.0271,0.2903,1.5576,0.01556,-0.04393,0.01091,0.0008396617486141622,0.0010000342736020684,0.0008439044468104839,0.0004232941719237715,0.0005001656827516854,0.0005885155405849218,0.011678491719067097,0.009392069652676582,0.01023064274340868,passive,1
2.1807,rehab,large_fast,6.615258447107144,-666.6318398755634,320.70755848848063,-177.39165050671656,0.1368595849498401,-149.98980727920906,22.1182,0.0255,-0.6042,161.8985,0.7611,-175.2713,77.99460156129138,26.534912562606358,81.36119729221457,-19.77556864420573,-88.90003628200955,-42.022645738389755,1.8501697200359684,-0.0,0.08500807356126237,-0.19323560926649305,-0.06785074869791667,1.9677310519748263,-0.1408,0.3446,1.821,0.01757,-0.03721,0.01172,0.0008396617486141622,0.0010000342736020684,0.0008439044468104839,0.0004232941719237715,0.0005001656827516854,0.0005885155405849218,0.011678491719067097,0.009392069652676582,0.01023064274340868,passive,1
2.2011,rehab,large_fast,6.991626673998919,-666.6352344824262,320.68339911125827,-177.38985136117697,0.13501024335156242,-149.99125183158822,25.627,0.0629,-4.1727,148.2266,0.455,-176.8388,78.02730220379216,26.53640822608872,81.36420901459043,-19.783749050564236,-88.90129089355469,-41.98860168457031,2.176666259765625,0.10882991375309406,0.3391416946260056,-0.8335452609592013,-0.06785074869791667,2.171291775173611,0.0267,0.3716,1.9418,0.00728,-0.03777,0.00349,0.0008396617486141622,0.0010000342736020684,0.0008439044468104839,0.0004232941719237715,0.0005001656827516854,0.0005885155405849218,0.011678491719067097,0.009392069652676582,0.01023064274340868,passive,1
2.221,rehab,large_fast,7.6314288576302225,-666.633661245573,320.5673631797814,-177.38544849732733,0.13058671245858755,-149.9928300810666,29.729,0.0791,-8.8229,140.2498,-0.1464,-185.1104,78.08279131898786,26.54087482112469,81.37958715457728,-19.811655680338543,-88.90341016981337,-41.931864420572914,2.557584554842203,0.2720815828531095,0.8683550239789604,-1.4897833930121527,-0.06785074869791667,2.510553995768229,-0.1077,0.3039,1.8558,-0.02064,-0.0324,0.00293,0.0008396617486141622,0.0010000342736020684,0.0008439044468104839,0.0004232941719237715,0.0005001656827516854,0.0005885155405849218,0.011678491719067097,0.009392069652676582,0.01023064274340868,passive,1
2.2407,rehab,large_fast,8.115744650381322,-666.63118421425,320.4283511570763,-177.3827813163617,0.1280131520836747,-149.99241758358895,31.1238,0.0788,-11.72,128.5409,-0.8732,-186.1212,78.12475827660892,26.54639517906869,81.39613463146851,-19.838756985134548,-88.90481736924913,-41.890623304578995,2.8296661376953125,0.489748208829672,1.1644012149017635,-1.9436221652560763,-0.06785074869791667,2.6462639702690973,0.0911,0.3707,1.836,0.00658,-0.03964,0.00525,0.0008396617486141622,0.0010000342736020684,0.0008439044468104839,0.0004232941719237715,0.0005001656827516854,0.0005885155405849218,0.011678491719067097,0.009392069652676582,0.01023064274340868,passive,1
2.261,rehab,large_fast,8.919415283865334,-666.6271950778096,320.08765495575,-177.3824701953063,0.1275602535811062,-149.99085922150223,33.1414,0.0382,-15.1164,115.8445,-1.4016,-183.3553,78.19440180712407,26.561025487314357,81.43160904988204,-19.891569349500866,-88.90700446234808,-41.8231455485026,3.1017545190187965,0.7074148348062346,1.7105835263091738,-2.4012332492404513,-0.13570149739583334,2.985526190863715,0.1052,0.4949,1.7263,0.01032,-0.03611,0.01217,0.0008396617486141622,0.0010000342736020684,0.0008439044468104839,0.0004232941719237715,0.0005001656827516854,0.0005885155405849218,0.011678491719067097,0.009392069652676582,0.01023064274340868,passive,1
2.2807,rehab,large_fast,9.50305462951574,-666.6255861432531,319.78656238719685,-177.38376653172725,0.12861510117048183,-149.98877684303918,35.5266,-0.0146,-18.9687,103.9531,-1.3206,-173.0185,78.24500962059096,26.57443886936301,81.46133196235883,-19.934582180447048,-88.90853034125433,-41.77511427137587,3.319421144995359,0.9250814607827971,1.9807615374574568,-2.907469007703993,-0.06785074869791667,3.0533854166666665,0.0089,0.3639,1.9912,-0.00914,-0.03792,0.00261,0.0008396617486141622,0.0010000342736020684,0.0008439044468104839,0.0004232941719237715,0.0005001656827516854,0.0005885155405849218,0.011678491719067097,0.009392069652676582,0.01023064274340868,passive,1
2.3011,rehab,large_fast,10.409093808054404,-666.6287172497563,319.24558703245725,-177.38657839468007,0.13105857166856424,-149.98757329460972,37.5569,-0.058,-22.6398,100.61,-0.664,-162.1667,78.32370191517442,26.59940285257774,81.51304112802637,-20.009994506835938,-88.91087002224393,-41.69848971896701,3.319421144995359,1.1427480867593596,2.340407418732596,-3.3347659640842013,-0.06785074869791667,3.324796888563368,0.0605,0.5251,2.3817,0.00501,-0.02184,0.00161,0.0008396617486141622,0.0010000342736020684,0.0008439044468104839,0.0004232941719237715,0.0005001656827516854,0.0005885155405849218,0.011678491719067097,0.009392069652676582,0.01023064274340868,passive,1
2.3211,rehab,large_fast,11.025622664242201,-666.6292936931094,318.84640456427104,-177.38781026914506,0.13217425565899618,-149.9890957729786,40.1834,-0.0789,-26.1922,115.6834,0.0462,-164.5546,78.37724666784305,26.617493582243966,81.55208474338644,-20.067214965820312,-88.91247219509549,-41.64407518174913,3.482672814095374,1.1971630436359066,2.581861892549118,-3.786282009548611,-0.0,3.392647637261285,-0.0803,0.449,2.1199,-0.00179,-0.03518,0.00035,0.0008396617486141622,0.0010000342736020684,0.0008439044468104839,0.0004232941719237715,0.0005001656827516854,0.0005885155405849218,0.011678491719067097,0.009392069652676582,0.01023064274340868,passive,1
2.3409,rehab,large_fast,11.660909355847009,-666.6333962411132,318.4204834276989,-177.38784395702126,0.13205474227777106,-149.99014269101443,41.8427,-0.0546,-28.7378,109.4792,0.6735,-149.6532,78.43251823198678,26.637100370803683,81.5938953361889,-20.13047112358941,-88.91422695583768,-41.58848232693142,3.482672814095374,1.251584798982828,2.709360405950263,-4.14383782280816,-0.13570149739583334,3.4604983859592013,-0.1221,0.4455,1.6656,-0.01532,-0.02831,0.0056,0.0008396617486141622,0.0010000342736020684,0.0008439044468104839,0.0004232941719237715,0.0005001656827516854,0.0005885155405849218,0.011678491719067097,0.009392069652676582,0.01023064274340868,passive,1
2.3611,rehab,large_fast,12.847837421058353,-666.636142220929,317.60046147456103,-177.38751365888825,0.13161495413073981,-149.99065646293792,43.9278,0.0029,-31.4361,82.8128,1.0586,-123.9938,78.53570541532913,26.674410376218287,81.67521863880724,-20.25292290581597,-88.91734653049045,-41.4861806233724,3.8635911091719524,1.360414712735922,3.0685167973584466,-4.67100355360243,-0.13570149739583334,3.8676198323567705,0.0158,0.4677,1.8133,0.01039,-0.03191,0.00669,0.0008396617486141622,0.0010000342736020684,0.0008439044468104839,0.0004232941719237715,0.0005001656827516854,0.0005885155405849218,0.011678491719067097,0.009392069652676582,0.01023064274340868,passive,1
2.3808,rehab,large_fast,13.559990469137999,-666.636823537605,317.09249252326293,-177.3868122241644,0.13093391491533604,-149.98976016169277,45.6164,0.051,-33.7411,64.447,0.7705,-109.5372,78.59761228655825,26.69749118313931,81.72586044462601,-20.329547458224827,-88.91915215386284,-41.42604404025607,3.918006066048499,1.5236663818359375,3.2659579739712252,-4.991565280490451,-0.13570149739583334,3.8676198323567705,-0.0546,0.5077,1.9426,-0.01059,-0.01965,-0.00081,0.0008396617486141622,0.0010000342736020684,0.0008439044468104839,0.0004232941719237715,0.0005001656827516854,0.0005885155405849218,0.011678491719067097,0.009392069652676582,0.01023064274340868,passive,1
2.4011,rehab,large_fast,14.663865406713477,-666.6309066292076,316.2587038102095,-177.38709428648016,0.13119108661310114,-149.98923740887903,48.4614,0.0453,-37.2324,47.2267,-0.1836,-100.3597,78.69347071883702,26.7349371579614,81.80896494648245,-20.45271979437934,-88.92188178168402,-41.33210923936632,4.081257735148514,1.6325030940594059,3.5709781457882115,-5.355114407009548,-0.06785074869791667,4.071180555555555,0.0645,0.4812,1.082,0.00105,-0.03175,0.00631,0.0008396617486141622,0.0010000342736020684,0.0008439044468104839,0.0004232941719237715,0.0005001656827516854,0.0005885155405849218,0.011678491719067097,0.009392069652676582,0.01023064274340868,passive,1
2.4207,rehab,large_fast,15.4222943368798,-666.6272934602428,315.6681242803411,-177.38715848386053,0.13125329087231433,-149.9889771497813,48.3426,0.0169,-38.1851,33.0609,-1.0605,-93.7433,78.75936149370553,26.76172313123646,81.86749297793548,-20.540008544921875,-88.9237552218967,-41.26747131347656,4.135672692025062,1.795747964689047,3.6539058874149135,-5.69944593641493,-0.13570149739583334,4.071180555555555,-0.1012,0.5433,1.8403,-0.01464,-0.03688,0.00807,0.0008396617486141622,0.0010000342736020684,0.0008439044468104839,0.0004232941719237715,0.0005001656827516854,0.0005885155405849218,0.011678491719067097,0.009392069652676582,0.01023064274340868,passive,1
2.4411,rehab,large_fast,16.582768478153536,-666.6259773715353,314.7304057400157,-177.38741757871026,0.13141184570683423,-149.9877126647273,46.4947,-0.0047,-38.4519,23.1006,-1.2699,-88.1696,78.86029158488358,26.80518575233988,81.95891200905979,-20.677719116210938,-88.92664591471355,-41.169374254014755,4.135672692025062,1.9045846769125154,3.90432074518487,-5.97762213812934,-0.13570149739583334,4.274732801649305,-0.1106,0.3394,1.306,-0.01635,-0.03306,0.00513,0.0008396617486141622,0.0010000342736020684,0.0008439044468104839,0.0004232941719237715,0.0005001656827516854,0.0005885155405849218,0.011678491719067097,0.009392069652676582,0.01023064274340868,passive,1
2.461,rehab,large_fast,17.36116577131888,-666.6284184853872,314.06920181177077,-177.38784114352816,0.131759587278349,-149.9876998296798,47.9119,-0.0467,-41.2825,14.9094,-0.6515,-80.9295,78.92807233451616,26.83651310382503,82.0221989697749,-20.77390882703993,-88.9285871717665,-41.102701822916664,4.298924361125077,2.0134145906656093,4.102543745890702,-6.079966227213541,-0.20355224609375,4.0033213297526045,-0.0659,0.433,1.1915,-0.00965,-0.03639,0.00502,0.0008396617486141622,0.0010000342736020684,0.0008439044468104839,0.0004232941719237715,0.0005001656827516854,0.0005885155405849218,0.011678491719067097,0.009392069652676582,0.01023064274340868,passive,1
2.4808,rehab,large_fast,18.540360237469088,-666.6346326368013,313.0444940817199,-177.3873304070535,0.13133105024619288,-149.9877949196055,48.96,-0.1013,-43.4544,16.0746,0.3877,-77.397,79.03082441575457,26.885584462987314,82.12003575693262,-20.924699571397568,-88.93148634168837,-41.00156995985243,4.298924361125077,2.067836346012531,4.11152452525526,-6.479576958550347,-0.13570149739583334,4.342592027452257,-0.1754,0.4331,1.4205,-0.01621,-0.02637,0.00887,0.0008396617486141622,0.0010000342736020684,0.0008439044468104839,0.0004232941719237715,0.0005001656827516854,0.0005885155405849218,0.011678491719067097,0.009392069652676582,0.01023064274340868,passive,1
2.5007,rehab,large_fast,19.32784717973146,-666.6380970789162,312.3341468748431,-177.38735754836833,0.13137343550709857,-149.98844831390005,49.1669,-0.0936,-44.6897,33.5978,1.1516,-85.3284,79.09945497418394,26.919801164381575,82.18738820293161,-21.028383043077255,-88.93342759874132,-40.93346489800347,4.353339318001624,2.2310880151125465,4.289256936252707,-6.6861724853515625,-0.13570149739583334,4.274732801649305,-0.2295,0.4297,1.0465,-0.01939,-0.02377,0.00723,0.0008396617486141622,0.0010000342736020684,0.0008439044468104839,0.0004232941719237715,0.0005001656827516854,0.0005885155405849218,0.011678491719067097,0.009392069652676582,0.01023064274340868,passive,1
2.5209,rehab,large_fast,20.114258587642496,-666.6367597736909,311.5969380149564,-177.38845862059497,0.13236267858568906,-149.9899673120805,49.8125,-0.0097,-46.2452,38.8796,1.2894,-79.9006,79.15072903774752,26.946063655437808,82.23962764928837,-21.107381184895832,-88.9348856608073,-40.88169521755642,4.135672692025062,2.3399179288656407,4.34998087363668,-6.471625434027778,-0.06785074869791667,4.139031304253472,-0.2698,0.5593,1.155,-0.00405,-0.03044,0.01151,0.0008396617486141622,0.0010000342736020684,0.0008439044468104839,0.0004232941719237715,0.0005001656827516854,0.0005885155405849218,0.011678491719067097,0.009392069652676582,0.01023064274340868,passive,1
2.5407,rehab,large_fast,21.50007216734078,-666.634291930167,310.28154226540977,-177.389381273858,0.13306255945602946,-149.99092977435828,50.4333,0.0743,-47.5765,13.3104,0.9631,-51.9925,79.28864280776222,27.018338193987855,82.38177006787593,-21.324632432725693,-88.9388444688585,-40.74516296386719,4.462176030225093,2.2855029719890934,4.548625379505724,-6.994171142578125,-0.20355224609375,4.206882052951388,0.0263,0.4401,1.8728,0.00018,-0.03496,0.00012,0.0008396617486141622,0.0010000342736020684,0.0008439044468104839,0.0004232941719237715,0.0005001656827516854,0.0005885155405849218,0.011678491719067097,0.009392069652676582,0.01023064274340868,passive,1
2.5608,rehab,large_fast,22.309893073873553,-666.6356734562188,309.5266824852108,-177.38877963107228,0.1325670669760314,-149.98982403340452,50.4968,0.0974,-48.3295,-12.8799,0.2688,-31.5028,79.35923132565942,27.055315074354116,82.45278009093634,-21.435555352105034,-88.94076877170139,-40.676939222547745,4.4077542748781715,2.3399179288656407,4.492782743850557,-7.014490763346354,-0.13570149739583334,4.274732801649305,-0.13,0.3906,1.0532,-0.01475,-0.02534,0.00568,0.0008396617486141622,0.0010000342736020684,0.0008439044468104839,0.0004232941719237715,0.0005001656827516854,0.0005885155405849218,0.011678491719067097,0.009392069652676582,0.01023064274340868,passive,1
2.5809,rehab,large_fast,23.517156019186615,-666.6322057287413,308.38351056464955,-177.3872531030608,0.13126403673359988,-149.98857021844293,51.6634,0.0619,-50.4339,-27.4583,-0.7145,-24.4625,79.46441046082147,27.110974151309172,82.56121569340772,-21.604877048068577,-88.94365946451823,-40.57493421766493,4.190087648901609,2.2855029719890934,4.6479374347346845,-7.123302883572048,-0.13570149739583334,4.342592027452257,-0.2015,0.4281,1.2183,-0.0223,-0.03844,0.009,0.0008396617486141622,0.0010000342736020684,0.0008439044468104839,0.0004232941719237715,0.0005001656827516854,0.0005885155405849218,0.011678491719067097,0.009392069652676582,0.01023064274340868,passive,1
2.6009,rehab,large_fast,24.31113316137247,-666.6266153287273,307.6002482236301,-177.38705633314925,0.13105737739712,-149.9880808969101,50.2135,0.0007,-49.8534,-44.1611,-1.4454,-13.9404,79.5335577029993,27.14907957775758,82.63520344649211,-21.719377305772568,-88.94559224446614,-40.50757514105903,4.353339318001624,2.3399179288656407,4.679869850083152,-7.356474134657118,-0.06785074869791667,4.274732801649305,-0.125,0.3861,0.6359,-0.01454,-0.03903,0.00967,0.0008396617486141622,0.0010000342736020684,0.0008439044468104839,0.0004232941719237715,0.0005001656827516854,0.0005885155405849218,0.011678491719067097,0.009392069652676582,0.01023064274340868,passive,1
2.6211,rehab,large_fast,25.484672161253197,-666.62601661769,306.41135617630755,-177.38708470955183,0.13096828348297465,-149.98659141077587,47.2358,-0.0565,-48.3047,-60.0399,-1.3732,-3.5548,79.63591547295599,27.208443821066677,82.74501233997911,-21.891699896918404,-88.94846598307292,-40.408664279513886,4.135672692025062,2.503169597965656,4.51806625517288,-7.396409776475695,-0.13570149739583334,3.9354705810546875,-0.1048,0.4097,0.8955,-0.01973,-0.02698,0.00786,0.0008396617486141622,0.0010000342736020684,0.0008439044468104839,0.0004232941719237715,0.0005001656827516854,0.0005885155405849218,0.011678491719067097,0.009392069652676582,0.01023064274340868,passive,1
2.6409,rehab,large_fast,26.271848018915563,-666.6322587379766,305.6057027821063,-177.3872251111435,0.13110306533084068,-149.98407953537836,46.5121,-0.0814,-49.1778,-68.7159,-0.5258,2.4432,79.70467520232248,27.249921288820776,82.8174092509959,-22.007420857747395,-88.95028008355034,-40.343729654947914,4.244502605778156,2.8296661376953125,4.406496557858911,-7.1938323974609375,-0.06785074869791667,4.0033213297526045,-0.0756,0.43,0.7034,-0.02054,-0.03636,0.00868,0.0008396617486141622,0.0010000342736020684,0.0008439044468104839,0.0004232941719237715,0.0005001656827516854,0.0005885155405849218,0.011678491719067097,0.009392069652676582,0.01023064274340868,passive,1
2.6609,rehab,large_fast,27.41035199369813,-666.6385734565378,304.3777764425243,-177.38904928289497,0.13265882039462412,-149.98208296438926,45.8926,-0.0779,-50.076,-66.9977,0.5477,0.9653,79.80411642848856,27.313276234239634,82.92683743014194,-22.180803087022568,-88.95294189453125,-40.24825202094184,4.081257735148514,2.6664212670656715,4.555852153513691,-7.202394273546007,-0.06785074869791667,3.799769083658854,-0.0988,0.4685,1.1034,-0.01806,-0.02074,0.00986,0.0008396617486141622,0.0010000342736020684,0.0008439044468104839,0.0004232941719237715,0.0005001656827516854,0.0005885155405849218,0.011678491719067097,0.009392069652676582,0.01023064274340868,passive,1
2.6807,rehab,large_fast,28.130816113652948,-666.6373276351779,303.5626137893071,-177.3904048456043,0.13386932246621377,-149.98348961764464,44.6307,-0.0304,-49.8992,-45.5045,1.248,-18.3212,79.86698868251082,27.354848880578977,83.00022691783339,-22.295922173394096,-88.95464579264323,-40.185275607638886,3.754754396948484,2.61199951171875,4.549978275110226,-7.127109103732638,-0.13570149739583334,3.799769083658854,-0.264,0.3954,0.8567,-0.02497,-0.02673,0.01219,0.0008396617486141622,0.0010000342736020684,0.0008439044468104839,0.0004232941719237715,0.0005001656827516854,0.0005885155405849218,0.011678491719067097,0.009392069652676582,0.01023064274340868,passive,1
2.701,rehab,large_fast,28.836273726887708,-666.6380775868232,302.7589941107965,-177.39059304689144,0.13396684461359754,-149.98449195439522,43.4465,0.0277,-49.7089,-25.9888,1.4202,-31.1944,79.92861001798423,27.39616318504409,83.07265782120204,-22.411380343967014,-88.95639207628038,-40.123960706922745,3.809169353825031,2.557584554842203,4.484060306360226,-7.378548516167535,-0.06785074869791667,3.9354705810546875,-0.2213,0.3356,1.0718,-0.01591,-0.01514,0.00819,0.0008396617486141622,0.0010000342736020684,0.0008439044468104839,0.0004232941719237715,0.0005001656827516854,0.0005885155405849218,0.011678491719067097,0.009392069652676582,0.01023064274340868,passive,1
2.721,rehab,large_fast,30.03462999459739,-666.6359544756252,301.37757199491176,-177.38941906685542,0.13286757501769772,-149.98519379240904,42.7608,0.0583,-50.1106,-35.8025,0.9991,-12.3983,80.03325887245707,27.467098424930384,83.19808959960938,-22.61257595486111,-88.95931667751736,-40.02088758680556,3.64592448319539,2.503169597965656,4.604216471757039,-7.183397081163195,-0.06785074869791667,3.7319098578559027,-0.1742,0.4099,0.9701,-0.01232,-0.01479,0.01117,0.0008396617486141622,0.0010000342736020684,0.0008439044468104839,0.0004232941719237715,0.0005001656827516854,0.0005885155405849218,0.011678491719067097,0.009392069652676582,0.01023064274340868,passive,1
2.7411,rehab,large_fast,30.706596002386256,-666.6325547619998,300.58460513163004,-177.38887828458695,0.13243960819777115,-149.9854791952491,42.1928,0.063,-50.5128,-51.9887,0.2011,10.9006,80.09190927637685,27.507855254824797,83.2699970207592,-22.72772894965278,-88.96087646484375,-39.96325174967448,3.754754396948484,2.503169597965656,4.559686490804842,-7.186431884765625,-0.06785074869791667,3.528349134657118,-0.2311,0.2924,1.1747,-0.03461,-0.02303,0.00598,0.0008396617486141622,0.0010000342736020684,0.0008439044468104839,0.0004232941719237715,0.0005001656827516854,0.0005885155405849218,0.011678491719067097,0.009392069652676582,0.01023064274340868,passive,1
2.761,rehab,large_fast,31.70219524779159,-666.6269676622871,299.3996736352023,-177.38812167711754,0.1318573785793463,-149.98460286644385,42.5201,0.0437,-51.936,-57.2906,-0.4865,19.7451,80.17880732470219,27.56917065913134,83.3768349826926,-22.89945814344618,-88.96313137478299,-39.87916734483507,3.5915027278484684,2.503169597965656,4.379567816705987,-7.176539103190104,-0.06785074869791667,3.392647637261285,-0.3018,0.2897,1.2103,-0.0353,-0.01283,0.00454,0.0008396617486141622,0.0010000342736020684,0.0008439044468104839,0.0004232941719237715,0.0005001656827516854,0.0005885155405849218,0.011678491719067097,0.009392069652676582,0.01023064274340868,passive,1
2.781,rehab,large_fast,32.3526231174685,-666.6277011458803,298.60261283644314,-177.3877266856941,0.1315316245446302,-149.9842979858033,41.5129,0.0236,-51.5213,-58.1732,-0.7221,23.4317,80.23566293244315,27.611239593808012,83.44738950823793,-23.01431443956163,-88.96463182237413,-39.82391357421875,3.5915027278484684,2.7752511808187657,4.422976050046411,-7.1331787109375,-0.13570149739583334,3.324796888563368,-0.409,0.2919,0.433,-0.04359,-0.01668,0.00822,0.0008396617486141622,0.0010000342736020684,0.0008439044468104839,0.0004232941719237715,0.0005001656827516854,0.0005885155405849218,0.011678491719067097,0.009392069652676582,0.01023064274340868,passive,1
2.8008,rehab,large_fast,33.302870055261515,-666.636001815647,297.38666056484203,-177.38859690837114,0.13224805255267588,-149.9844605322771,38.4675,-0.0026,-48.8057,-55.0753,-0.6323,24.0091,80.31885581441445,27.676831235980043,83.55214713823678,-23.18606906467014,-88.96684434678819,-39.74249945746528,3.373836101871906,2.884087893042234,4.47511351934754,-7.22564697265625,-0.06785074869791667,3.4604983859592013,-0.3648,0.3391,-0.062,-0.03132,-0.02776,0.01901,0.0008396617486141622,0.0010000342736020684,0.0008439044468104839,0.0004232941719237715,0.0005001656827516854,0.0005885155405849218,0.011678491719067097,0.009392069652676582,0.01023064274340868,passive,1
2.821,rehab,large_fast,33.9309944607862,-666.6351922007352,296.5744951297036,-177.38970630185437,0.13321127752785983,-149.98430523054014,36.7004,-0.0289,-47.5207,-47.1934,-0.6442,19.2266,80.37375346268757,27.720205476968594,83.62260648519685,-23.300094604492188,-88.96825154622395,-39.68904283311632,3.428251058748453,2.7752511808187657,4.263817060111773,-6.942960951063368,-0.06785074869791667,3.2569376627604165,-0.2968,0.2946,0.8165,-0.02193,-0.02144,0.00541,0.0008396617486141622,0.0010000342736020684,0.0008439044468104839,0.0004232941719237715,0.0005001656827516854,0.0005885155405849218,0.011678491719067097,0.009392069652676582,0.01023064274340868,passive,1
2.8409,rehab,large_fast,34.858934351978405,-666.632419744477,295.36338860467333,-177.3903117038632,0.133820436813794,-149.98443403012442,36.498,-0.0226,-48.0632,-34.5912,-0.6572,8.5792,80.4548456173132,27.78496770575495,83.72811194693688,-23.47196790907118,-88.97029452853732,-39.60975646972656,3.2650061881188117,2.7208362239422184,4.3647947405824565,-7.015313042534722,-0.06785074869791667,3.121236165364583,-0.4361,0.3744,0.6684,-0.01135,-0.02432,0.01605,0.0008396617486141622,0.0010000342736020684,0.0008439044468104839,0.0004232941719237715,0.0005001656827516854,0.0005885155405849218,0.011678491719067097,0.009392069652676582,0.01023064274340868,passive,1
2.8608,rehab,large_fast,35.46262812902684,-666.6298774477983,294.5755174743598,-177.38959892563207,0.13321821499223135,-149.98482663706773,36.5109,0.0028,-48.7162,-10.6508,-0.4367,-14.5481,80.50761534435914,27.827152214427986,83.79725918911471,-23.585840861002605,-88.97169325086806,-39.55787658691406,3.319421144995359,2.61199951171875,4.236561992380879,-7.015296088324653,-0.13570149739583334,3.1890869140625,-0.4817,0.256,0.4812,-0.0327,-0.01526,0.01407,0.0008396617486141622,0.0010000342736020684,0.0008439044468104839,0.0004232941719237715,0.0005001656827516854,0.0005885155405849218,0.011678491719067097,0.009392069652676582,0.01023064274340868,passive,1
2.8809,rehab,large_fast,36.05486944362867,-666.6324846475865,293.78829839927863,-177.38845580660677,0.13228092183790127,-149.98546948215198,36.9447,0.0041,-49.6143,15.8232,-0.1078,-38.3742,80.55946727790455,27.870077756371828,83.86534586991414,-23.69991726345486,-88.97305806477864,-39.50666639539931,3.1561694758953434,2.6664212670656715,4.279433146561726,-7.206768459743923,-0.06785074869791667,3.1890869140625,-0.3505,0.2805,0.1895,-0.03835,-0.02452,0.01355,0.0008396617486141622,0.0010000342736020684,0.0008439044468104839,0.0004232941719237715,0.0005001656827516854,0.0005885155405849218,0.011678491719067097,0.009392069652676582,0.01023064274340868,passive,1
2.9007,rehab,large_fast,36.93297795916868,-666.632439403439,292.59337727653616,-177.38810584397243,0.1319294953693233,-149.98768592628264,37.357,-0.0446,-50.4282,25.5418,0.0838,-41.1795,80.63631718701656,27.935261490321395,83.96810474962291,-23.870739407009548,-88.9751688639323,-39.429524739583336,3.319421144995359,2.8296661376953125,4.302140037612159,-7.196545071072048,-0.06785074869791667,3.2569376627604165,-0.3433,0.2218,0.2221,-0.02809,-0.01827,0.0147,0.0008396617486141622,0.0010000342736020684,0.0008439044468104839,0.0004232941719237715,0.0005001656827516854,0.0005885155405849218,0.011678491719067097,0.009392069652676582,0.01023064274340868,passive,1
2.9207,rehab,large_fast,37.52315661538009,-666.6325703922174,291.7807721885211,-177.3890935835715,0.13268346693249075,-149.98848120442227,37.5716,-0.0711,-50.8902,22.627,0.1108,-31.3858,80.6879719649211,27.980070208558942,84.03669451723005,-23.984476725260418,-88.97657606336806,-39.37835693359375,3.1561694758953434,2.884087893042234,4.3069397576964725,-7.064971923828125,-0.13570149739583334,3.0533854166666665,-0.5822,0.2268,0.0387,-0.04072,-0.02069,0.01505,0.0008396617486141622,0.0010000342736020684,0.0008439044468104839,0.0004232941719237715,0.0005001656827516854,0.0005885155405849218,0.011678491719067097,0.009392069652676582,0.01023064274340868,passive,1
2.9407,rehab,large_fast,38.58042305089669,-666.6328259173225,290.3583134333532,-177.39106360856985,0.13432443842574554,-149.9867898051969,38.0438,-0.0365,-51.5308,11.9072,0.28,-15.3566,80.78047875130531,28.059353970064976,84.15536861608524,-24.182603624131943,-88.97890726725261,-39.289771185980904,3.2650061881188117,2.8296661376953125,4.17463472574064,-7.098812527126736,-0.13570149739583334,3.121236165364583,-0.3947,0.1584,-0.0793,-0.02966,-0.02908,0.01216,0.0008396617486141622,0.0010000342736020684,0.0008439044468104839,0.0004232941719237715,0.0005001656827516854,0.0005885155405849218,0.011678491719067097,0.009392069652676582,0.01023064274340868,passive,1
2.9608,rehab,large_fast,39.17076202426697,-666.6387952433021,289.5615610462488,-177.3904499470192,0.13391293791048584,-149.98673495566163,38.409,0.0014,-51.8508,-5.5367,0.6818,6.3374,80.83222190932472,28.104590991936107,84.22136816647973,-24.296129014756943,-88.98017883300781,-39.23935784233941,3.2105844327718907,2.7208362239422184,4.109763721428295,-7.293141682942708,-0.06785074869791667,3.0533854166666665,-0.4593,0.1827,0.1392,-0.03018,-0.01403,0.01163,0.0008396617486141622,0.0010000342736020684,0.0008439044468104839,0.0004232941719237715,0.0005001656827516854,0.0005885155405849218,0.011678491719067097,0.009392069652676582,0.01023064274340868,passive,1
2.9812,rehab,large_fast,40.043345587966,-666.6395552831652,288.38498518363764,-177.3884706746575,0.13228470563706188,-149.98692025544682,37.9408,0.0094,-51.0673,-19.8218,0.8898,22.7567,80.90862311939202,28.17067212397509,84.32061223700495,-24.46631537543403,-88.98217095269096,-39.16468302408854,3.1561694758953434,2.7208362239422184,4.04528022992729,-7.1750640869140625,-0.06785074869791667,3.1890869140625,-0.517,0.0524,-0.6879,-0.04004,-0.02261,0.01341,0.0008396617486141622,0.0010000342736020684,0.0008439044468104839,0.0004232941719237715,0.0005001656827516854,0.0005885155405849218,0.011678491719067097,0.009392069652676582,0.01023064274340868,passive,1
3.0009,rehab,large_fast,40.62733311826972,-666.635819467374,287.59927028840355,-177.38737964369156,0.1313726199492394,-149.98765921747193,37.9489,0.0085,-51.1728,-25.7785,0.4756,28.5363,80.95970682578512,28.214610638004718,84.3871556650294,-24.57977294921875,-88.98353576660156,-39.114134046766495,3.2650061881188117,2.7208362239422184,4.225820409189357,-6.986991034613715,-0.06785074869791667,3.1890869140625,-0.3238,0.2141,0.3686,-0.03592,-0.02905,0.01018,0.0008396617486141622,0.0010000342736020684,0.0008439044468104839,0.0004232941719237715,0.0005001656827516854,0.0005885155405849218,0.011678491719067097,0.009392069652676582,0.01023064274340868,passive,1
3.0207,rehab,large_fast,41.515175984873494,-666.6299793939492,286.4038478359806,-177.3874049273515,0.1313984425369308,-149.98757297597297,37.2643,0.026,-50.6347,-26.5122,-0.2551,27.3139,81.0373589544013,28.282153441174195,84.4865628988436,-24.749009874131943,-88.9855448404948,-39.03846740722656,3.2650061881188117,2.7752511808187657,4.0622152196298735,-7.107111612955729,-0.06785074869791667,3.121236165364583,-0.4997,0.2776,-0.0703,-0.0458,-0.01043,0.01248,0.0008396617486141622,0.0010000342736020684,0.0008439044468104839,0.0004232941719237715,0.0005001656827516854,0.0005885155405849218,0.011678491719067097,0.009392069652676582,0.01023064274340868,passive,1
3.0408,rehab,large_fast,42.12033367977264,-666.6316985646691,285.59242906822845,-177.3883152914643,0.13211154971552067,-149.98563250977153,35.4387,0.0396,-48.55,-22.4697,-0.6127,20.3357,81.09035982943998,28.329192057694538,84.55174663279315,-24.861602783203125,-88.98688422309027,-38.9886728922526,3.319421144995359,2.938502849918781,4.127031836179223,-7.019314236111111,-0.13570149739583334,3.2569376627604165,-0.5927,0.2322,0.2558,-0.03562,-0.00488,0.01262,0.0008396617486141622,0.0010000342736020684,0.0008439044468104839,0.0004232941719237715,0.0005001656827516854,0.0005885155405849218,0.011678491719067097,0.009392069652676582,0.01023064274340868,passive,1
3.0611,rehab,large_fast,43.008310210080964,-666.6347586274973,284.3736546834064,-177.38969181473104,0.13328241006421415,-149.9844396998201,35.227,0.0113,-48.435,-12.5744,-0.5359,8.308,81.16814792746365,28.400222476166075,84.64910752702467,-25.030475192599827,-88.98881700303819,-38.91397264268663,3.2105844327718907,2.992917806795328,4.038984846360613,-6.920106675889757,-0.06785074869791667,3.121236165364583,-0.6671,0.2249,0.1101,-0.0486,-0.00865,0.01062,0.0008396617486141622,0.0010000342736020684,0.0008439044468104839,0.0004232941719237715,0.0005001656827516854,0.0005885155405849218,0.011678491719067097,0.009392069652676582,0.01023064274340868,passive,1
3.0811,rehab,large_fast,43.585231514379835,-666.6359271824592,283.5663280533822,-177.3904053435729,0.13383052315427302,-149.98519605153157,35.7757,-0.0407,-49.1641,-3.1712,-0.3672,1.2603,81.21870135316755,28.44735627127166,84.7136386078183,-25.14277140299479,-88.99016486273871,-38.86392381456163,3.047339562142249,2.992917806795328,4.045096671227181,-7.0299530029296875,-0.13570149739583334,3.1890869140625,-0.44,0.2472,0.5828,-0.03881,-0.02131,0.01077,0.0008396617486141622,0.0010000342736020684,0.0008439044468104839,0.0004232941719237715,0.0005001656827516854,0.0005885155405849218,0.011678491719067097,0.009392069652676582,0.01023064274340868,passive,1
3.101,rehab,large_fast,44.43852421950425,-666.6342353450979,282.3723558472285,-177.38988709648055,0.1333833375372427,-149.987303289359,36.1984,-0.0518,-49.6852,12.3481,-0.1179,-11.1404,81.29344373646349,28.516870630849706,84.81021767795676,-25.31183878580729,-88.99217393663194,-38.78896925184462,3.1017545190187965,2.884087893042234,4.012797138478496,-6.948199801974826,-0.06785074869791667,3.121236165364583,-0.4227,0.137,0.2723,-0.03646,-0.02998,0.00846,0.0008396617486141622,0.0010000342736020684,0.0008439044468104839,0.0004232941719237715,0.0005001656827516854,0.0005885155405849218,0.011678491719067097,0.009392069652676582,0.01023064274340868,passive,1
3.1208,rehab,large_fast,45.013155950741385,-666.6344076808857,281.5831175664885,-177.38911853706935,0.1327630005233801,-149.98820078588508,36.4302,-0.0216,-49.9586,33.8937,0.4159,-33.4387,81.34379320805616,28.563317780447477,84.87351143714226,-25.424092610677082,-88.99350484212239,-38.73897976345486,3.1561694758953434,2.938502849918781,3.9776966359355663,-6.894183688693576,-0.06785074869791667,3.1890869140625,-0.4358,0.1831,0.188,-0.03636,-0.03182,0.011,0.0008396617486141622,0.0010000342736020684,0.0008439044468104839,0.0004232941719237715,0.0005001656827516854,0.0005885155405849218,0.011678491719067097,0.009392069652676582,0.01023064274340868,passive,1
3.1408,rehab,large_fast,45.59542051097531,-666.6360700222557,280.79859721181725,-177.38785626005668,0.13171166502677367,-149.98871955545877,36.7753,0.0068,-50.2094,34.987,1.1071,-32.6923,81.39483612362702,28.609941690274983,84.93598258141243,-25.536363389756943,-88.99487813313802,-38.68867662217882,3.2105844327718907,3.1017545190187965,3.871117015876392,-7.026570638020833,-0.13570149739583334,3.0533854166666665,-0.5073,0.1454,-0.1227,-0.04157,-0.03625,0.00872,0.0008396617486141622,0.0010000342736020684,0.0008439044468104839,0.0004232941719237715,0.0005001656827516854,0.0005885155405849218,0.011678491719067097,0.009392069652676582,0.01023064274340868,passive,1
3.1607,rehab,large_fast,46.64275645244886,-666.636634150126,279.40156509645226,-177.38727006880075,0.1312864979429466,-149.98728745102864,37.2068,0.019,-50.3623,15.526,1.2776,-8.1051,81.48658827979966,28.693583271290997,85.04551953608447,-25.732947455512154,-88.9971923828125,-38.60055711534288,3.319421144995359,2.938502849918781,3.766549743048035,-6.971198187934028,-0.06785074869791667,3.1890869140625,-0.5491,0.1071,-0.0706,-0.047,-0.01357,0.00919,0.0008396617486141622,0.0010000342736020684,0.0008439044468104839,0.0004232941719237715,0.0005001656827516854,0.0005885155405849218,0.011678491719067097,0.009392069652676582,0.01023064274340868,passive,1
3.1808,rehab,large_fast,47.24318537598103,-666.6349171920189,278.58452968514916,-177.38878047602756,0.13252548943045,-149.9861653334074,37.7077,0.0391,-50.5519,-2.1527,0.5874,12.8552,81.53916085120476,28.74273621209777,85.10837819316599,-25.844531589084202,-88.99849785698784,-38.550355699327255,3.319421144995359,3.2105844327718907,3.9205962832611387,-6.943884955512153,-0.06785074869791667,3.121236165364583,-0.563,0.1775,-0.5369,-0.05258,-0.01786,0.01636,0.0008396617486141622,0.0010000342736020684,0.0008439044468104839,0.0004232941719237715,0.0005001656827516854,0.0005885155405849218,0.011678491719067097,0.009392069652676582,0.01023064274340868,passive,1
3.2008,rehab,large_fast,48.13756202820044,-666.6329937627464,277.36141930565117,-177.39077843518226,0.1341367355373105,-149.9858667381156,39.0434,0.0719,-52.072,-10.3825,-0.2449,22.3803,81.61749962532875,28.81679874835628,85.20192514551748,-26.011886596679688,-89.00050693088107,-38.47418891059028,3.2650061881188117,3.1017545190187965,3.8663648850846997,-6.969994439019097,-0.06785074869791667,3.1890869140625,-0.7791,0.2559,0.1795,-0.05242,-0.00919,0.01376,0.0008396617486141622,0.0010000342736020684,0.0008439044468104839,0.0004232941719237715,0.0005001656827516854,0.0005885155405849218,0.011678491719067097,0.009392069652676582,0.01023064274340868,passive,1
3.2207,rehab,large_fast,48.73044488749297,-666.6341254397813,276.56199823832895,-177.39058283626113,0.13402610775764173,-149.98602805066918,38.4177,0.0817,-51.2993,-14.6011,-0.563,26.7565,81.66946713287051,28.86569334728883,85.26303659571279,-26.1236572265625,-89.0018293592665,-38.423309326171875,3.2105844327718907,3.047339562142249,3.7467593957882115,-6.979743109809028,-0.13570149739583334,3.121236165364583,-0.7087,0.3199,-0.0021,-0.03995,-0.01804,0.01523,0.0008396617486141622,0.0010000342736020684,0.0008439044468104839,0.0004232941719237715,0.0005001656827516854,0.0005885155405849218,0.011678491719067097,0.009392069652676582,0.01023064274340868,passive,1
3.2409,rehab,large_fast,49.62266550447128,-666.6316678459032,275.39170730398575,-177.3883180750121,0.13219327496764152,-149.98662785251284,36.1728,0.0403,-48.4069,-18.386,-0.6963,29.6732,81.74764274370553,28.9371656663347,85.35372819050704,-26.291063096788193,-89.00392320421007,-38.346405029296875,3.2105844327718907,2.7752511808187657,3.938258709293781,-6.899464925130208,-0.06785074869791667,3.121236165364583,-0.5446,0.1831,-0.4298,-0.04533,-0.01895,0.01463,0.0008396617486141622,0.0010000342736020684,0.0008439044468104839,0.0004232941719237715,0.0005001656827516854,0.0005885155405849218,0.011678491719067097,0.009392069652676582,0.01023064274340868,passive,1
3.2611,rehab,large_fast,50.23054174214409,-666.6288947397929,274.6049098706516,-177.38746422969567,0.13151765722304962,-149.98602791083397,35.4376,-0.0318,-47.4266,-14.3996,-1.0393,23.7032,81.8008815652073,28.985543581518797,85.4139014517907,-26.402257283528645,-89.00530497233073,-38.29500834147135,3.2650061881188117,2.992917806795328,3.797156456673499,-7.068871392144097,-0.06785074869791667,3.324796888563368,-0.5724,0.2956,0.3396,-0.05242,-0.00597,0.01736,0.0008396617486141622,0.0010000342736020684,0.0008439044468104839,0.0004232941719237715,0.0005001656827516854,0.0005885155405849218,0.011678491719067097,0.009392069652676582,0.01023064274340868,passive,1
3.2811,rehab,large_fast,51.146981130276615,-666.627430759048,273.3850878307039,-177.38897204476785,0.1326557408811651,-149.9846487107515,36.1469,-0.0551,-48.0443,0.057,-1.2249,8.1571,81.8811850972695,29.061496092541383,85.50438229400332,-26.569129096137154,-89.00740729437933,-38.21795145670573,3.2105844327718907,3.2650061881188117,3.8044036260925895,-6.879280938042535,-0.06785074869791667,3.2569376627604165,-0.5557,0.1534,0.1734,-0.04899,-0.01591,0.01472,0.0008396617486141622,0.0010000342736020684,0.0008439044468104839,0.0004232941719237715,0.0005001656827516854,0.0005885155405849218,0.011678491719067097,0.009392069652676582,0.01023064274340868,passive,1
3.3008,rehab,large_fast,51.748267076057196,-666.630658144108,272.5634733540139,-177.39059135852233,0.13391518995867446,-149.98490190918554,37.0589,-0.0141,-48.8358,24.2678,-0.6739,-16.9117,81.93393442890432,29.113422809260907,85.56383491742729,-26.680018107096352,-89.00880601671007,-38.166190253363716,3.319421144995359,3.1561694758953434,3.6783803807626856,-7.033343844943576,-0.06785074869791667,3.2569376627604165,-0.6012,0.302,0.3134,-0.0466,-0.00923,0.01631,0.0008396617486141622,0.0010000342736020684,0.0008439044468104839,0.0004232941719237715,0.0005001656827516854,0.0005885155405849218,0.011678491719067097,0.009392069652676582,0.01023064274340868,passive,1
3.3208,rehab,large_fast,52.34387242632862,-666.6357501144906,271.7504934796787,-177.39144087044914,0.13453449996989347,-149.98579569120463,37.3097,-0.007,-48.9386,52.9544,0.3948,-47.1061,81.98622146455368,29.165199959632194,85.6224241351137,-26.79089864095052,-89.01023864746094,-38.11425103081597,3.2105844327718907,3.2105844327718907,3.594113340472231,-7.147089640299479,-0.06785074869791667,3.2569376627604165,-0.5466,0.2646,0.4305,-0.0555,-0.01707,0.0102,0.0008396617486141622,0.0010000342736020684,0.0008439044468104839,0.0004232941719237715,0.0005001656827516854,0.0005885155405849218,0.011678491719067097,0.009392069652676582,0.01023064274340868,passive,1
3.3412,rehab,large_fast,53.24845107477791,-666.6387504168381,270.56998740634367,-177.38984792739677,0.13329753001551387,-149.98674325543962,38.1597,-0.0452,-49.8079,63.2934,1.1324,-55.2282,82.06556641229308,29.240323057269105,85.70901625227219,-26.956990559895832,-89.01234944661458,-38.03581237792969,3.373836101871906,3.047339562142249,3.663512126053914,-6.970638699001736,-0.06785074869791667,3.324796888563368,-0.6452,0.2423,-0.1904,-0.04307,-0.00797,0.01566,0.0008396617486141622,0.0010000342736020684,0.0008439044468104839,0.0004232941719237715,0.0005001656827516854,0.0005885155405849218,0.011678491719067097,0.009392069652676582,0.01023064274340868,passive,1
3.3612,rehab,large_fast,53.86644520551967,-666.6363240624848,269.7877492546411,-177.38848685825525,0.1322469069344853,-149.9869540745157,39.9015,-0.0498,-51.4932,47.3035,0.8649,-33.5854,82.11971622882503,29.28999948029471,85.76676925810257,-27.067735460069443,-89.01378207736545,-37.982686360677086,3.428251058748453,3.047339562142249,3.5286916600595606,-7.1244049072265625,-0.06785074869791667,3.392647637261285,-0.4895,0.233,-0.1986,-0.05102,-0.02205,0.01236,0.0008396617486141622,0.0010000342736020684,0.0008439044468104839,0.0004232941719237715,0.0005001656827516854,0.0005885155405849218,0.011678491719067097,0.009392069652676582,0.01023064274340868,passive,1
3.3808,rehab,large_fast,54.98020593704849,-666.6278397949029,268.39603825702653,-177.38817351154867,0.13195832687375733,-149.9858466433501,40.9631,0.0082,-52.064,24.9248,-0.0333,-6.7885,82.21725388328628,29.378862286558245,85.86785571409924,-27.260937160915798,-89.01638454861111,-37.88841247558594,3.428251058748453,3.319421144995359,3.574574536616259,-6.76271226671007,-0.13570149739583334,3.324796888563368,-0.4665,0.1834,0.238,-0.04344,-0.02536,0.00625,0.0008396617486141622,0.0010000342736020684,0.0008439044468104839,0.0004232941719237715,0.0005001656827516854,0.0005885155405849218,0.011678491719067097,0.009392069652676582,0.01023064274340868,passive,1
3.4009,rehab,large_fast,55.60924066216734,-666.6293354974929,267.58181537767587,-177.3893949229982,0.1328930018397219,-149.9859214174113,41.6994,0.0664,-52.2655,9.7731,-0.4735,11.9869,82.27242347037438,29.431944743241413,85.92458215090308,-27.370825873480904,-89.01786804199219,-37.83439636230469,3.319421144995359,3.319421144995359,3.5464152723255724,-6.9140370686848955,-0.13570149739583334,3.528349134657118,-0.5474,0.2293,0.2039,-0.04284,-0.01612,0.01382,0.0008396617486141622,0.0010000342736020684,0.0008439044468104839,0.0004232941719237715,0.0005001656827516854,0.0005885155405849218,0.011678491719067097,0.009392069652676582,0.01023064274340868,passive,1
3.421,rehab,large_fast,56.557177753051285,-666.6368845879546,266.36626342882244,-177.39027809435444,0.13364662631874086,-149.98696994644783,42.3229,0.0512,-52.4691,-0.9112,-0.3132,27.3549,82.35562315081606,29.5123026630666,86.00795179310411,-27.535858154296875,-89.02007208930121,-37.751990424262154,3.5370877709719215,3.319421144995359,3.5159513265779703,-6.871939765082465,-0.06785074869791667,3.392647637261285,-0.58,0.2533,-0.0695,-0.04673,-0.01473,0.02238,0.0008396617486141622,0.0010000342736020684,0.0008439044468104839,0.0004232941719237715,0.0005001656827516854,0.0005885155405849218,0.011678491719067097,0.009392069652676582,0.01023064274340868,passive,1
3.4407,rehab,large_fast,57.20591037570207,-666.6375507712518,265.5652180060403,-177.39035672784638,0.13371137848190368,-149.98640479578194,40.6716,-0.0179,-50.2291,-9.1982,-0.3761,38.4929,82.41250595243851,29.565228754931155,86.06324375265896,-27.645619710286457,-89.02158101399739,-37.696897718641495,3.5915027278484684,3.2650061881188117,3.477138859210628,-6.868904961480035,-0.06785074869791667,3.528349134657118,-0.5894,0.4041,0.1455,-0.04076,-0.01406,0.01666,0.0008396617486141622,0.0010000342736020684,0.0008439044468104839,0.0004232941719237715,0.0005001656827516854,0.0005885155405849218,0.011678491719067097,0.009392069652676582,0.01023064274340868,passive,1
3.461,rehab,large_fast,58.195286249056565,-666.6321217561085,264.375291412688,-177.38980463343694,0.13323553370505595,-149.98580685439543,39.3732,-0.0886,-48.3569,-6.5652,-0.8964,34.9765,82.49919324818224,29.64371709540339,86.14602192793743,-27.81012641059028,-89.02394612630208,-37.612643771701386,3.64592448319539,3.1561694758953434,3.489539269173499,-6.77642822265625,-0.06785074869791667,3.4604983859592013,-0.6853,0.2182,-0.0145,-0.0599,-0.01957,0.01536,0.0008396617486141622,0.0010000342736020684,0.0008439044468104839,0.0004232941719237715,0.0005001656827516854,0.0005885155405849218,0.011678491719067097,0.009392069652676582,0.01023064274340868,passive,1
3.4808,rehab,large_fast,58.86317711012815,-666.6285194061957,263.58026291219596,-177.3893451751216,0.13286924179061904,-149.9856125971509,39.9761,-0.0837,-48.5016,5.4206,-1.0842,21.0727,82.55771448116491,29.69654121021233,86.20079040527344,-27.920006646050346,-89.02553982204861,-37.5555419921875,3.7003394400719367,3.373836101871906,3.4520185111772896,-6.730380588107638,-0.13570149739583334,3.596208360460069,-0.5807,0.2076,0.149,-0.04503,-0.01497,0.01665,0.0008396617486141622,0.0010000342736020684,0.0008439044468104839,0.0004232941719237715,0.0005001656827516854,0.0005885155405849218,0.011678491719067097,0.009392069652676582,0.01023064274340868,passive,1
3.501,rehab,large_fast,59.85396033173357,-666.6338887183857,262.38065882905136,-177.3889383996008,0.13257724964952794,-149.9868475104375,41.0923,-0.0297,-48.9382,27.5824,-0.3156,-0.4467,82.64466011878288,29.777905303652922,86.28061124593904,-28.084259033203125,-89.0279303656684,-37.46919420030382,3.64592448319539,3.2650061881188117,3.243482230913521,-6.820398966471354,-0.06785074869791667,3.596208360460069,-0.3592,0.3557,0.7093,-0.03344,-0.01982,0.00796,0.0008396617486141622,0.0010000342736020684,0.0008439044468104839,0.0004232941719237715,0.0005001656827516854,0.0005885155405849218,0.011678491719067097,0.009392069652676582,0.01023064274340868,passive,1
3.5209,rehab,large_fast,60.51596733564335,-666.6393001995916,261.57723819525944,-177.38919421031505,0.13277895973418627,-149.98847676501762,42.0326,-0.0155,-49.2433,60.0297,0.8074,-30.6518,82.70278024201346,29.832979712155787,86.33291187852916,-28.193045722113716,-89.02956644694011,-37.41065979003906,3.5915027278484684,3.482672814095374,3.261069873772045,-6.772062513563368,-0.13570149739583334,3.596208360460069,-0.7169,0.3695,-0.301,-0.05433,-0.01182,0.01643,0.0008396617486141622,0.0010000342736020684,0.0008439044468104839,0.0004232941719237715,0.0005001656827516854,0.0005885155405849218,0.011678491719067097,0.009392069652676582,0.01023064274340868,passive,1
3.5411,rehab,large_fast,61.18412197120812,-666.6415900017408,260.77561173887,-177.38932312238555,0.13283725116987374,-149.99002998263617,42.9229,-0.0428,-49.6397,75.5952,1.4414,-41.9746,82.76141025052212,29.88787056195854,86.38530768970452,-28.301942613389755,-89.03125339084201,-37.351693047417534,3.64592448319539,3.319421144995359,3.2281380832785427,-6.806649102105035,-0.13570149739583334,3.664059109157986,-0.5568,0.2901,-0.3874,-0.05679,-0.00432,0.01546,0.0008396617486141622,0.0010000342736020684,0.0008439044468104839,0.0004232941719237715,0.0005001656827516854,0.0005885155405849218,0.011678491719067097,0.009392069652676582,0.01023064274340868,passive,1
3.5611,rehab,large_fast,62.38976022143092,-666.6404288266917,259.392040072813,-177.38831154848467,0.13204111176221553,-149.99108267180068,44.3234,-0.0558,-50.6141,59.896,1.3013,-21.4459,82.86712646484375,29.9830423487295,86.47570695027267,-28.491897583007812,-89.0342288547092,-37.247043185763886,3.918006066048499,3.482672814095374,3.3030096375116025,-6.886639065212673,-0.06785074869791667,3.8676198323567705,-0.5614,0.2095,-0.9351,-0.04042,-0.00903,0.02361,0.0008396617486141622,0.0010000342736020684,0.0008439044468104839,0.0004232941719237715,0.0005001656827516854,0.0005885155405849218,0.011678491719067097,0.009392069652676582,0.01023064274340868,passive,1
3.581,rehab,large_fast,63.11703267065634,-666.6365789627112,258.60360296177123,-177.3874315143706,0.13144963090742723,-149.98975298340113,45.624,0.0015,-51.0741,36.9173,0.755,2.2425,82.93083493072207,30.037668058187656,86.5267566643139,-28.600438435872395,-89.03590732150607,-37.185872395833336,3.8635911091719524,3.5915027278484684,3.1197908609220297,-7.020399305555555,-0.06785074869791667,3.799769083658854,-0.5658,0.1818,-0.5666,-0.05571,-0.0104,0.01467,0.0008396617486141622,0.0010000342736020684,0.0008439044468104839,0.0004232941719237715,0.0005001656827516854,0.0005885155405849218,0.011678491719067097,0.009392069652676582,0.01023064274340868,passive,1
