t,trajectory_type,trajectory_variant,x,y,z,rx,ry,rz,vx,vy,vz,ax,ay,az,j1,j2,j3,j4,j5,j6,dj1,dj2,dj3,dj4,dj5,dj6,fx,fy,fz,tx,ty,tz,Mx,My,Mz,Bx,By,Bz,Kx,Ky,Kz,mode,comfort
0.0009,rehab,safe_near_limit_fast,80.20725090518192,-666.6339184893893,262.48218710059865,-177.67144617582463,0.30400260415607544,-149.77811804323537,-0.1321,0.0048,0.1572,1.3667,-0.3049,4.8227,84.42699470142327,30.065399018844754,85.67893302086556,-27.486572265625,-89.11271837022569,-35.89158799913194,-0.0,-0.0,0.04115114117612933,0.0034586588541666665,0.06785074869791667,-0.0,-0.1996,0.2527,-0.1232,-0.01912,-0.01006,0.00516,0.0009015771211124957,0.0009995289146900177,0.0008572414517402649,0.00041296740528196096,0.0004996439092792571,0.0005212740506976843,0.011521042324602604,0.009093786589801311,0.011657471768558025,passive,0
0.021,rehab,safe_near_limit_fast,80.20840745888842,-666.6339254286291,262.48142653573683,-177.67149942714272,0.30403053236480176,-149.77801666788207,-0.0567,-0.0009,0.089,1.956,-0.3332,1.093,84.42709667847888,30.0654670035485,85.67893302086556,-27.486580742730034,-89.11272684733073,-35.89158799913194,0.05441495687654703,-0.0,-0.002814566734993812,-0.0201416015625,0.06785074869791667,0.06785074869791667,-0.2666,0.2408,-0.5785,-0.01988,0.00413,0.00925,0.0009015771211124957,0.0009995289146900177,0.0008572414517402649,0.00041296740528196096,0.0004996439092792571,0.0005212740506976843,0.011521042324602604,0.009093786589801311,0.011657471768558025,passive,0
0.0411,rehab,safe_near_limit_fast,80.20904250043418,-666.633988416373,262.48074453355775,-177.6715371766109,0.30406786318005147,-149.77795381923332,0.0454,-0.0111,-0.0175,2.1386,-0.3618,-4.5177,84.42715106624188,30.06552818978187,85.67893302086556,-27.486589219835068,-89.11271837022569,-35.89159647623698,-0.0,-0.0,-0.007342348004331683,-0.022557576497395832,0.06785074869791667,-0.0,-0.4193,0.3323,-1.1319,-0.01467,0.00262,0.01585,0.0009015771211124957,0.0009995289146900177,0.0008572414517402649,0.00041296740528196096,0.0004996439092792571,0.0005212740506976843,0.011521042324602604,0.009093786589801311,0.011657471768558025,passive,0
0.0613,rehab,safe_near_limit_fast,80.2097868743592,-666.6340597606105,262.48024341597613,-177.67158834200134,0.3040836691939559,-149.7778779459809,0.0507,-0.0186,-0.066,0.3162,-0.339,-6.5488,84.42721905094562,30.065582577544863,85.67891262545444,-27.486572265625,-89.11273532443576,-35.89160495334201,-0.0,-0.0,-0.02031382947865099,0.0008053249782986111,-0.0,-0.06785074869791667,-0.5538,0.2365,-0.6165,-0.04398,0.01108,0.01537,0.0009015771211124957,0.0009995289146900177,0.0008572414517402649,0.00041296740528196096,0.0004996439092792571,0.0005212740506976843,0.011521042324602604,0.009093786589801311,0.011657471768558025,passive,0
0.0811,rehab,safe_near_limit_fast,80.20947485700509,-666.6342059090077,262.4805140672804,-177.67154750720817,0.30406437981152185,-149.77789646085014,-0.0417,-0.0234,-0.0549,-3.4945,-0.2625,-4.9058,84.42719185706413,30.06557577907449,85.67889223004332,-27.486589219835068,-89.11272684733073,-35.891613430447045,-0.0,-0.05441495687654703,0.01121747611772896,-0.0017886691623263888,0.06785074869791667,-0.06785074869791667,-0.5375,0.3047,-1.242,-0.03866,0.02976,0.01687,0.0009015771211124957,0.0009995289146900177,0.0008572414517402649,0.00041296740528196096,0.0004996439092792571,0.0005212740506976843,0.011521042324602604,0.009093786589801311,0.011657471768558025,passive,0
0.1009,rehab,safe_near_limit_fast,80.20644756795915,-666.6348064753731,262.48183305818486,-177.6714848779093,0.3040192471031983,-149.77813664765102,-0.2242,-0.0241,-0.0431,-10.1574,-0.0706,1.8312,84.4269335151899,30.065521391311496,85.67877665604695,-27.486495971679688,-89.11272684733073,-35.89163038465712,-0.05441495687654703,0.05441495687654703,-0.05028148688892327,0.030721028645833332,-0.0,0.06785074869791667,-0.3307,0.2359,-0.8449,-0.03759,0.00831,0.00909,0.0009015771211124957,0.0009995289146900177,0.0008572414517402649,0.00041296740528196096,0.0004996439092792571,0.0005212740506976843,0.011521042324602604,0.009093786589801311,0.011657471768558025,passive,0
0.1212,rehab,safe_near_limit_fast,80.1937958985229,-666.6366070551117,262.4868191275377,-177.67144522673803,0.30399477627375904,-149.77895416834164,-0.3581,-0.0233,-0.1406,-18.4899,0.2295,11.8361,84.42584575993,30.065263049437267,85.67833475547262,-27.485834757486977,-89.11271837022569,-35.89189317491319,-0.05441495687654703,-0.0,0.010048139213335396,0.06783379448784722,-0.0,0.06785074869791667,-0.3105,0.2527,-0.5775,-0.02221,0.00201,0.01031,0.0009015771211124957,0.0009995289146900177,0.0008572414517402649,0.00041296740528196096,0.0004996439092792571,0.0005212740506976843,0.011521042324602604,0.009093786589801311,0.011657471768558025,passive,0
0.1415,rehab,safe_near_limit_fast,80.18531685765083,-666.6373452394462,262.4889823293838,-177.672002787213,0.30438424343493653,-149.77919363541926,-0.786,-0.0247,0.1086,-28.1562,0.3897,24.3769,84.42511152512957,30.065167870852026,85.67785206407603,-27.48456319173177,-89.11271837022569,-35.89237636990017,-0.05441495687654703,-0.0,-0.04359859051090656,0.10472615559895833,-0.06785074869791667,-0.0,-0.3872,0.1426,-0.6203,-0.04093,0.00794,0.0094,0.0009015771211124957,0.0009995289146900177,0.0008572414517402649,0.00041296740528196096,0.0004996439092792571,0.0005212740506976843,0.011521042324602604,0.009093786589801311,0.011657471768558025,passive,0
0.1612,rehab,safe_near_limit_fast,80.16478197510202,-666.6356773107307,262.49158116051547,-177.67446864269485,0.30613908522484523,-149.77905332748426,-1.4327,-0.0203,0.6911,-37.7171,0.3807,38.5763,84.4232963335396,30.064793954981436,85.67687308434212,-27.48012966579861,-89.11269293891058,-35.89429219563802,-0.05441495687654703,-0.05441495687654703,-0.05555030142906869,0.2613406711154514,-0.06785074869791667,-0.13570149739583334,-0.4392,0.2151,-0.7287,-0.03719,0.01199,0.00689,0.0009015771211124957,0.0009995289146900177,0.0008572414517402649,0.00041296740528196096,0.0004996439092792571,0.0005212740506976843,0.011521042324602604,0.009093786589801311,0.011657471768558025,passive,0
0.1811,rehab,safe_near_limit_fast,80.14023008023712,-666.6354061213884,262.49904710676986,-177.67679777072337,0.3077660119714496,-149.77806919300238,-2.2893,-0.001,1.6458,-46.0222,0.4337,52.7061,84.42114121843092,30.064236480410734,85.67539101780051,-27.475162082248264,-89.11265903049045,-35.89738633897569,-0.16324487062964108,-0.05441495687654703,-0.15154470311533105,0.3168063693576389,-0.0,-0.2714114718967014,-0.3842,0.116,-0.9862,-0.0361,0.00104,0.00752,0.0009015771211124957,0.0009995289146900177,0.0008572414517402649,0.00041296740528196096,0.0004996439092792571,0.0005212740506976843,0.011521042324602604,0.009093786589801311,0.011657471768558025,passive,0
0.2012,rehab,safe_near_limit_fast,80.07923854916878,-666.6374926221938,262.5372690327652,-177.67987616535626,0.30986523945141964,-149.77622903093675,-3.593,0.0248,3.1837,-56.7081,0.5714,69.1221,84.41581801612779,30.061741441783337,85.67129833863513,-27.464650472005207,-89.11258273654514,-35.90444776746962,-0.2720815828531095,-0.2176666259765625,-0.1930833571028001,0.5707465277777778,0.06785074869791667,-0.339262220594618,-0.4238,0.14,-1.4683,-0.04251,0.00947,0.01182,0.0009015771211124957,0.0009995289146900177,0.0008572414517402649,0.00041296740528196096,0.0004996439092792571,0.0005212740506976843,0.011521042324602604,0.009093786589801311,0.011657471768558025,passive,0
0.221,rehab,safe_near_limit_fast,80.01763004799412,-666.6368265956421,262.5945575940385,-177.6810389138308,0.31056809374074656,-149.7752907844658,-4.6732,0.0281,4.5508,-67.6045,0.6565,83.5245,84.4104268291209,30.05757397944384,85.6674843967551,-27.45513916015625,-89.11254035101996,-35.910678439670136,-0.32649653972965653,-0.32649653972965653,-0.2884998888072401,0.6774732801649306,-0.0,-0.4071129692925347,-0.4829,0.2275,-0.2577,-0.03598,-0.00217,0.00819,0.0009015771211124957,0.0009995289146900177,0.0008572414517402649,0.00041296740528196096,0.0004996439092792571,0.0005212740506976843,0.011521042324602604,0.009093786589801311,0.011657471768558025,passive,0
0.2413,rehab,safe_near_limit_fast,79.86701930963739,-666.6364561202284,262.7517147176587,-177.68176694399958,0.31086805573310994,-149.77375669617945,-6.1838,0.0134,6.426,-78.3266,0.6088,94.8777,84.39725139353534,30.046315712503866,85.65785096423461,-27.433073255750866,-89.11237080891927,-35.92514885796441,-0.544163165706219,-0.489748208829672,-0.38609193103148204,0.9195878770616319,-0.0,-0.6106736924913194,-0.5702,0.2367,-0.6797,-0.03965,0.0152,0.01483,0.0009015771211124957,0.0009995289146900177,0.0008572414517402649,0.00041296740528196096,0.0004996439092792571,0.0005212740506976843,0.011521042324602604,0.009093786589801311,0.011657471768558025,passive,0
0.2611,rehab,safe_near_limit_fast,79.75804768145575,-666.6345860812605,262.87255504664023,-177.68198497781543,0.3108993294491695,-149.77262596709275,-7.5809,0.0312,8.1833,-89.2074,0.4139,103.0278,84.38769954265935,30.037532088780168,85.65080774892675,-27.41675482855903,-89.11221822102864,-35.93565199110243,-0.6529998779296875,-0.6529998779296875,-0.4868928512724319,1.1182996961805556,-0.0,-0.7463751898871528,-0.3171,0.2156,-0.3657,-0.03099,-0.00093,0.00446,0.0009015771211124957,0.0009995289146900177,0.0008572414517402649,0.00041296740528196096,0.0004996439092792571,0.0005212740506976843,0.011521042324602604,0.009093786589801311,0.011657471768558025,passive,0
0.2814,rehab,safe_near_limit_fast,79.54534597463207,-666.6328638945896,263.1036745980956,-177.68171318248372,0.3105123758964727,-149.77129420244705,-9.5381,0.0574,10.4142,-104.1658,0.0672,111.9831,84.36907173383354,30.020835045540686,85.63747594852259,-27.38661872016059,-89.11189609103732,-35.95527648925781,-0.9250814607827971,-0.8162515470297029,-0.6258059964321627,1.428002251519097,0.06785074869791667,-0.9499359130859375,-0.4356,0.155,-0.338,-0.0413,0.00452,0.00674,0.0009015771211124957,0.0009995289146900177,0.0008572414517402649,0.00041296740528196096,0.0004996439092792571,0.0005212740506976843,0.011521042324602604,0.009093786589801311,0.011657471768558025,passive,0
0.3011,rehab,safe_near_limit_fast,79.36298176953714,-666.6330106630976,263.30066891036864,-177.68048137968924,0.3095178897928966,-149.77126941435594,-11.9431,0.0624,12.9392,-121.1097,-0.288,121.4384,84.35311572386486,30.0066874286916,85.62642843416421,-27.362560696072048,-89.11159939236111,-35.970984564887154,-1.1427480867593596,-1.0339181730062654,-0.7304140600827661,1.6122182210286458,-0.06785074869791667,-1.0177951388888888,-0.3695,0.1774,-0.6238,-0.03274,0.00323,0.00908,0.0009015771211124957,0.0009995289146900177,0.0008572414517402649,0.00041296740528196096,0.0004996439092792571,0.0005212740506976843,0.011521042324602604,0.009093786589801311,0.011657471768558025,passive,0
0.321,rehab,safe_near_limit_fast,79.15001150590545,-666.6341980947101,263.5295377069615,-177.67868221194604,0.308141398931224,-149.77169731322195,-14.3822,0.0531,15.2884,-134.3429,-0.5559,125.6878,84.33448791503906,29.990337107441214,85.61361331750851,-27.33515421549479,-89.11122639973958,-35.988871256510414,-1.1971630436359066,-1.0883331298828125,-0.851868733321086,1.853790283203125,0.06785074869791667,-1.2213473849826388,-0.3627,0.1347,-0.1929,-0.03682,-0.00027,0.00612,0.0009015771211124957,0.0009995289146900177,0.0008572414517402649,0.00041296740528196096,0.0004996439092792571,0.0005212740506976843,0.011521042324602604,0.009093786589801311,0.011657471768558025,passive,0
0.341,rehab,safe_near_limit_fast,78.78103851673235,-666.631741092111,263.91934885257166,-177.6767514786274,0.3066960141387703,-149.77226022118404,-16.9914,0.0336,17.6183,-142.8348,-0.8061,125.7279,84.30216118840887,29.96202827680229,85.59201457712909,-27.28677537706163,-89.11050584581163,-36.02008395724826,-1.4692514249593904,-1.305999755859375,-0.9847448367883663,2.187830607096354,0.06785074869791667,-1.4249081081814237,-0.3768,0.1521,-0.6058,-0.03509,-0.00128,0.00734,0.0009015771211124957,0.0009995289146900177,0.0008572414517402649,0.00041296740528196096,0.0004996439092792571,0.0005212740506976843,0.011521042324602604,0.009093786589801311,0.011657471768558025,passive,0
0.3613,rehab,safe_near_limit_fast,78.49683947367396,-666.6280192818468,264.21554950003616,-177.67583365458503,0.30608313424851036,-149.77243996017873,-20.1389,0.0064,20.2794,-146.3413,-0.8593,122.6295,84.27723119754603,29.940341156308012,85.57562346505647,-27.24911159939236,-89.10987006293402,-36.04440477159288,-1.5236663818359375,-1.360414712735922,-1.062233802115563,2.5580766465928817,0.06785074869791667,-1.6284688313802083,-0.152,0.2744,0.1798,-0.0091,0.0029,0.00461,0.0009015771211124957,0.0009995289146900177,0.0008572414517402649,0.00041296740528196096,0.0004996439092792571,0.0005212740506976843,0.011521042324602604,0.009093786589801311,0.011657471768558025,passive,0
0.3811,rehab,safe_near_limit_fast,77.91957050806869,-666.6307681075068,264.7939252127135,-177.67514236719526,0.30577324721363885,-149.77280684078184,-23.3683,-0.0276,22.9476,-140.7478,-0.5053,112.9062,84.22667097337175,29.89914922430964,85.54116881719911,-27.172809176974827,-89.10851372612846,-36.09373304578993,-1.9589996337890625,-1.6325030940594059,-1.324369222810953,2.9395548502604165,-0.0,-1.9677310519748263,-0.26,0.286,-0.6485,-0.00667,0.00042,0.01091,0.0009015771211124957,0.0009995289146900177,0.0008572414517402649,0.00041296740528196096,0.0004996439092792571,0.0005212740506976843,0.011521042324602604,0.009093786589801311,0.011657471768558025,passive,0
0.4009,rehab,safe_near_limit_fast,77.53959604378795,-666.6289534245848,265.16536995271457,-177.6749443107014,0.3057508445281891,-149.7726790931485,-26.0206,-0.0322,24.9864,-126.6834,0.0404,97.306,84.19335846853728,29.872227281627087,85.5196992477568,-27.123658921983505,-89.10760667588976,-36.12661573621962,-2.122251302889078,-1.686918050935953,-1.4169915831915223,3.265228271484375,0.06785074869791667,-2.171291775173611,-0.5253,0.2573,0.0673,-0.02395,-0.00581,0.01469,0.0009015771211124957,0.0009995289146900177,0.0008572414517402649,0.00041296740528196096,0.0004996439092792571,0.0005212740506976843,0.011521042324602604,0.009093786589801311,0.011657471768558025,passive,0
0.4212,rehab,safe_near_limit_fast,76.89404919857793,-666.632806876988,265.77299587974227,-177.6745788331678,0.30566315786335946,-149.7732533305971,-28.6597,-0.0139,26.9359,-113.4907,0.5619,83.0304,84.13683598584468,29.828819048286665,85.48355178077622,-27.042889065212673,-89.10610622829861,-36.181649102105034,-2.503169597965656,-1.9589996337890625,-1.6563045388401145,3.4917704264322915,0.06785074869791667,-2.510553995768229,-0.4617,0.2976,0.0648,-0.03159,0.00298,0.00887,0.0009015771211124957,0.0009995289146900177,0.0008572414517402649,0.00041296740528196096,0.0004996439092792571,0.0005212740506976843,0.011521042324602604,0.009093786589801311,0.011657471768558025,passive,0
0.4416,rehab,safe_near_limit_fast,76.41605492458162,-666.6326006957081,266.2041173667532,-177.6748230110901,0.30598487421350823,-149.77376902542997,-30.6764,0.0067,28.4295,-103.0937,0.9428,70.1834,84.09495740833849,29.797539286094135,85.45845862662438,-26.984973483615452,-89.104978773329,-36.22235616048177,-2.6664212670656715,-2.0134145906656093,-1.6777197205194152,3.725857204861111,0.06785074869791667,-2.5784132215711804,-0.225,0.2989,0.3002,-0.00987,0.00395,0.00833,0.0009015771211124957,0.0009995289146900177,0.0008572414517402649,0.00041296740528196096,0.0004996439092792571,0.0005212740506976843,0.011521042324602604,0.009093786589801311,0.011657471768558025,passive,0
0.4613,rehab,safe_near_limit_fast,75.64801161298409,-666.635528890489,266.912634671127,-177.67349950695467,0.3050998488164491,-149.77379897796908,-32.3869,0.0388,29.531,-96.9181,1.0395,60.3066,84.02771373786548,29.746768309338258,85.41700835275178,-26.89246283637153,-89.10326639811198,-36.28851996527778,-2.8296661376953125,-2.176666259765625,-1.7540733412940903,3.9682685004340277,0.06785074869791667,-2.985526190863715,-0.2136,0.2228,-0.3382,-0.00339,-0.00324,0.00796,0.0009015771211124957,0.0009995289146900177,0.0008572414517402649,0.00041296740528196096,0.0004996439092792571,0.0005212740506976843,0.011521042324602604,0.009093786589801311,0.011657471768558025,passive,0
0.4813,rehab,safe_near_limit_fast,75.10109637817119,-666.6326940554633,267.4065571083347,-177.67319697815932,0.3048693300887834,-149.77330893682324,-33.7732,0.0581,30.2359,-99.4015,0.6676,57.7779,83.97979132019647,29.710824796468906,85.38874711140548,-26.827282375759548,-89.10207960340712,-36.33619520399306,-3.1017545190187965,-2.3943328857421875,-1.8052250323909345,4.126841227213542,0.06785074869791667,-3.0533854166666665,-0.1075,-0.0116,0.1431,0.00216,-0.0162,0.00028,0.0009015771211124957,0.0009995289146900177,0.0008572414517402649,0.00041296740528196096,0.0004996439092792571,0.0005212740506976843,0.011521042324602604,0.009093786589801311,0.011657471768558025,passive,0
0.5011,rehab,safe_near_limit_fast,74.23394837491577,-666.6261654702421,268.19082560853155,-177.67202575429735,0.30407565176537016,-149.77200961653483,-36.0407,0.0657,31.5987,-110.6605,0.0035,62.2813,83.90377762294051,29.653676854501857,85.34430551056815,-26.724938286675346,-89.10011291503906,-36.412345038519966,-3.2650061881188117,-2.448754641089109,-1.884175668848623,4.49708726671007,0.13570149739583334,-3.2569376627604165,-0.3927,-0.0579,-0.0243,-0.024,0.00451,0.00311,0.0009015771211124957,0.0009995289146900177,0.0008572414517402649,0.00041296740528196096,0.0004996439092792571,0.0005212740506976843,0.011521042324602604,0.009093786589801311,0.011657471768558025,passive,0
0.5209,rehab,safe_near_limit_fast,73.61443137346984,-666.6250690914568,268.7301044687452,-177.6714753064785,0.3037636573573652,-149.77217015084403,-38.5171,0.0633,33.0197,-122.9344,-0.4574,69.1746,83.84950543394183,29.61468762690478,85.31311412849048,-26.653866238064236,-89.09869723849826,-36.465649074978295,-3.5915027278484684,-2.3399179288656407,-2.015637690478032,4.535369873046875,0.13570149739583334,-3.392647637261285,-0.3493,0.2419,0.5826,-0.00269,-0.00105,0.01204,0.0009015771211124957,0.0009995289146900177,0.0008572414517402649,0.00041296740528196096,0.0004996439092792571,0.0005212740506976843,0.011521042324602604,0.009093786589801311,0.011657471768558025,passive,0
0.541,rehab,safe_near_limit_fast,72.96950823875255,-666.6267121087649,269.27659978210636,-177.6711210702544,0.30351434128265015,-149.7718102959946,-40.6083,0.0449,34.0055,-125.007,-0.6606,70.5515,83.7930441374826,29.575460452844602,85.28095056514928,-26.581310696072048,-89.09727308485243,-36.52164883083767,-3.5915027278484684,-2.503169597965656,-2.04021416088142,4.593260023328993,0.13570149739583334,-3.528349134657118,-0.3506,0.0794,-0.0278,-0.00724,0.00075,0.00372,0.0009015771211124957,0.0009995289146900177,0.0008572414517402649,0.00041296740528196096,0.0004996439092792571,0.0005212740506976843,0.011521042324602604,0.009093786589801311,0.011657471768558025,passive,0
0.5613,rehab,safe_near_limit_fast,71.94686378232352,-666.6273666681312,270.1127402552776,-177.67145872346097,0.30375886842107575,-149.77250004091042,-43.5845,0.0193,35.7417,-114.4128,-0.7895,62.0604,83.703508282652,29.515137625212716,85.23184521363513,-26.468963623046875,-89.09506056043837,-36.609225802951386,-3.8635911091719524,-2.503169597965656,-2.081827598043007,4.729529486762153,0.06785074869791667,-3.8676198323567705,-0.543,0.1159,-0.0209,-0.01783,-0.00828,0.01134,0.0009015771211124957,0.0009995289146900177,0.0008572414517402649,0.00041296740528196096,0.0004996439092792571,0.0005212740506976843,0.011521042324602604,0.009093786589801311,0.011657471768558025,passive,0
0.581,rehab,safe_near_limit_fast,71.24315089764167,-666.627277841108,270.67715635401873,-177.67217484967549,0.30431895542857473,-149.77292354165343,-46.0709,-0.0175,37.124,-85.1521,-0.8503,38.0086,83.6418869471786,29.474448780022044,85.1984171348043,-26.3922119140625,-89.09350925021701,-36.669557359483505,-3.8635911091719524,-2.6664212670656715,-2.1310757174350248,4.886279635959201,0.06785074869791667,-3.664059109157986,-0.432,0.0546,0.5691,-0.014,-0.00973,0.00769,0.0009015771211124957,0.0009995289146900177,0.0008572414517402649,0.00041296740528196096,0.0004996439092792571,0.0005212740506976843,0.011521042324602604,0.009093786589801311,0.011657471768558025,passive,0
0.601,rehab,safe_near_limit_fast,69.9754719382506,-666.627447430847,271.6976822035719,-177.6719101188676,0.3041621532554705,-149.77301429505815,-48.375,-0.0191,38.3569,-50.7159,-0.7595,8.8767,83.53088832137608,29.40122925408996,85.13813509799466,-26.255883110894096,-89.09070332845052,-36.77892049153646,-4.081257735148514,-2.7208362239422184,-2.1871291056717976,4.89259507921007,0.06785074869791667,-3.9354705810546875,-0.4846,-0.007,-0.1657,-0.00469,-0.00213,0.00904,0.0009015771211124957,0.0009995289146900177,0.0008572414517402649,0.00041296740528196096,0.0004996439092792571,0.0005212740506976843,0.011521042324602604,0.009093786589801311,0.011657471768558025,passive,0
0.6211,rehab,safe_near_limit_fast,69.22791300542227,-666.6263607002132,272.2900289185995,-177.67148107112797,0.303906528430709,-149.77328200980534,-48.7117,-0.0034,38.2452,-24.933,-0.4851,-13.2284,83.46541905167079,29.358657232605584,85.1033881159112,-26.177215576171875,-89.08901638454861,-36.84322781032986,-4.081257735148514,-2.6664212670656715,-2.1694122918761605,4.857313368055555,0.13570149739583334,-4.071180555555555,-0.6149,0.1424,0.4009,-0.02154,0.00028,0.00257,0.0009015771211124957,0.0009995289146900177,0.0008572414517402649,0.00041296740528196096,0.0004996439092792571,0.0005212740506976843,0.011521042324602604,0.009093786589801311,0.011657471768558025,passive,0
0.6413,rehab,safe_near_limit_fast,68.0814149159278,-666.6265238194978,273.18419174290494,-177.67094133168484,0.3035397596442886,-149.77329597143816,-48.1231,-0.0171,37.07,-3.9976,-0.1993,-31.8693,83.36503963659305,29.294772006497524,85.05027846534654,-26.05802747938368,-89.08646477593315,-36.942240397135414,-4.190087648901609,-2.6664212670656715,-2.1842601511738087,4.830059475368923,0.13570149739583334,-4.206882052951388,-0.6844,0.0276,0.3154,-0.02788,0.0057,0.00841,0.0009015771211124957,0.0009995289146900177,0.0008572414517402649,0.00041296740528196096,0.0004996439092792571,0.0005212740506976843,0.011521042324602604,0.009093786589801311,0.011657471768558025,passive,0
0.6611,rehab,safe_near_limit_fast,67.30778880275167,-666.6262569377898,273.77602072294894,-177.67097086165145,0.3035806628921638,-149.77352217139625,-47.4256,-0.0408,35.6908,-1.7291,-0.0107,-36.4763,83.2973064762531,29.252553505472616,85.01484483775526,-25.978410508897568,-89.08475240071614,-37.00884501139323,-4.190087648901609,-2.448754641089109,-2.1568827109761757,4.997194078233507,0.06785074869791667,-4.206882052951388,-0.6524,0.135,0.266,-0.02019,0.00534,0.01306,0.0009015771211124957,0.0009995289146900177,0.0008572414517402649,0.00041296740528196096,0.0004996439092792571,0.0005212740506976843,0.011521042324602604,0.009093786589801311,0.011657471768558025,passive,0
0.6813,rehab,safe_near_limit_fast,66.1381401609626,-666.6292942773644,274.6453052893132,-177.67171056920768,0.3041367596595557,-149.77322870559857,-46.784,-0.046,34.2223,-13.0154,0.0461,-30.7532,83.19494190782603,29.191020550114093,84.96168759789798,-25.859875149197048,-89.08216688368056,-37.11016337076823,-4.190087648901609,-2.557584554842203,-2.248362928333849,4.980129665798611,0.13570149739583334,-4.274732801649305,-0.4981,-0.0257,0.1287,-0.01583,0.00361,0.01471,0.0009015771211124957,0.0009995289146900177,0.0008572414517402649,0.00041296740528196096,0.0004996439092792571,0.0005212740506976843,0.011521042324602604,0.009093786589801311,0.011657471768558025,passive,0
0.7013,rehab,safe_near_limit_fast,65.34379221956716,-666.6285383670036,275.22084920192214,-177.67217573879006,0.3044868892910788,-149.7733045790468,-48.4857,-0.0304,34.6812,-35.8689,0.0037,-16.9868,83.12540035436649,29.149937393641707,84.92706298828125,-25.781606038411457,-89.08041212293837,-37.17874315049913,-4.353339318001624,-2.3943328857421875,-2.162885760316754,4.840994940863715,0.06785074869791667,-4.139031304253472,-0.8253,-0.0396,-0.3385,-0.03239,0.00594,0.01198,0.0009015771211124957,0.0009995289146900177,0.0008572414517402649,0.00041296740528196096,0.0004996439092792571,0.0005212740506976843,0.011521042324602604,0.009093786589801311,0.011657471768558025,passive,0
0.7211,rehab,safe_near_limit_fast,64.53357467116331,-666.631393561191,275.78538476471743,-177.67293987019164,0.30505257668193264,-149.7743821859829,-48.9221,-0.0215,34.3712,-55.4177,0.0386,-2.6481,83.0545195022432,29.10995558936997,84.89243837866452,-25.704057481553818,-89.07865736219618,-37.24767049153646,-4.353339318001624,-2.6664212670656715,-2.1676038987565747,4.791166517469618,0.06785074869791667,-4.274732801649305,-0.7096,-0.0965,-0.1942,-0.02153,-0.00742,0.01443,0.0009015771211124957,0.0009995289146900177,0.0008572414517402649,0.00041296740528196096,0.0004996439092792571,0.0005212740506976843,0.011521042324602604,0.009093786589801311,0.011657471768558025,passive,0
0.742,rehab,safe_near_limit_fast,63.302479609990804,-666.631742536038,276.62294899135793,-177.67399710718902,0.30583110163431704,-149.7769267848323,-50.9031,-0.0239,34.9772,-55.642,0.0173,-3.5716,82.94679094069075,29.05017663936804,84.84185775907913,-25.589379204644096,-89.07601250542534,-37.35155741373698,-4.353339318001624,-2.448754641089109,-2.100938098265393,4.851981268988715,0.06785074869791667,-4.139031304253472,-0.7993,-0.1554,-0.045,-0.03645,-0.01194,0.01037,0.0009015771211124957,0.0009995289146900177,0.0008572414517402649,0.00041296740528196096,0.0004996439092792571,0.0005212740506976843,0.011521042324602604,0.009093786589801311,0.011657471768558025,passive,0
0.7612,rehab,safe_near_limit_fast,62.49512261868909,-666.63134160323,277.1748199842059,-177.67391221722528,0.3058184592501111,-149.777715016228,-52.5176,-0.0207,35.2512,-42.0728,-0.2317,-15.8699,82.87612763961943,29.010908674485613,84.80868122365214,-25.515009562174477,-89.07419840494792,-37.42058648003472,-4.462176030225093,-2.557584554842203,-2.0000216040280785,4.705751207139757,0.06785074869791667,-4.071180555555555,-0.8268,-0.1868,-0.0532,-0.01815,0.00366,0.0113,0.0009015771211124957,0.0009995289146900177,0.0008572414517402649,0.00041296740528196096,0.0004996439092792571,0.0005212740506976843,0.011521042324602604,0.009093786589801311,0.011657471768558025,passive,0
0.7814,rehab,safe_near_limit_fast,61.09047246876151,-666.6285940122311,278.13546661719397,-177.67149379388172,0.30401415188134057,-149.7777515787791,-52.6227,-0.0252,34.2861,-7.7403,-0.377,-42.1629,82.75317730289875,28.942482070167465,84.75210435319654,-25.38949754503038,-89.07102796766493,-37.54206339518229,-4.4077542748781715,-2.3943328857421875,-2.0087984292814047,4.391055636935763,0.13570149739583334,-4.342592027452257,-0.8385,-0.135,-0.0908,0.01372,-0.00416,0.01417,0.0009015771211124957,0.0009995289146900177,0.0008572414517402649,0.00041296740528196096,0.0004996439092792571,0.0005212740506976843,0.011521042324602604,0.009093786589801311,0.011657471768558025,passive,0
0.801,rehab,safe_near_limit_fast,60.28608875414982,-666.6299089696328,278.6680454055522,-177.66977718516046,0.30268544884808246,-149.7776585773923,-53.3508,-0.0419,33.8697,25.1074,0.0151,-64.9694,82.6828131345239,28.90482534276377,84.72045067513343,-25.320332845052082,-89.06923082139757,-37.611728244357636,-4.462176030225093,-2.2855029719890934,-1.9737523145014697,4.2842864990234375,0.13570149739583334,-4.274732801649305,-0.6869,-0.2565,-0.0574,-0.00224,-0.01015,0.01256,0.0009015771211124957,0.0009995289146900177,0.0008572414517402649,0.00041296740528196096,0.0004996439092792571,0.0005212740506976843,0.011521042324602604,0.009093786589801311,0.011657471768558025,passive,0
0.821,rehab,safe_near_limit_fast,59.07583552759241,-666.633668231344,279.41167369576726,-177.66955045696847,0.30241399513484835,-149.77812550297907,-51.45,-0.0471,31.5719,45.4709,0.6812,-73.0042,82.57698814467628,28.852143995832687,84.67538361502166,-25.219896104600693,-89.06659444173177,-37.71594577365451,-4.516590987101639,-2.067836346012531,-1.8878196489692916,4.11637200249566,0.06785074869791667,-4.410442776150173,-0.7607,-0.1818,-0.2182,-0.01844,-0.00456,0.01454,0.0009015771211124957,0.0009995289146900177,0.0008572414517402649,0.00041296740528196096,0.0004996439092792571,0.0005212740506976843,0.011521042324602604,0.009093786589801311,0.011657471768558025,passive,0
0.8415,rehab,safe_near_limit_fast,58.27898020768274,-666.6343236384599,279.87506331591237,-177.67078967987575,0.3033937040286001,-149.77824344464238,-50.0984,-0.0474,29.7366,58.6176,1.1561,-73.3245,82.50728342792776,28.819042243579826,84.64706118744199,-25.15488518608941,-89.06478034125433,-37.78479682074653,-4.462176030225093,-2.122251302889078,-1.756350828869508,3.9144473605685763,0.06785074869791667,-4.206882052951388,-1.0065,-0.267,0.1386,-0.04934,-0.00756,0.00902,0.0009015771211124957,0.0009995289146900177,0.0008572414517402649,0.00041296740528196096,0.0004996439092792571,0.0005212740506976843,0.011521042324602604,0.009093786589801311,0.011657471768558025,passive,0
0.8611,rehab,safe_near_limit_fast,57.09063626129886,-666.6345313687812,280.54992027194277,-177.67281885205927,0.30500804618470606,-149.77720952069743,-48.9917,-0.023,28.2529,51.7267,1.3047,-60.0192,82.4033280174331,28.770793499332843,84.60574688297687,-25.059695773654514,-89.06203375922308,-37.888709174262154,-4.190087648901609,-1.9589996337890625,-1.7270086307336787,3.9411756727430554,0.06785074869791667,-4.410442776150173,-1.051,-0.2906,0.0678,-0.03096,-0.0061,0.01264,0.0009015771211124957,0.0009995289146900177,0.0008572414517402649,0.00041296740528196096,0.0004996439092792571,0.0005212740506976843,0.011521042324602604,0.009093786589801311,0.011657471768558025,passive,0
0.8811,rehab,safe_near_limit_fast,56.30345247283099,-666.6353215854218,281.0058245636747,-177.67265153519298,0.30491116737399504,-149.7761883729983,-47.2125,0.0463,26.7698,28.7997,1.1135,-37.865,82.33447990795173,28.73845317576191,84.57814509325688,-24.99792310926649,-89.06020270453558,-37.95787387424045,-4.298924361125077,-2.0134145906656093,-1.6686165686881187,3.865627712673611,0.13570149739583334,-4.342592027452257,-1.0477,-0.299,0.3164,-0.03177,-0.00648,0.01172,0.0009015771211124957,0.0009995289146900177,0.0008572414517402649,0.00041296740528196096,0.0004996439092792571,0.0005212740506976843,0.011521042324602604,0.009093786589801311,0.011657471768558025,passive,0
0.9012,rehab,safe_near_limit_fast,55.10427056984469,-666.6355259547187,281.69578381382286,-177.6713791313684,0.3038832789910994,-149.77540826372945,-47.6969,0.0974,27.0149,-1.4887,0.4279,-13.47,82.2296135024269,28.689483793655246,84.53691237043626,-24.90629408094618,-89.05749850802951,-38.062472873263886,-4.462176030225093,-2.067836346012531,-1.6802555499690595,3.7779659695095487,0.20355224609375,-4.274732801649305,-0.8308,-0.2971,-0.4034,-0.00277,-0.01461,0.01547,0.0009015771211124957,0.0009995289146900177,0.0008572414517402649,0.00041296740528196096,0.0004996439092792571,0.0005212740506976843,0.011521042324602604,0.009093786589801311,0.011657471768558025,passive,0
0.9209,rehab,safe_near_limit_fast,54.305688258297344,-666.6307278791115,282.1429813684381,-177.6715963434309,0.30406461424980075,-149.77609852282748,-48.2147,0.0858,27.2846,-24.8289,-0.5281,5.1013,82.15972522697827,28.65725904408068,84.51048671609104,-24.845352172851562,-89.05570136176215,-38.13097635904948,-4.353339318001624,-2.067836346012531,-1.7188300708732982,3.838534884982639,0.13570149739583334,-4.274732801649305,-1.1179,-0.4396,-0.0026,-0.02409,-0.00909,0.01733,0.0009015771211124957,0.0009995289146900177,0.0008572414517402649,0.00041296740528196096,0.0004996439092792571,0.0005212740506976843,0.011521042324602604,0.009093786589801311,0.011657471768558025,passive,0
0.9412,rehab,safe_near_limit_fast,53.50143063636383,-666.6297416804043,282.6030556061916,-177.670364866499,0.30309927542126763,-149.77680751540103,-48.5588,0.0446,27.3414,-39.7768,-1.3729,15.7275,82.08939505095529,28.624755557220762,84.48293931413404,-24.784842597113716,-89.0539042154948,-38.19990370008681,-4.462176030225093,-1.9045846769125154,-1.7524213129931157,3.820851643880208,0.13570149739583334,-4.274732801649305,-1.1137,-0.2744,-0.0832,-0.02209,-0.00371,0.0192,0.0009015771211124957,0.0009995289146900177,0.0008572414517402649,0.00041296740528196096,0.0004996439092792571,0.0005212740506976843,0.011521042324602604,0.009093786589801311,0.011657471768558025,passive,0
0.9613,rehab,safe_near_limit_fast,52.31320219734853,-666.6249547743924,283.2699227657407,-177.67015976614147,0.3030249063117506,-149.77608520816923,-50.3141,-0.0011,27.9886,-52.8243,-1.9007,22.8704,81.98543284199026,28.577540180470685,84.44240003529161,-24.69424777560764,-89.05113220214844,-38.30355326334635,-4.4077542748781715,-1.9589996337890625,-1.7410882628790223,3.8161468505859375,0.13570149739583334,-4.47829352484809,-1.159,-0.2689,0.2528,-0.01996,-0.01008,0.01772,0.0009015771211124957,0.0009995289146900177,0.0008572414517402649,0.00041296740528196096,0.0004996439092792571,0.0005212740506976843,0.011521042324602604,0.009093786589801311,0.011657471768558025,passive,0
0.9809,rehab,safe_near_limit_fast,51.5205231617552,-666.6260611988648,283.7120214641931,-177.67023465462285,0.30308788798679026,-149.77536624627564,-51.2983,-0.0543,28.2555,-44.3561,-1.6115,17.7061,81.91614283193456,28.546974257667465,84.4142475694713,-24.633390638563366,-89.04932657877605,-38.37287055121528,-4.298924361125077,-1.8501697200359684,-1.709264623056544,3.7366146511501737,0.06785074869791667,-4.410442776150173,-1.2204,-0.2428,0.4936,-0.01124,-0.00823,0.0215,0.0009015771211124957,0.0009995289146900177,0.0008572414517402649,0.00041296740528196096,0.0004996439092792571,0.0005212740506976843,0.011521042324602604,0.009093786589801311,0.011657471768558025,passive,0
1.0009,rehab,safe_near_limit_fast,50.13617405110278,-666.6319541107838,284.47911106240053,-177.67091996999926,0.30355121718765354,-149.77367540383688,-51.5399,-0.1014,28.2801,-21.0567,-0.4417,6.8535,81.79520484244469,28.494843586836712,84.36370094223778,-24.526307847764755,-89.0462409125434,-38.4942881266276,-4.4077542748781715,-1.795747964689047,-1.8574984710995512,3.7893507215711804,0.13570149739583334,-4.342592027452257,-1.2301,-0.4017,-0.2615,-0.02547,0.00665,0.02557,0.0009015771211124957,0.0009995289146900177,0.0008572414517402649,0.00041296740528196096,0.0004996439092792571,0.0005212740506976843,0.011521042324602604,0.009093786589801311,0.011657471768558025,passive,0
1.021,rehab,safe_near_limit_fast,49.336425936453686,-666.6348403096557,284.9070917892627,-177.67212399518618,0.3045273785359918,-149.7736442918621,-51.7304,-0.0895,28.3975,5.2392,0.8052,-2.7674,81.72533696240718,28.465800521397355,84.33503179266901,-24.465001424153645,-89.044435289171,-38.56349521213107,-4.462176030225093,-1.9045846769125154,-1.7635232151144802,3.884302775065104,0.06785074869791667,-4.410442776150173,-1.4054,-0.4798,0.0293,-0.02674,-0.0095,0.02597,0.0009015771211124957,0.0009995289146900177,0.0008572414517402649,0.00041296740528196096,0.0004996439092792571,0.0005212740506976843,0.011521042324602604,0.009093786589801311,0.011657471768558025,passive,0
1.0416,rehab,safe_near_limit_fast,48.12633999108717,-666.6366855623605,285.5596167942823,-177.67298379683388,0.3052520342717369,-149.77444835725308,-52.4733,-0.0481,28.8743,33.279,1.7152,-11.8515,81.6196071511448,28.421467696086015,84.29188190120281,-24.373321533203125,-89.04172261555989,-38.667382134331596,-4.353339318001624,-1.795747964689047,-1.8238800350982363,3.82460700141059,0.13570149739583334,-4.342592027452257,-1.5139,-0.4535,-0.5668,-0.0146,-0.00222,0.03691,0.0009015771211124957,0.0009995289146900177,0.0008572414517402649,0.00041296740528196096,0.0004996439092792571,0.0005212740506976843,0.011521042324602604,0.009093786589801311,0.011657471768558025,passive,0
1.061,rehab,safe_near_limit_fast,47.31308764294508,-666.6371580241051,286.0085407069171,-177.67267268949945,0.30500277621167204,-149.7756097729138,-51.4023,0.0012,28.4184,43.4311,1.9415,-13.0001,81.54855633726214,28.391132921275524,84.26238333824837,-24.311837090386284,-89.03994242350261,-38.736572265625,-4.462176030225093,-1.9589996337890625,-1.8802937422648516,3.8647884792751737,0.06785074869791667,-4.410442776150173,-1.2492,-0.402,-0.2512,0.00307,-0.00845,0.02821,0.0009015771211124957,0.0009995289146900177,0.0008572414517402649,0.00041296740528196096,0.0004996439092792571,0.0005212740506976843,0.011521042324602604,0.009093786589801311,0.011657471768558025,passive,0
1.0813,rehab,safe_near_limit_fast,46.10713909266204,-666.6359476408137,286.68713687717985,-177.67239428162074,0.30484606107897516,-149.77594722485665,-49.3899,0.0715,27.5743,39.1471,1.2948,-9.024,81.44316644951849,28.34561036364867,84.21717351025875,-24.218334621853298,-89.03722127278645,-38.84056091308594,-4.353339318001624,-1.9589996337890625,-1.9201871664217203,3.943294949001736,0.13570149739583334,-4.274732801649305,-1.3388,-0.4183,0.1208,-0.01449,-0.00602,0.02436,0.0009015771211124957,0.0009995289146900177,0.0008572414517402649,0.00041296740528196096,0.0004996439092792571,0.0005212740506976843,0.011521042324602604,0.009093786589801311,0.011657471768558025,passive,0
1.1009,rehab,safe_near_limit_fast,45.29848950504946,-666.6318989600217,287.14804112185516,-177.6721270228924,0.30459447936197526,-149.77691666853048,-48.2626,0.0978,27.269,26.1602,0.0055,-2.3128,81.37247595456567,28.314582144859994,84.18672316145188,-24.155171712239582,-89.03548346625433,-38.90956454806857,-4.516590987101639,-1.9589996337890625,-1.8940198539507271,4.019690619574653,0.13570149739583334,-4.546152750651042,-1.4713,-0.5207,-0.5838,-0.02731,-0.00622,0.02973,0.0009015771211124957,0.0009995289146900177,0.0008572414517402649,0.00041296740528196096,0.0004996439092792571,0.0005212740506976843,0.011521042324602604,0.009093786589801311,0.011657471768558025,passive,0
1.1211,rehab,safe_near_limit_fast,44.08318617670723,-666.6277787047139,287.8365587135435,-177.67184678197773,0.3043456062716208,-149.77819999808042,-47.3067,0.0802,27.0693,10.9893,-1.2981,4.4523,81.26627025037709,28.268774051477415,84.1403032057356,-24.060228135850693,-89.03284708658855,-39.01340908474392,-4.298924361125077,-1.9045846769125154,-2.033415690507039,4.016511705186632,0.13570149739583334,-4.274732801649305,-1.4698,-0.485,-0.1642,-0.02801,-0.01496,0.02327,0.0009015771211124957,0.0009995289146900177,0.0008572414517402649,0.00041296740528196096,0.0004996439092792571,0.0005212740506976843,0.011521042324602604,0.009093786589801311,0.011657471768558025,passive,0
1.1414,rehab,safe_near_limit_fast,43.272918860400395,-666.6298264561636,288.29421842122514,-177.67131046703443,0.3039229278483494,-149.7790916956357,-48.6371,0.0297,28.0329,-13.3075,-1.9825,16.5836,81.19553216613166,28.239091929822866,84.10837758885752,-23.997243245442707,-89.03107537163628,-39.082539876302086,-4.353339318001624,-1.795747964689047,-1.9782393049485612,3.9281802707248263,0.13570149739583334,-4.47829352484809,-1.708,-0.454,-0.4404,-0.03106,-0.00462,0.03008,0.0009015771211124957,0.0009995289146900177,0.0008572414517402649,0.00041296740528196096,0.0004996439092792571,0.0005212740506976843,0.011521042324602604,0.009093786589801311,0.011657471768558025,passive,0
1.1611,rehab,safe_near_limit_fast,42.476448075763415,-666.6292301454315,288.7574565735612,-177.67059070017942,0.30328346325134314,-149.77838826231175,-49.4545,-0.0489,28.5596,-46.3006,-2.0154,34.1926,81.12597021726098,28.209056287708847,84.07615963775332,-23.93387688530816,-89.0293460422092,-39.15208604600694,-4.353339318001624,-1.8501697200359684,-2.090244104366491,3.9595709906684027,0.13570149739583334,-4.410442776150173,-1.6769,-0.4317,-0.446,-0.02882,-0.00763,0.0337,0.0009015771211124957,0.0009995289146900177,0.0008572414517402649,0.00041296740528196096,0.0004996439092792571,0.0005212740506976843,0.011521042324602604,0.009093786589801311,0.011657471768558025,passive,0
1.1814,rehab,safe_near_limit_fast,41.29368569930706,-666.6299775844234,289.4464066996896,-177.67061486159503,0.30339548541639527,-149.7774738824279,-50.3335,-0.1197,29.1057,-55.2809,-1.3392,40.0163,81.02268105686301,28.165110975208847,84.02655119943147,-23.83715311686198,-89.02665879991319,-39.25519307454427,-4.244502605778156,-1.795747964689047,-2.1658702888111074,3.9998796251085067,0.13570149739583334,-4.410442776150173,-1.5544,-0.4652,-0.4208,-0.03009,-0.01468,0.02628,0.0009015771211124957,0.0009995289146900177,0.0008572414517402649,0.00041296740528196096,0.0004996439092792571,0.0005212740506976843,0.011521042324602604,0.009093786589801311,0.011657471768558025,passive,0
1.2011,rehab,safe_near_limit_fast,40.50136893656367,-666.6322438173033,289.91100946039785,-177.67075627602432,0.3035989250738755,-149.77709847971352,-51.4648,-0.1302,29.8953,-34.3336,-0.1014,31.5519,80.95352021774443,28.135986328125,83.99223252098159,-23.771413167317707,-89.0248531765408,-39.32398478190104,-4.4077542748781715,-1.8501697200359684,-2.1631237067798574,4.150907728407118,0.13570149739583334,-4.546152750651042,-1.5595,-0.4614,-0.0311,-0.00961,0.00507,0.0323,0.0009015771211124957,0.0009995289146900177,0.0008572414517402649,0.00041296740528196096,0.0004996439092792571,0.0005212740506976843,0.011521042324602604,0.009093786589801311,0.011657471768558025,passive,0
1.2211,rehab,safe_near_limit_fast,39.08310205419147,-666.6365485815026,290.73886708074883,-177.67066711016966,0.303449544826653,-149.77867477992044,-51.1783,-0.0847,30.0284,1.3534,1.2464,16.1017,80.8297880569307,28.084460721157566,83.93074035644531,-23.654937744140625,-89.02186923556857,-39.444825914171005,-4.4077542748781715,-1.7413330078125,-2.1470589212851947,4.189876980251736,0.13570149739583334,-4.274732801649305,-1.3771,-0.4176,0.4429,-0.00142,-0.00608,0.02377,0.0009015771211124957,0.0009995289146900177,0.0008572414517402649,0.00041296740528196096,0.0004996439092792571,0.0005212740506976843,0.011521042324602604,0.009093786589801311,0.011657471768558025,passive,0
1.2423,rehab,safe_near_limit_fast,38.2685351748229,-666.6405912361573,291.2087251628848,-177.67114991818514,0.3037528209965504,-149.77955734073387,-52.951,-0.028,31.468,36.5668,2.4662,3.2569,80.75876443692954,28.055689594533185,83.89485123133895,-23.58762953016493,-89.02019924587674,-39.51421101888021,-4.353339318001624,-1.795747964689047,-2.2926209704710705,4.165963066948785,0.13570149739583334,-4.342592027452257,-1.667,-0.4708,-0.2933,-0.01572,-0.00126,0.03308,0.0009015771211124957,0.0009995289146900177,0.0008572414517402649,0.00041296740528196096,0.0004996439092792571,0.0005212740506976843,0.011521042324602604,0.009093786589801311,0.011657471768558025,passive,0
1.2609,rehab,safe_near_limit_fast,37.06536959618343,-666.6415915049568,291.91691660260824,-177.6723663039051,0.3048449844226851,-149.78004583877944,-52.2328,0.0175,31.5997,51.5551,2.6722,-1.5024,80.6537688604676,28.012288159663132,83.8405722438699,-23.485209147135418,-89.01754591200087,-39.61756388346354,-4.353339318001624,-1.795747964689047,-2.353691629844137,4.299816555447048,0.13570149739583334,-4.342592027452257,-1.7433,-0.4254,0.1659,-0.04082,0.00245,0.03303,0.0009015771211124957,0.0009995289146900177,0.0008572414517402649,0.00041296740528196096,0.0004996439092792571,0.0005212740506976843,0.011521042324602604,0.009093786589801311,0.011657471768558025,passive,0
1.2809,rehab,safe_near_limit_fast,36.27602792607332,-666.636972535765,292.4029559558998,-177.67293891245862,0.30532928000233306,-149.7791316093775,-48.7392,0.0724,30.2469,51.6073,1.729,-2.8983,80.58481877393062,27.98227291296024,83.80385370537786,-23.415646023220486,-89.01581658257378,-39.686643812391495,-4.4077542748781715,-1.9045846769125154,-2.3147431930693068,4.355010986328125,0.13570149739583334,-4.206882052951388,-1.842,-0.5425,-0.423,-0.02844,-0.00235,0.03535,0.0009015771211124957,0.0009995289146900177,0.0008572414517402649,0.00041296740528196096,0.0004996439092792571,0.0005212740506976843,0.011521042324602604,0.009093786589801311,0.011657471768558025,passive,0
1.3009,rehab,safe_near_limit_fast,35.091515483535915,-666.6327640580636,293.1483171870928,-177.67330297742748,0.30556209992792094,-149.77764105365233,-46.9785,0.1163,29.8964,34.3283,0.5005,4.581,80.48141403953628,27.937063084970607,83.74653580165145,-23.30956353081597,-89.01329888237846,-39.79034423828125,-4.4077542748781715,-1.9045846769125154,-2.4477824598255724,4.362606472439236,0.13570149739583334,-4.342592027452257,-1.7563,-0.4867,-0.5878,-0.00887,-0.00207,0.03595,0.0009015771211124957,0.0009995289146900177,0.0008572414517402649,0.00041296740528196096,0.0004996439092792571,0.0005212740506976843,0.011521042324602604,0.009093786589801311,0.011657471768558025,passive,0
1.3211,rehab,safe_near_limit_fast,34.30415344601235,-666.6309728292414,293.6701202864601,-177.67196438113498,0.3044110326443787,-149.77609710948838,-46.4674,0.124,30.1005,12.0912,-0.5368,14.6079,80.4127018994624,27.905837710541075,83.70652000502784,-23.237991333007812,-89.01161193847656,-39.85978868272569,-4.244502605778156,-1.8501697200359684,-2.419718374120127,4.4905853271484375,0.13570149739583334,-4.274732801649305,-1.7269,-0.6069,-0.4459,-0.01842,-0.00755,0.03121,0.0009015771211124957,0.0009995289146900177,0.0008572414517402649,0.00041296740528196096,0.0004996439092792571,0.0005212740506976843,0.011521042324602604,0.009093786589801311,0.011657471768558025,passive,0
1.3409,rehab,safe_near_limit_fast,33.51898048193951,-666.629012579366,294.1920486985072,-177.67097534676944,0.3035946753792765,-149.77461704208443,-47.367,0.0825,30.9827,-12.7679,-1.1271,28.8,80.34418011655902,27.874850282574645,83.66594673383354,-23.16562228732639,-89.00989956325955,-39.92897033691406,-4.190087648901609,-2.0134145906656093,-2.5754237411045793,4.626422458224826,0.13570149739583334,-4.206882052951388,-1.7033,-0.5399,-0.8157,-0.01433,-0.0144,0.04012,0.0009015771211124957,0.0009995289146900177,0.0008572414517402649,0.00041296740528196096,0.0004996439092792571,0.0005212740506976843,0.011521042324602604,0.009093786589801311,0.011657471768558025,passive,0
1.361,rehab,safe_near_limit_fast,32.32505112853819,-666.6294994506511,294.97989776114053,-177.66990524525858,0.3027357688231389,-149.7743622861484,-48.85,0.0161,32.0716,-51.0718,-1.2773,56.8858,80.24006154277536,27.8288994213142,83.6032240461595,-23.055199517144096,-89.00733947753906,-40.03209431966146,-4.244502605778156,-1.795747964689047,-2.7151459042388613,4.6701812744140625,0.06785074869791667,-4.274732801649305,-1.7619,-0.719,-0.706,-0.02417,-0.00648,0.034,0.0009015771211124957,0.0009995289146900177,0.0008572414517402649,0.00041296740528196096,0.0004996439092792571,0.0005212740506976843,0.011521042324602604,0.009093786589801311,0.011657471768558025,passive,0
1.3809,rehab,safe_near_limit_fast,31.525890811332516,-666.6283388986423,295.50520945543855,-177.6700820299202,0.30286119279080215,-149.77427717714974,-50.3688,-0.0211,33.3525,-66.9759,-1.036,75.1163,80.17036362449721,27.798442274036972,83.56072680784924,-22.979939778645832,-89.00566948784721,-40.10103013780382,-4.462176030225093,-1.8501697200359684,-2.6069754421120823,4.792878892686632,0.13570149739583334,-4.274732801649305,-1.7383,-0.6241,-0.8155,-0.02972,-0.01329,0.03618,0.0009015771211124957,0.0009995289146900177,0.0008572414517402649,0.00041296740528196096,0.0004996439092792571,0.0005212740506976843,0.011521042324602604,0.009093786589801311,0.011657471768558025,passive,0
1.401,rehab,safe_near_limit_fast,30.322284524756434,-666.6290855731381,296.2929575834462,-177.67182627571103,0.30421907768454237,-149.7744244135083,-51.7768,-0.0208,34.964,-54.8999,-0.5072,78.3045,80.06545642815014,27.753674346621672,83.49491081615486,-22.86400689019097,-89.00323655870226,-40.2044932047526,-4.353339318001624,-1.9589996337890625,-2.812656364818611,4.88065931532118,0.06785074869791667,-4.206882052951388,-1.7115,-0.5796,-0.6702,-0.01588,-0.01658,0.03052,0.0009015771211124957,0.0009995289146900177,0.0008572414517402649,0.00041296740528196096,0.0004996439092792571,0.0005212740506976843,0.011521042324602604,0.009093786589801311,0.011657471768558025,passive,0
1.4209,rehab,safe_near_limit_fast,29.513699842831716,-666.6309317990934,296.83010667668987,-177.67297334171883,0.3052364535107978,-149.77439701839305,-51.4852,-0.0135,35.7714,-25.4691,-0.0546,66.4369,79.99499708119005,27.723652301448407,83.44925228912051,-22.784678141276043,-89.0015157063802,-40.27409023708767,-4.244502605778156,-1.9045846769125154,-2.870212215008122,5.0698598225911455,0.20355224609375,-4.546152750651042,-1.9037,-0.688,-0.5323,-0.02106,-0.00456,0.03907,0.0009015771211124957,0.0009995289146900177,0.0008572414517402649,0.00041296740528196096,0.0004996439092792571,0.0005212740506976843,0.011521042324602604,0.009093786589801311,0.011657471768558025,passive,0
1.4423,rehab,safe_near_limit_fast,28.09948862776196,-666.6319637993813,297.81175921081785,-177.67440438948438,0.30650074023504476,-149.77679983986246,-52.001,0.0099,37.718,13.414,-0.0383,47.9844,79.87176800718402,27.669250941512608,83.36552232798964,-22.641008165147568,-88.99862501356337,-40.39330376519097,-4.298924361125077,-2.0134145906656093,-3.1994757321801517,5.233450995551215,0.06785074869791667,-4.274732801649305,-1.835,-0.7235,-0.2949,-0.0114,-0.01814,0.03759,0.0009015771211124957,0.0009995289146900177,0.0008572414517402649,0.00041296740528196096,0.0004996439092792571,0.0005212740506976843,0.011521042324602604,0.009093786589801311,0.011657471768558025,passive,0
1.4612,rehab,safe_near_limit_fast,27.30001634311401,-666.6308061094217,298.4026584672255,-177.67445464015825,0.306579168119719,-149.77704028602432,-53.2375,0.0252,39.884,20.5062,-0.3811,47.6506,79.80208368584661,27.636733857711942,83.31520005027846,-22.55599127875434,-88.99697197808159,-40.461790296766495,-4.353339318001624,-2.067836346012531,-3.199761267935876,5.44570075141059,0.06785074869791667,-4.342592027452257,-1.9747,-0.6918,-0.5787,-0.02606,-0.00526,0.0425,0.0009015771211124957,0.0009995289146900177,0.0008572414517402649,0.00041296740528196096,0.0004996439092792571,0.0005212740506976843,0.011521042324602604,0.009093786589801311,0.011657471768558025,passive,0
1.4813,rehab,safe_near_limit_fast,26.109364691875864,-666.6290758717407,299.3452335912586,-177.67214266053958,0.30459028451826975,-149.77667282045684,-51.2831,0.0092,39.6173,20.1694,-0.6984,43.3431,79.69832543099281,27.58536461556312,83.23538600808322,-22.424723307291668,-88.99456448025174,-40.56443108452691,-4.244502605778156,-2.122251302889078,-3.480259357112469,5.6198883056640625,0.06785074869791667,-4.274732801649305,-1.8645,-0.632,0.0003,-0.02048,-0.0131,0.03765,0.0009015771211124957,0.0009995289146900177,0.0008572414517402649,0.00041296740528196096,0.0004996439092792571,0.0005212740506976843,0.011521042324602604,0.009093786589801311,0.011657471768558025,passive,0
1.5013,rehab,safe_near_limit_fast,25.316598104740816,-666.6287342660394,299.9908990801792,-177.6705549096748,0.3031878305487237,-149.7761254242081,-50.2994,-0.0252,39.947,24.7206,-0.7366,34.803,79.62926656892984,27.550699215124148,83.17994448218015,-22.334637112087673,-88.99298773871527,-40.633019341362846,-4.353339318001624,-2.122251302889078,-3.5217368248665686,5.604248046875,0.06785074869791667,-4.342592027452257,-1.7376,-0.7538,-0.6593,-0.00947,-0.01381,0.04203,0.0009015771211124957,0.0009995289146900177,0.0008572414517402649,0.00041296740528196096,0.0004996439092792571,0.0005212740506976843,0.011521042324602604,0.009093786589801311,0.011657471768558025,passive,0
1.5215,rehab,safe_near_limit_fast,24.11966152730032,-666.628987918036,300.96341694882165,-177.66981289260744,0.3026130791808446,-149.77658750413838,-47.9726,-0.0729,39.0431,32.0854,-0.5696,24.8322,79.52501882420908,27.4993095775642,83.09439253098894,-22.19550238715278,-88.99055480957031,-40.73523627387153,-4.571005943978187,-2.067836346012531,-3.4502169165280785,5.816608005099826,0.13570149739583334,-4.274732801649305,-1.814,-0.7432,-0.0869,-0.01959,-0.00891,0.03239,0.0009015771211124957,0.0009995289146900177,0.0008572414517402649,0.00041296740528196096,0.0004996439092792571,0.0005212740506976843,0.011521042324602604,0.009093786589801311,0.011657471768558025,passive,0
1.5425,rehab,safe_near_limit_fast,23.32210417323791,-666.6287426968603,301.59548925450486,-177.67155304709297,0.3040788250002336,-149.77777838778636,-49.5247,-0.0939,41.2126,52.0478,-0.0194,14.2577,79.45557244933478,27.46643897330407,83.03695225479579,-22.100855509440105,-88.98902045355902,-40.80243428548177,-4.353339318001624,-2.122251302889078,-3.66679578724474,5.851398044162326,0.06785074869791667,-4.410442776150173,-1.8364,-0.7289,-0.0912,-0.0287,-0.0015,0.03803,0.0009015771211124957,0.0009995289146900177,0.0008572414517402649,0.00041296740528196096,0.0004996439092792571,0.0005212740506976843,0.011521042324602604,0.009093786589801311,0.011657471768558025,passive,0
1.561,rehab,safe_near_limit_fast,22.132236056477755,-666.6339039382048,302.56087243180446,-177.673635412855,0.30588810556643525,-149.78005173565424,-50.9623,-0.0596,43.3201,48.9318,0.893,24.2386,79.3520725363552,27.41744919578628,82.94764074948755,-21.956736246744793,-88.98672315809462,-40.90204874674479,-4.190087648901609,-1.9045846769125154,-3.8345276483214725,5.9529876708984375,0.13570149739583334,-4.071180555555555,-1.9742,-0.7877,-0.5387,-0.03714,-0.00665,0.04158,0.0009015771211124957,0.0009995289146900177,0.0008572414517402649,0.00041296740528196096,0.0004996439092792571,0.0005212740506976843,0.011521042324602604,0.009093786589801311,0.011657471768558025,passive,0
1.5811,rehab,safe_near_limit_fast,21.36466550737324,-666.6384211765387,303.22299952483064,-177.67411233151353,0.30630434219218966,-149.7802751783525,-47.3091,-0.015,41.5115,42.9713,1.7303,30.0064,79.2853319526899,27.384333846592668,82.88613498801053,-21.85946994357639,-88.9852311876085,-40.96747504340278,-4.081257735148514,-2.0134145906656093,-3.912043807530167,6.172112358940972,0.13570149739583334,-4.071180555555555,-1.9716,-0.6853,-0.4613,-0.01861,-0.00454,0.0394,0.0009015771211124957,0.0009995289146900177,0.0008572414517402649,0.00041296740528196096,0.0004996439092792571,0.0005212740506976843,0.011521042324602604,0.009093786589801311,0.011657471768558025,passive,0
1.6015,rehab,safe_near_limit_fast,20.251135067376023,-666.6390548587609,304.23156303181963,-177.67398466468717,0.3062333993803354,-149.77951283924915,-46.5224,0.0108,42.5259,57.7155,1.8173,19.7188,79.1884197575031,27.333624056070157,82.79336985975209,-21.713180541992188,-88.98302714029948,-41.06350368923611,-3.918006066048499,-2.176666259765625,-3.914790389561417,6.0282643636067705,0.13570149739583334,-4.0033213297526045,-1.9367,-0.6709,-0.7579,-0.01084,-0.01587,0.03781,0.0009015771211124957,0.0009995289146900177,0.0008572414517402649,0.00041296740528196096,0.0004996439092792571,0.0005212740506976843,0.011521042324602604,0.009093786589801311,0.011657471768558025,passive,0
1.621,rehab,safe_near_limit_fast,19.527085131973458,-666.6361936506155,304.91683920812414,-177.67320167032577,0.30551543217547394,-149.77949135941526,-43.9136,0.0423,41.8238,77.4135,0.9923,-0.8407,79.12537074325108,27.299047035746053,82.7309531032449,-21.615337795681423,-88.98166232638889,-41.12547132703993,-3.809169353825031,-2.122251302889078,-3.8656986349880107,6.138661702473958,0.06785074869791667,-3.799769083658854,-1.8923,-0.6463,0.168,-0.03007,0.00221,0.03503,0.0009015771211124957,0.0009995289146900177,0.0008572414517402649,0.00041296740528196096,0.0004996439092792571,0.0005212740506976843,0.011521042324602604,0.009093786589801311,0.011657471768558025,passive,0
1.6425,rehab,safe_near_limit_fast,18.461959352975388,-666.6279230562159,305.9466922993326,-177.67196277714126,0.304340032979529,-149.78056024751126,-42.9712,0.091,42.6787,102.8867,-0.5155,-29.2208,79.03257842111115,27.24708632667466,82.63728377842666,-21.46863301595052,-88.97972106933594,-41.21554056803385,-3.7003394400719367,-2.0134145906656093,-4.007827456634824,5.910491943359375,0.13570149739583334,-3.664059109157986,-1.7649,-0.686,-0.3952,-0.01985,-0.00814,0.03011,0.0009015771211124957,0.0009995289146900177,0.0008572414517402649,0.00041296740528196096,0.0004996439092792571,0.0005212740506976843,0.011521042324602604,0.009093786589801311,0.011657471768558025,passive,0
1.6612,rehab,safe_near_limit_fast,17.62773591711736,-666.627505641336,306.79394328225254,-177.6706257173689,0.30316482261792715,-149.7800186213181,-42.8216,0.0993,43.5176,98.9715,-1.4023,-33.9,78.95999795139426,27.205663246683553,82.55834673890973,-21.34783426920573,-88.97813585069444,-41.28729926215278,-3.428251058748453,-2.067836346012531,-3.993904189308091,6.064453125,0.13570149739583334,-3.324796888563368,-1.8717,-0.725,-0.7776,-0.02913,0.00042,0.0354,0.0009015771211124957,0.0009995289146900177,0.0008572414517402649,0.00041296740528196096,0.0004996439092792571,0.0005212740506976843,0.011521042324602604,0.009093786589801311,0.011657471768558025,passive,0
1.6811,rehab,safe_near_limit_fast,16.990921871149638,-666.6312962549912,307.4587462228106,-177.66983465475806,0.3025022444241533,-149.77840606273378,-39.4562,0.0274,41.012,95.1538,-1.6528,-45.3148,78.9046584025468,27.17405035944268,82.49491701031675,-21.252093844943577,-88.97688123914931,-41.34317186143663,-3.373836101871906,-1.9045846769125154,-3.9662004225324874,5.9659067789713545,0.06785074869791667,-3.528349134657118,-1.6371,-0.5917,0.0813,-0.00842,-0.00454,0.03193,0.0009015771211124957,0.0009995289146900177,0.0008572414517402649,0.00041296740528196096,0.0004996439092792571,0.0005212740506976843,0.011521042324602604,0.009093786589801311,0.011657471768558025,passive,0
1.7011,rehab,safe_near_limit_fast,16.06931472155718,-666.6308624429217,308.43958070549496,-177.6692896470128,0.3019847189697165,-149.77765658376896,-37.4199,-0.067,40.0261,107.488,-1.668,-64.3811,78.82449763836247,27.12716810774095,82.40154001972464,-21.110127766927082,-88.97517734103732,-41.422483656141495,-3.319421144995359,-1.9045846769125154,-3.8570237867903,5.93369377983941,-0.0,-3.1890869140625,-1.8379,-0.7878,-0.4562,-0.02485,0.00033,0.03227,0.0009015771211124957,0.0009995289146900177,0.0008572414517402649,0.00041296740528196096,0.0004996439092792571,0.0005212740506976843,0.011521042324602604,0.009093786589801311,0.011657471768558025,passive,0
1.7214,rehab,safe_near_limit_fast,15.485196941455927,-666.6296667798348,309.06322708576295,-177.67009787221923,0.302713966227958,-149.77787077766928,-34.4935,-0.1249,37.8517,120.0179,-1.3922,-77.7867,78.77367907231397,27.097689940197633,82.34114240891863,-21.017625596788193,-88.97409227159288,-41.47204928927951,-3.1561694758953434,-1.795747964689047,-3.7468137835512065,5.610385470920138,-0.0,-3.0533854166666665,-1.7461,-0.768,-0.3735,-0.02478,-0.00074,0.03247,0.0009015771211124957,0.0009995289146900177,0.0008572414517402649,0.00041296740528196096,0.0004996439092792571,0.0005212740506976843,0.011521042324602604,0.009093786589801311,0.011657471768558025,passive,0
1.7416,rehab,safe_near_limit_fast,14.647332159007668,-666.6325821781348,309.96566437077064,-177.6718574022632,0.3042800202902766,-149.77933416214233,-32.3626,-0.1136,36.7208,136.1565,-0.5574,-87.2154,78.7008810515451,27.05609689844717,82.25187169443262,-20.882237752278645,-88.97259182400174,-41.54186672634548,-2.938502849918781,-1.7413330078125,-3.655897839234607,5.4484812418619795,0.06785074869791667,-2.8498246934678817,-1.8292,-0.871,-0.4885,-0.04132,0.00646,0.03228,0.0009015771211124957,0.0009995289146900177,0.0008572414517402649,0.00041296740528196096,0.0004996439092792571,0.0005212740506976843,0.011521042324602604,0.009093786589801311,0.011657471768558025,passive,0
1.7611,rehab,safe_near_limit_fast,14.136990990765238,-666.6363774051966,310.5622025300835,-177.67186674742734,0.30433640619131774,-149.77929250138283,-30.7292,-0.0613,35.9189,132.5313,0.6405,-74.3825,78.65656862164488,27.02897100165339,82.19288136699411,-20.794728597005207,-88.97164238823784,-41.585235595703125,-2.6664212670656715,-1.686918050935953,-3.669739524916847,5.470479329427083,0.06785074869791667,-2.6462639702690973,-1.7381,-0.6122,-0.6137,-0.02166,-0.00913,0.03807,0.0009015771211124957,0.0009995289146900177,0.0008572414517402649,0.00041296740528196096,0.0004996439092792571,0.0005212740506976843,0.011521042324602604,0.009093786589801311,0.011657471768558025,passive,0
1.781,rehab,safe_near_limit_fast,13.43487132832433,-666.6418931055465,311.41794275032055,-177.6721129822833,0.30462405197515185,-149.77959984360078,-27.156,-0.0453,33.4746,128.9349,1.5666,-63.845,78.59561353626817,26.99046446545289,82.1075945561475,-20.668716430664062,-88.97036234537761,-41.64446512858073,-2.3399179288656407,-1.6325030940594059,-3.5450079889580755,5.068783230251736,-0.0,-2.307001749674479,-1.7239,-0.6912,-0.5167,-0.01864,0.0011,0.03004,0.0009015771211124957,0.0009995289146900177,0.0008572414517402649,0.00041296740528196096,0.0004996439092792571,0.0005212740506976843,0.011521042324602604,0.009093786589801311,0.011657471768558025,passive,0
1.8011,rehab,safe_near_limit_fast,13.01379825294622,-666.6394894023746,311.9710459431536,-177.67190980555247,0.30447930915029764,-149.77940771965595,-24.4247,-0.0336,32.4044,135.0106,1.6914,-60.3959,78.55895618400952,26.96497700001934,82.05364189525642,-20.588404337565105,-88.96959940592448,-41.68040805392795,-2.176666259765625,-1.5780813387124846,-3.3194823312287283,5.030144585503472,0.06785074869791667,-2.171291775173611,-1.7126,-0.4717,0.514,-0.01977,0.00084,0.0342,0.0009015771211124957,0.0009995289146900177,0.0008572414517402649,0.00041296740528196096,0.0004996439092792571,0.0005212740506976843,0.011521042324602604,0.009093786589801311,0.011657471768558025,passive,0
1.8212,rehab,safe_near_limit_fast,12.626452294238073,-666.6375719262626,312.4922846126892,-177.67235038718738,0.30488055578080164,-149.77942402635583,-21.3949,0.0052,30.7947,141.6556,1.2066,-60.6768,78.52524256942296,26.94125713688312,82.00206869899637,-20.511491563585068,-88.96892971462674,-41.71323988172743,-2.067836346012531,-1.4148296696124691,-3.1729888916015625,4.792895846896701,0.06785074869791667,-1.9677310519748263,-1.7102,-0.6425,-0.1653,-0.02646,-0.004,0.03046,0.0009015771211124957,0.0009995289146900177,0.0008572414517402649,0.00041296740528196096,0.0004996439092792571,0.0005212740506976843,0.011521042324602604,0.009093786589801311,0.011657471768558025,passive,0
1.842,rehab,safe_near_limit_fast,12.122562376030034,-666.6354236069104,313.2428807506853,-177.6720023953238,0.3045208878199993,-149.77940757515358,-18.9599,0.0317,30.2207,162.2678,0.5593,-77.786,78.4813924355082,26.907312374303835,81.92803335661935,-20.402679443359375,-88.96813286675346,-41.755879720052086,-1.686918050935953,-1.360414712735922,-2.9691163620146193,4.331885443793403,0.06785074869791667,-1.5606180826822915,-1.6915,-0.6969,-0.5955,-0.03445,-0.00558,0.03266,0.0009015771211124957,0.0009995289146900177,0.0008572414517402649,0.00041296740528196096,0.0004996439092792571,0.0005212740506976843,0.011521042324602604,0.009093786589801311,0.011657471768558025,passive,0
1.8611,rehab,safe_near_limit_fast,11.832446721936712,-666.6358379672915,313.7071130047943,-177.67202303285367,0.30454760041514584,-149.78045122065942,-16.0771,0.0493,29.0088,176.5859,0.2197,-93.885,78.45617011041925,26.886747001421334,81.88150462537709,-20.334820217556423,-88.96769205729167,-41.77929348415798,-1.305999755859375,-1.251584798982828,-2.875902534711479,4.15464613172743,0.06785074869791667,-1.2892066107855902,-1.6404,-0.6931,-0.0187,-0.02944,-0.00402,0.02991,0.0009015771211124957,0.0009995289146900177,0.0008572414517402649,0.00041296740528196096,0.0004996439092792571,0.0005212740506976843,0.011521042324602604,0.009093786589801311,0.011657471768558025,passive,0
1.8813,rehab,safe_near_limit_fast,11.448081912884607,-666.6379030252557,314.47141335486594,-177.67017944155643,0.30290800051067124,-149.78071571010202,-12.0916,0.0409,26.6355,191.3225,-0.0188,-119.2135,78.42275562852916,26.853094573068148,81.80557250976562,-20.226703219943577,-88.9671410454644,-41.81121826171875,-0.979496417659344,-1.0883331298828125,-2.5881164852935488,3.553432888454861,-0.0,-0.9499359130859375,-1.6855,-0.7476,-0.5003,-0.02605,-0.00261,0.03455,0.0009015771211124957,0.0009995289146900177,0.0008572414517402649,0.00041296740528196096,0.0004996439092792571,0.0005212740506976843,0.011521042324602604,0.009093786589801311,0.011657471768558025,passive,0
1.9009,rehab,safe_near_limit_fast,11.288652146346642,-666.6354413803782,314.8567076841157,-177.66988440875159,0.30268764195993636,-149.7811905506093,-8.4576,0.0215,24.6268,206.343,-0.3948,-147.3312,78.40881876426168,26.83593523384321,81.76734471085048,-20.171279907226562,-88.9669206407335,-41.82405259874132,-0.7074148348062346,-1.0339181730062654,-2.287100612527073,3.3314344618055554,-0.0,-0.678524441189236,-1.5074,-0.7069,-0.1182,-0.0063,-0.00794,0.0322,0.0009015771211124957,0.0009995289146900177,0.0008572414517402649,0.00041296740528196096,0.0004996439092792571,0.0005212740506976843,0.011521042324602604,0.009093786589801311,0.011657471768558025,passive,0
1.9209,rehab,safe_near_limit_fast,11.146167191612058,-666.6365987763472,315.36904966094204,-177.6692820286339,0.3021792638694104,-149.78172421529996,-3.6903,0.0107,20.4964,203.7604,-0.6482,-163.9283,78.39639116041731,26.81387419747834,81.7155131727162,-20.097825792100693,-88.96681043836806,-41.83511522081163,-0.32649653972965653,-0.87066650390625,-1.967892033038753,2.852774726019965,-0.0,-0.2714114718967014,-1.5627,-0.6439,-0.3615,-0.02114,-0.00352,0.02952,0.0009015771211124957,0.0009995289146900177,0.0008572414517402649,0.00041296740528196096,0.0004996439092792571,0.0005212740506976843,0.011521042324602604,0.009093786589801311,0.011657471768558025,passive,0
1.9414,rehab,safe_near_limit_fast,11.155302684173522,-666.635367442759,315.6650529828066,-177.6691098860524,0.3020926089891624,-149.7785622532316,0.671,-0.0033,16.8333,197.5263,-0.6524,-175.86,78.39707780592512,26.801140662467127,81.68551152295406,-20.055211385091145,-88.96682739257812,-41.83710734049479,0.2176666259765625,-0.7618297916827815,-1.7144654528929455,2.3909674750434027,-0.0,-0.06785074869791667,-1.565,-0.5882,-0.0925,-0.0138,0.0021,0.03186,0.0009015771211124957,0.0009995289146900177,0.0008572414517402649,0.00041296740528196096,0.0004996439092792571,0.0005212740506976843,0.011521042324602604,0.009093786589801311,0.011657471768558025,passive,0
1.9612,rehab,safe_near_limit_fast,11.232144747629755,-666.6321843674541,316.01882546229496,-177.67002917559333,0.3030939316958035,-149.7734848519168,5.0854,0.0039,13.0063,191.5323,-0.3557,-178.2372,78.4035567481919,26.786082050587872,81.64890855845839,-20.002254909939236,-88.9668952094184,-41.835106743706596,0.435333251953125,-0.544163165706219,-1.4099143755317916,1.9462246365017362,0.06785074869791667,0.2714114718967014,-1.6264,-0.6711,-0.3722,-0.02647,-0.0065,0.02964,0.0009015771211124957,0.0009995289146900177,0.0008572414517402649,0.00041296740528196096,0.0004996439092792571,0.0005212740506976843,0.011521042324602604,0.009093786589801311,0.011657471768558025,passive,0
1.9811,rehab,safe_near_limit_fast,11.338897019956283,-666.6346276227722,316.2094803150938,-177.6699732079647,0.3033253384484263,-149.7722700069751,8.452,-0.0078,9.4442,184.9238,0.2014,-174.7177,78.41276867554919,26.778562942353805,81.62854713968711,-19.974517822265625,-88.96698845757378,-41.826790703667534,0.7074148348062346,-0.3809114966062036,-1.1486559575146968,1.5203772650824652,-0.0,0.7463751898871528,-1.6405,-0.6069,0.0771,-0.02357,-0.0056,0.02958,0.0009015771211124957,0.0009995289146900177,0.0008572414517402649,0.00041296740528196096,0.0004996439092792571,0.0005212740506976843,0.011521042324602604,0.009093786589801311,0.011657471768558025,passive,0
2.001,rehab,safe_near_limit_fast,11.566108507883706,-666.6354307930836,316.40788782343486,-177.67035988653333,0.30419621127589136,-149.77581195640434,11.1792,-0.0148,6.5662,177.1032,0.7177,-167.7806,78.43237546410892,26.77083988000851,81.60709796565594,-19.945203993055554,-88.96731058756511,-41.80330064561632,1.0339181730062654,-0.2176666259765625,-0.7045730741897431,0.9212070041232638,0.06785074869791667,1.2213473849826388,-1.3931,-0.7049,-0.4036,-0.0232,-0.00794,0.02594,0.0009015771211124957,0.0009995289146900177,0.0008572414517402649,0.00041296740528196096,0.0004996439092792571,0.0005212740506976843,0.011521042324602604,0.009093786589801311,0.011657471768558025,passive,0
2.0211,rehab,safe_near_limit_fast,11.774599336859636,-666.6378623464818,316.48394927729527,-177.67059360659147,0.30469946728780883,-149.77812991800857,14.0338,-0.0028,3.5563,166.3579,1.0096,-160.0373,78.45043899989363,26.76843322149598,81.59806959699876,-19.933895534939236,-88.96767510308159,-41.78278605143229,1.305999755859375,-0.05441495687654703,-0.4274538247892172,0.4784054226345486,-0.0,1.357057359483507,-1.4279,-0.5465,-0.0144,-0.01209,-0.00949,0.02895,0.0009015771211124957,0.0009995289146900177,0.0008572414517402649,0.00041296740528196096,0.0004996439092792571,0.0005212740506976843,0.011521042324602604,0.009093786589801311,0.011657471768558025,passive,0
2.0417,rehab,safe_near_limit_fast,12.18200876972521,-666.6362088801873,316.4773392254525,-177.6737720640754,0.30786306745631625,-149.7804092389292,18.1588,0.0241,0.1481,169.5017,0.9605,-169.1827,78.48566867337368,26.76996287733021,81.59562214766399,-19.92966545952691,-88.96844651963976,-41.74523247612847,1.7413330078125,0.05441495687654703,0.021333600034808168,-0.08818732367621528,-0.06785074869791667,1.7641703287760415,-1.3453,-0.5732,-0.1914,-0.01853,0.00161,0.0242,0.0009015771211124957,0.0009995289146900177,0.0008572414517402649,0.00041296740528196096,0.0004996439092792571,0.0005212740506976843,0.011521042324602604,0.009093786589801311,0.011657471768558025,passive,0
2.0612,rehab,safe_near_limit_fast,12.525153918428227,-666.6332466034888,316.4581538278322,-177.67331874416263,0.3075751638867508,-149.78069615043358,22.3557,0.0719,-3.3875,183.8905,0.768,-187.892,78.51534399655786,26.771050632590114,81.5976616887763,-19.934251573350693,-88.96915011935764,-41.71531677246094,1.9045846769125154,0.10882991375309406,0.18760378998104887,-0.55633544921875,-0.0,1.8998803032769096,-1.3142,-0.5638,-0.0262,-0.0178,-0.01339,0.02745,0.0009015771211124957,0.0009995289146900177,0.0008572414517402649,0.00041296740528196096,0.0004996439092792571,0.0005212740506976843,0.011521042324602604,0.009093786589801311,0.011657471768558025,passive,0
2.0809,rehab,safe_near_limit_fast,12.893610340894226,-666.6352069208036,316.41007049834235,-177.67010226363104,0.3046034019761626,-149.7820257374771,25.5992,0.0961,-7.1228,186.4638,0.4386,-200.7867,78.54735119508044,26.773552469687885,81.60374631976137,-19.94824727376302,-88.9700910780165,-41.68212890625,2.067836346012531,0.2176666259765625,0.6086738510887222,-1.125886705186632,-0.06785074869791667,2.171291775173611,-1.349,-0.535,-0.8498,-0.01975,0.00586,0.03465,0.0009015771211124957,0.0009995289146900177,0.0008572414517402649,0.00041296740528196096,0.0004996439092792571,0.0005212740506976843,0.011521042324602604,0.009093786589801311,0.011657471768558025,passive,0
2.1011,rehab,safe_near_limit_fast,13.533022843498443,-666.6304970714883,316.24452302720834,-177.6653343963773,0.2999875184804607,-149.7826672378955,28.7616,0.0919,-11.0632,167.7191,-0.2409,-203.4375,78.60279272098353,26.780507304880878,81.62371342725093,-19.983528984917534,-88.97178649902344,-41.626434326171875,2.3943328857421875,0.435333251953125,1.075823944393951,-1.7986721462673612,-0.06785074869791667,2.4427032470703125,-1.382,-0.4614,-0.2723,-0.02106,-0.00192,0.03183,0.0009015771211124957,0.0009995289146900177,0.0008572414517402649,0.00041296740528196096,0.0004996439092792571,0.0005212740506976843,0.011521042324602604,0.009093786589801311,0.011657471768558025,passive,0
2.1212,rehab,safe_near_limit_fast,14.135732723179174,-666.6293035307392,315.994859562264,-177.6635271175218,0.29803259491193995,-149.78178842188862,31.6762,0.0556,-14.9742,131.7684,-1.1531,-191.405,78.65512054745514,26.792044309106203,81.64926207891786,-20.02484639485677,-88.97332085503471,-41.57545301649306,2.6664212670656715,0.7074148348062346,1.5554152384842976,-2.3024495442708335,-0.06785074869791667,2.5784132215711804,-1.3462,-0.3169,-0.2475,-0.0286,-0.00327,0.03584,0.0009015771211124957,0.0009995289146900177,0.0008572414517402649,0.00041296740528196096,0.0004996439092792571,0.0005212740506976843,0.011521042324602604,0.009093786589801311,0.011657471768558025,passive,0
2.1415,rehab,safe_near_limit_fast,14.929785588113402,-666.6253363656912,315.5558900719391,-177.66507396616547,0.2992042485602258,-149.78085718778348,35.7015,0.0178,-20.0094,100.1684,-1.996,-175.8258,78.72400944775875,26.812487309521966,81.69139899829827,-20.087576972113716,-88.97511800130208,-41.508212619357636,2.884087893042234,0.9250814607827971,1.9246537614576886,-2.9380374484592013,-0.06785074869791667,2.9176754421657987,-1.5034,-0.4297,-1.0214,-0.03807,0.00087,0.03465,0.0009015771211124957,0.0009995289146900177,0.0008572414517402649,0.00041296740528196096,0.0004996439092792571,0.0005212740506976843,0.011521042324602604,0.009093786589801311,0.011657471768558025,passive,0
2.1612,rehab,safe_near_limit_fast,15.490937859176496,-666.628745367409,315.2052163732482,-177.66626640580424,0.3001970676781468,-149.7806366718964,37.8721,-0.0001,-23.5803,84.028,-2.161,-161.3353,78.77280886810605,26.82960585792466,81.72377331422106,-20.13700697157118,-88.97633022732205,-41.46019829644097,3.1017545190187965,1.1427480867593596,2.2061036364866955,-3.270865546332465,-0.0,3.0533854166666665,-1.3448,-0.3221,-0.4425,-0.01516,0.00326,0.02966,0.0009015771211124957,0.0009995289146900177,0.0008572414517402649,0.00041296740528196096,0.0004996439092792571,0.0005212740506976843,0.011521042324602604,0.009093786589801311,0.011657471768558025,passive,0
2.1809,rehab,safe_near_limit_fast,16.382107647392456,-666.6286118714855,314.60629368188387,-177.66815752678517,0.3016977101439277,-149.78016919408887,38.1499,-0.0431,-26.1401,71.9647,-1.5246,-142.3933,78.85024344567024,26.858057456441443,81.78033658773592,-20.221964518229168,-88.97827996148003,-41.38420104980469,3.373836101871906,1.251584798982828,2.524061297426129,-3.8232421875,-0.13570149739583334,3.324796888563368,-1.2414,-0.3793,0.0916,-0.00252,-0.00836,0.02631,0.0009015771211124957,0.0009995289146900177,0.0008572414517402649,0.00041296740528196096,0.0004996439092792571,0.0005212740506976843,0.011521042324602604,0.009093786589801311,0.011657471768558025,passive,0
2.2009,rehab,safe_near_limit_fast,17.009466846245346,-666.631468036919,314.1592921614939,-177.66908151584693,0.3024887473055357,-149.7806793035262,37.9058,-0.0972,-27.699,62.9314,-0.5989,-124.1151,78.90481476736541,26.87964939835048,81.8221879713606,-20.285873413085938,-88.97959391276042,-41.329845852322045,3.482672814095374,1.4692514249593904,2.666591228825031,-4.203219943576388,-0.06785074869791667,3.392647637261285,-1.141,-0.3303,0.2346,0.00051,-0.01661,0.02287,0.0009015771211124957,0.0009995289146900177,0.0008572414517402649,0.00041296740528196096,0.0004996439092792571,0.0005212740506976843,0.011521042324602604,0.009093786589801311,0.011657471768558025,passive,0
2.221,rehab,safe_near_limit_fast,18.005803429625747,-666.6327414536553,313.4307862624247,-177.66999465838703,0.3032268969853511,-149.78018153747925,39.2043,-0.1261,-29.7878,64.1165,0.2021,-113.9277,78.99144767534615,26.914498357489556,81.89120604260133,-20.391192966037327,-88.98165384928386,-41.24490525987413,3.5370877709719215,1.4692514249593904,3.091366456286742,-4.6591949462890625,-0.13570149739583334,3.596208360460069,-1.2878,-0.2294,0.1276,-0.01842,9e-05,0.02379,0.0009015771211124957,0.0009995289146900177,0.0008572414517402649,0.00041296740528196096,0.0004996439092792571,0.0005212740506976843,0.011521042324602604,0.009093786589801311,0.011657471768558025,passive,0
2.2409,rehab,safe_near_limit_fast,18.683623790093847,-666.6324604537903,312.9062842779321,-177.67055681909625,0.303658173413614,-149.78067699567464,41.8336,-0.0974,-32.7279,81.5278,0.9087,-116.8558,79.05039041349204,26.939496333056155,81.94108641973817,-20.467173258463543,-88.98307800292969,-41.1863284640842,3.64592448319539,1.686918050935953,3.1632534820254485,-4.888729519314236,-0.06785074869791667,3.799769083658854,-1.1686,-0.3205,-0.2367,-0.02221,-0.00776,0.02114,0.0009015771211124957,0.0009995289146900177,0.0008572414517402649,0.00041296740528196096,0.0004996439092792571,0.0005212740506976843,0.011521042324602604,0.009093786589801311,0.011657471768558025,passive,0
2.261,rehab,safe_near_limit_fast,19.372263072984822,-666.6357812164667,312.354691428408,-177.67060642971103,0.3036515211411902,-149.78211051261724,43.888,-0.0298,-35.2674,107.6773,1.6461,-129.7648,79.11035292219407,26.966261910920096,81.99305392727993,-20.547739664713543,-88.98453606499565,-41.12584431966146,3.754754396948484,1.686918050935953,3.247642894782642,-5.212766859266493,-0.13570149739583334,4.071180555555555,-1.3446,-0.4325,-0.792,-0.02736,-0.00891,0.02391,0.0009015771211124957,0.0009995289146900177,0.0008572414517402649,0.00041296740528196096,0.0004996439092792571,0.0005212740506976843,0.011521042324602604,0.009093786589801311,0.011657471768558025,passive,0
2.2811,rehab,safe_near_limit_fast,20.43341393129104,-666.6386736388174,311.4799897567414,-177.67048763116767,0.3034492683079001,-149.78472183648427,45.8524,0.0165,-37.7247,119.6745,1.924,-138.8533,79.20274413458192,27.008623179822866,82.07570973009166,-20.675862630208332,-88.98679945203993,-41.03229098849826,3.9724210229250465,1.8501697200359684,3.5979612747041307,-5.6224822998046875,-0.06785074869791667,4.0033213297526045,-1.2863,-0.5963,-1.017,-0.0327,-0.00463,0.02167,0.0009015771211124957,0.0009995289146900177,0.0008572414517402649,0.00041296740528196096,0.0004996439092792571,0.0005212740506976843,0.011521042324602604,0.009093786589801311,0.011657471768558025,passive,0
2.3013,rehab,safe_near_limit_fast,21.17656167399614,-666.6402456501352,310.8691828772677,-177.66974170338003,0.3027580631445267,-149.7847557907512,47.8691,0.0309,-40.274,99.4735,1.2093,-127.5875,79.2674451771349,27.038312099947788,82.13357830991839,-20.766398111979168,-88.98831685384114,-40.96857706705729,4.135672692025062,1.9045846769125154,3.7221285376218285,-5.672649807400173,-0.0,3.9354705810546875,-1.4929,-0.4397,-0.5796,-0.04754,0.00358,0.02323,0.0009015771211124957,0.0009995289146900177,0.0008572414517402649,0.00041296740528196096,0.0004996439092792571,0.0005212740506976843,0.011521042324602604,0.009093786589801311,0.011657471768558025,passive,0
2.3213,rehab,safe_near_limit_fast,22.540750060453473,-666.6357921373681,309.72667065013025,-177.6696210184276,0.30261634831164436,-149.7829239427416,50.4456,0.0457,-43.313,58.176,-0.1685,-99.0977,79.38611247751972,27.09360405950263,82.24162639957844,-20.933456420898438,-88.99101257324219,-40.85362752278646,4.353339318001624,1.9589996337890625,3.9720946963470762,-5.949656168619792,-0.13570149739583334,4.139031304253472,-1.3394,-0.3445,-0.7232,-0.03488,0.00433,0.02478,0.0009015771211124957,0.0009995289146900177,0.0008572414517402649,0.00041296740528196096,0.0004996439092792571,0.0005212740506976843,0.011521042324602604,0.009093786589801311,0.011657471768558025,passive,0
2.341,rehab,safe_near_limit_fast,23.327530765354975,-666.630263137716,309.045020296038,-177.669682012302,0.30265952387387235,-149.7818304127538,51.8096,0.0663,-45.3749,19.8836,-1.2244,-68.2475,79.45452548489712,27.12648826070351,82.30621186813505,-21.032884385850693,-88.99254692925346,-40.78742980957031,4.244502605778156,2.122251302889078,4.0860166644105815,-6.259731716579861,-0.06785074869791667,4.206882052951388,-1.3167,-0.3721,-0.4384,-0.02551,-0.00255,0.03175,0.0009015771211124957,0.0009995289146900177,0.0008572414517402649,0.00041296740528196096,0.0004996439092792571,0.0005212740506976843,0.011521042324602604,0.009093786589801311,0.011657471768558025,passive,0
2.3613,rehab,safe_near_limit_fast,24.511410207138486,-666.6290555475563,307.9938544381594,-177.66907144911522,0.30209778020919514,-149.78171821650488,52.3502,0.0377,-47.182,-6.8126,-1.3996,-44.5104,79.55762428812461,27.17840817895266,82.40429340022625,-21.186820136176216,-88.99491204155815,-40.68617926703559,4.353339318001624,2.2855029719890934,4.091978922928914,-6.575342814127604,-0.06785074869791667,4.206882052951388,-1.3276,-0.3921,-1.1283,-0.02026,-0.01134,0.03509,0.0009015771211124957,0.0009995289146900177,0.0008572414517402649,0.00041296740528196096,0.0004996439092792571,0.0005212740506976843,0.011521042324602604,0.009093786589801311,0.011657471768558025,passive,0
2.3809,rehab,safe_near_limit_fast,25.308609953764126,-666.6338263736852,307.26321514255307,-177.66878380113843,0.3018543311632486,-149.78123843918158,50.853,-0.0425,-46.9408,-24.171,-0.9406,-25.9629,79.62715224464341,27.21549383484491,82.47084362672106,-21.292911105685764,-88.99647182888455,-40.61832851833767,4.298924361125077,2.3943328857421875,4.209442894057472,-6.696887546115451,-0.13570149739583334,4.274732801649305,-1.326,-0.4222,-0.4034,-0.03026,-0.00618,0.02897,0.0009015771211124957,0.0009995289146900177,0.0008572414517402649,0.00041296740528196096,0.0004996439092792571,0.0005212740506976843,0.011521042324602604,0.009093786589801311,0.011657471768558025,passive,0
2.4013,rehab,safe_near_limit_fast,26.529333635154913,-666.6347254202896,306.1196265784958,-177.6704621372768,0.3032664413571163,-149.77943612035202,48.4653,-0.1107,-45.9117,-36.2969,-0.3669,-9.9861,79.73353470906173,27.273491585608756,82.57413958558942,-21.455154418945312,-88.99884541829427,-40.51558600531684,4.190087648901609,2.3943328857421875,4.406054657284576,-6.729024251302083,-0.06785074869791667,4.410442776150173,-1.2116,-0.308,-0.8988,-0.0052,-0.00873,0.03289,0.0009015771211124957,0.0009995289146900177,0.0008572414517402649,0.00041296740528196096,0.0004996439092792571,0.0005212740506976843,0.011521042324602604,0.009093786589801311,0.011657471768558025,passive,0
2.4213,rehab,safe_near_limit_fast,27.34365958985191,-666.633252620339,305.33689384878164,-177.67203023952212,0.3046453079379319,-149.77777850900617,47.8126,-0.0949,-46.0572,-37.6959,0.2715,-4.3686,79.80447674741839,27.313276234239634,82.64452414937539,-21.56531439887153,-89.00036282009549,-40.44754876030816,4.625420900854734,2.503169597965656,4.4741277411432545,-6.992594401041666,-0.06785074869791667,4.410442776150173,-1.5462,-0.4092,-1.0133,-0.04085,-0.00494,0.02469,0.0009015771211124957,0.0009995289146900177,0.0008572414517402649,0.00041296740528196096,0.0004996439092792571,0.0005212740506976843,0.011521042324602604,0.009093786589801311,0.011657471768558025,passive,0
2.4413,rehab,safe_near_limit_fast,28.54228888197657,-666.6386355620139,304.1631870885621,-177.67230427181838,0.30482998040739845,-149.7771256950792,48.1321,-0.0228,-46.8635,-26.3637,1.1804,-11.943,79.90907121412825,27.37402056703473,82.74941774878171,-21.73373752170139,-89.00271945529514,-40.34550984700521,4.462176030225093,2.448754641089109,4.293104870484607,-6.9937896728515625,-0.13570149739583334,4.342592027452257,-1.3513,-0.3007,-1.0563,-0.01566,0.00536,0.03172,0.0009015771211124957,0.0009995289146900177,0.0008572414517402649,0.00041296740528196096,0.0004996439092792571,0.0005212740506976843,0.011521042324602604,0.009093786589801311,0.011657471768558025,passive,0
2.4611,rehab,safe_near_limit_fast,29.332662311725247,-666.6428602127022,303.3862090733272,-177.67145648582513,0.30403592126592444,-149.7770196002976,48.9893,0.0378,-48.1848,0.3149,1.835,-39.7938,79.97807568842822,27.41450545811417,82.81896610071163,-21.84699164496528,-89.00431315104167,-40.27788798014323,4.244502605778156,2.448754641089109,4.406802489025758,-7.170198228624132,-0.06785074869791667,4.342592027452257,-1.427,-0.2659,-1.3474,-0.02263,-0.00123,0.03423,0.0009015771211124957,0.0009995289146900177,0.0008572414517402649,0.00041296740528196096,0.0004996439092792571,0.0005212740506976843,0.011521042324602604,0.009093786589801311,0.011657471768558025,passive,0
2.4809,rehab,safe_near_limit_fast,30.119702235260323,-666.6417221254025,302.6032497140115,-177.6708257296336,0.3034923798798615,-149.7773454147501,48.428,0.0561,-48.3593,17.7086,1.5936,-63.1047,80.04671304532798,27.45489517060837,82.88961580484221,-21.960923936631943,-89.00585598415799,-40.210206773546005,4.4077542748781715,2.3943328857421875,4.468852128132735,-7.19819810655382,-0.06785074869791667,4.274732801649305,-1.5153,-0.3593,-1.3712,-0.03985,0.00153,0.03095,0.0009015771211124957,0.0009995289146900177,0.0008572414517402649,0.00041296740528196096,0.0004996439092792571,0.0005212740506976843,0.011521042324602604,0.009093786589801311,0.011657471768558025,passive,0
2.5014,rehab,safe_near_limit_fast,31.301258504423586,-666.6323773795604,301.4237376605304,-177.6697225495374,0.3026326887561942,-149.776973580888,48.2417,0.0619,-49.3016,6.5728,0.5947,-64.0753,80.14964868526647,27.515285982943997,82.99689566734993,-22.13305155436198,-89.00807698567708,-40.10957505967882,4.190087648901609,2.448754641089109,4.424260960947169,-7.181888156467013,-0.06785074869791667,4.0033213297526045,-1.534,-0.3016,-0.8226,-0.0282,0.01477,0.02961,0.0009015771211124957,0.0009995289146900177,0.0008572414517402649,0.00041296740528196096,0.0004996439092792571,0.0005212740506976843,0.011521042324602604,0.009093786589801311,0.011657471768558025,passive,0
2.5214,rehab,safe_near_limit_fast,32.08776687759059,-666.6280763646331,300.63191190720306,-177.669214027226,0.3021951136654357,-149.77491597554388,47.8235,0.0824,-50.1774,-20.4211,-0.3273,-48.1126,80.21821125899211,27.556471116472,83.06783090723623,-22.247823079427082,-89.00955200195312,-40.0443606906467,4.135672692025062,2.6664212670656715,4.354590236550511,-7.194425794813368,-0.20355224609375,3.9354705810546875,-1.5134,-0.4109,-1.6137,-0.02918,0.01424,0.03435,0.0009015771211124957,0.0009995289146900177,0.0008572414517402649,0.00041296740528196096,0.0004996439092792571,0.0005212740506976843,0.011521042324602604,0.009093786589801311,0.011657471768558025,passive,0
2.5421,rehab,safe_near_limit_fast,33.42867776993911,-666.6310774867526,299.2342037895846,-177.66889115034195,0.3019007016465441,-149.77242054537652,48.4604,0.0695,-52.5068,-60.3884,-0.8912,-15.689,80.33529451577971,27.63108432883083,83.18981586116375,-22.44826422797309,-89.01209513346355,-39.932030571831596,4.026835979801594,2.61199951171875,4.333290628867574,-7.233632405598958,-0.0,4.0033213297526045,-1.6219,-0.3537,-1.3221,-0.04093,0.00286,0.0323,0.0009015771211124957,0.0009995289146900177,0.0008572414517402649,0.00041296740528196096,0.0004996439092792571,0.0005212740506976843,0.011521042324602604,0.009093786589801311,0.011657471768558025,passive,0
2.5612,rehab,safe_near_limit_fast,34.15880713541233,-666.6335260971227,298.4130431208267,-177.6704042880842,0.30312889850103636,-149.77226604330073,48.3555,0.0215,-53.9627,-86.0182,-1.1254,8.9944,80.39908456330252,27.675342370968053,83.26005085860149,-22.562696668836804,-89.01351081000433,-39.86968994140625,3.809169353825031,2.7208362239422184,4.334677516823948,-7.003936767578125,-0.06785074869791667,3.8676198323567705,-1.5978,-0.2403,-0.8209,-0.0415,0.00365,0.03609,0.0009015771211124957,0.0009995289146900177,0.0008572414517402649,0.00041296740528196096,0.0004996439092792571,0.0005212740506976843,0.011521042324602604,0.009093786589801311,0.011657471768558025,passive,0
2.5813,rehab,safe_near_limit_fast,35.203666351864165,-666.6327672370232,297.18519707999,-177.67258584004543,0.30503423787241507,-149.77432314044634,44.917,-0.0149,-52.2057,-97.1938,-1.0906,26.3306,80.49032683419709,27.741185556543936,83.36567869280825,-22.73403591579861,-89.01546054416232,-39.77832370334201,3.754754396948484,2.6664212670656715,4.370682215926671,-7.112850613064236,-0.06785074869791667,3.799769083658854,-1.4334,-0.3171,-1.3583,-0.02281,0.00894,0.03276,0.0009015771211124957,0.0009995289146900177,0.0008572414517402649,0.00041296740528196096,0.0004996439092792571,0.0005212740506976843,0.011521042324602604,0.009093786589801311,0.011657471768558025,passive,0
2.6013,rehab,safe_near_limit_fast,35.871944929472654,-666.6318089150599,296.38374108654887,-177.672868230246,0.3052947564222825,-149.77588517371322,42.4467,-0.016,-51.0764,-104.8734,-0.7439,41.2657,80.54869850083153,27.78417908319152,83.43518625391592,-22.847925821940105,-89.0167236328125,-39.71967061360677,3.64592448319539,2.7208362239422184,4.2808472283995975,-7.0522816975911455,-0.13570149739583334,3.596208360460069,-1.5345,-0.2997,-1.161,-0.04103,0.00396,0.03252,0.0009015771211124957,0.0009995289146900177,0.0008572414517402649,0.00041296740528196096,0.0004996439092792571,0.0005212740506976843,0.011521042324602604,0.009093786589801311,0.011657471768558025,passive,0
2.6209,rehab,safe_near_limit_fast,36.8420690654598,-666.6325856592001,295.2024997331794,-177.67157067477885,0.30418660411360315,-149.77775637972596,39.0646,-0.0113,-48.5842,-99.4122,-0.12,45.9158,80.63349582181118,27.847955533773593,83.53785675350983,-23.01863776312934,-89.01858859592014,-39.63491651746962,3.5370877709719215,2.61199951171875,4.32630180132271,-7.000952826605903,-0.06785074869791667,3.4604983859592013,-1.5426,-0.38,-1.0332,-0.04727,0.003,0.02984,0.0009015771211124957,0.0009995289146900177,0.0008572414517402649,0.00041296740528196096,0.0004996439092792571,0.0005212740506976843,0.011521042324602604,0.009093786589801311,0.011657471768558025,passive,0
2.6412,rehab,safe_near_limit_fast,37.47095688727554,-666.6329093881047,294.42285732174753,-177.66988168940497,0.3027229664676277,-149.77871645376777,37.0835,-0.0322,-47.5058,-76.5469,0.4209,32.1849,80.68848185019918,27.890140042446628,83.60591624042776,-23.132765028211804,-89.01981777615018,-39.58024766710069,3.373836101871906,2.7752511808187657,4.3426453241027225,-7.029936048719618,-0.13570149739583334,3.4604983859592013,-1.5856,-0.2596,-0.9681,-0.03994,0.0103,0.03008,0.0009015771211124957,0.0009995289146900177,0.0008572414517402649,0.00041296740528196096,0.0004996439092792571,0.0005212740506976843,0.011521042324602604,0.009093786589801311,0.011657471768558025,passive,0
2.6611,rehab,safe_near_limit_fast,38.418707117916675,-666.6298208132541,293.21482072939864,-177.670685306878,0.3034079186434646,-149.77748982347464,37.433,-0.0306,-48.8417,-41.3867,0.5172,3.3294,80.77127362241839,27.955901646378017,83.7091578115331,-23.303112453884548,-89.02149624294705,-39.50059678819444,3.5370877709719215,2.8296661376953125,4.330380883547339,-6.9535064697265625,-0.13570149739583334,3.2569376627604165,-1.4983,-0.284,-1.1537,-0.04729,0.02158,0.03421,0.0009015771211124957,0.0009995289146900177,0.0008572414517402649,0.00041296740528196096,0.0004996439092792571,0.0005212740506976843,0.011521042324602604,0.009093786589801311,0.011657471768558025,passive,0
2.681,rehab,safe_near_limit_fast,39.02984791211142,-666.6306364982714,292.39867343890296,-177.67175626163095,0.3042933687267693,-149.77731808668588,37.089,0.0126,-49.1532,-14.2675,0.3427,-18.2864,80.8247163980314,28.00090752025642,83.77778157149211,-23.416917588975693,-89.02258978949652,-39.448606703016495,3.428251058748453,2.8296661376953125,4.277339217686417,-7.090267605251736,-0.06785074869791667,3.0533854166666665,-1.486,-0.1809,-1.1629,-0.02534,0.01015,0.03336,0.0009015771211124957,0.0009995289146900177,0.0008572414517402649,0.00041296740528196096,0.0004996439092792571,0.0005212740506976843,0.011521042324602604,0.009093786589801311,0.011657471768558025,passive,0
2.7011,rehab,safe_near_limit_fast,39.62539232199259,-666.6360709350402,291.5862498428083,-177.67226404217797,0.3047689152254761,-149.77807130412327,36.9426,0.041,-49.5066,1.9348,0.1836,-31.6104,80.87686746427329,28.046382488590655,83.84530397925046,-23.530773586697048,-89.0236324734158,-39.396981133355034,3.319421144995359,2.7752511808187657,3.969810410301284,-7.349183824327257,-0.06785074869791667,3.2569376627604165,-1.5826,-0.3434,-1.5044,-0.04295,0.01812,0.03603,0.0009015771211124957,0.0009995289146900177,0.0008572414517402649,0.00041296740528196096,0.0004996439092792571,0.0005212740506976843,0.011521042324602604,0.009093786589801311,0.011657471768558025,passive,0
2.7212,rehab,safe_near_limit_fast,40.4957323790299,-666.6378219318544,290.3870643025498,-177.6723094312948,0.3047545646802545,-149.77875697107717,37.0711,0.0247,-50.2604,6.3942,-0.0086,-32.1241,80.9530239294071,28.113000699789218,83.9462136750174,-23.70052761501736,-89.02523464626736,-39.32204352484809,3.2105844327718907,2.7752511808187657,4.219450242448561,-7.17378404405382,-0.06785074869791667,3.121236165364583,-1.5264,-0.338,-0.7716,-0.03964,-0.00109,0.02805,0.0009015771211124957,0.0009995289146900177,0.0008572414517402649,0.00041296740528196096,0.0004996439092792571,0.0005212740506976843,0.011521042324602604,0.009093786589801311,0.011657471768558025,passive,0
2.7418,rehab,safe_near_limit_fast,41.2211408523712,-666.6329872846189,289.4068963072664,-177.67083729161095,0.30351295527698985,-149.77908159253528,37.0387,-0.0062,-50.7358,-9.4258,-0.4869,-9.1485,81.0164196656482,28.166953360680306,84.030283559667,-23.84234110514323,-89.02655707465277,-39.25990634494357,2.992917806795328,2.557584554842203,4.248112593546952,-7.125600179036458,-0.06785074869791667,3.121236165364583,-1.5194,-0.2226,-0.6114,-0.05881,0.00735,0.02634,0.0009015771211124957,0.0009995289146900177,0.0008572414517402649,0.00041296740528196096,0.0004996439092792571,0.0005212740506976843,0.011521042324602604,0.009093786589801311,0.011657471768558025,passive,0
2.7611,rehab,safe_near_limit_fast,42.113173894349174,-666.6255124628286,288.223083628198,-177.67005855226049,0.3028285981584233,-149.7761641635353,36.5608,-0.0152,-50.5547,-22.74,-0.8407,11.1013,81.09434373307936,28.232701367670945,84.13049301298538,-24.011527167426216,-89.02810838487413,-39.186791314019096,3.2650061881188117,2.6664212670656715,4.096833030776222,-7.207955254448785,-0.06785074869791667,3.121236165364583,-1.581,-0.3508,-0.9883,-0.05747,0.0021,0.03109,0.0009015771211124957,0.0009995289146900177,0.0008572414517402649,0.00041296740528196096,0.0004996439092792571,0.0005212740506976843,0.011521042324602604,0.009093786589801311,0.011657471768558025,passive,0
2.781,rehab,safe_near_limit_fast,42.70052409413689,-666.6276679125199,287.4293494405803,-177.66946602355168,0.3023569786175124,-149.77464065916618,36.3193,-0.0147,-50.5476,-26.812,-0.5643,22.2248,81.14575376605043,28.277917994130956,84.19593508880918,-24.12439982096354,-89.02910868326823,-39.13816663953993,2.992917806795328,2.7752511808187657,4.047496531269338,-7.001766628689236,-0.06785074869791667,3.121236165364583,-1.653,-0.2737,-1.7533,-0.0419,0.01297,0.03758,0.0009015771211124957,0.0009995289146900177,0.0008572414517402649,0.00041296740528196096,0.0004996439092792571,0.0005212740506976843,0.011521042324602604,0.009093786589801311,0.011657471768558025,passive,0
2.8012,rehab,safe_near_limit_fast,43.55341117453899,-666.6339696305544,286.220966906033,-177.6698746534549,0.3027231607603833,-149.7759376311535,36.2286,-0.028,-50.6626,-23.9109,0.0321,25.7187,81.22047575393526,28.347466346060877,84.29389424843363,-24.29357740614149,-89.03062608506944,-39.06404283311632,3.047339562142249,2.884087893042234,4.085051281617419,-7.204004923502604,-0.06785074869791667,3.121236165364583,-1.5281,-0.3663,-1.3469,-0.04285,-0.00184,0.02924,0.0009015771211124957,0.0009995289146900177,0.0008572414517402649,0.00041296740528196096,0.0004996439092792571,0.0005212740506976843,0.011521042324602604,0.009093786589801311,0.011657471768558025,passive,0
2.8209,rehab,safe_near_limit_fast,44.11070135747551,-666.6372259164311,285.40544189644,-177.67093473788776,0.3035768648220716,-149.7776457014122,35.0156,-0.0512,-49.1235,-7.6544,0.3207,12.0574,81.26930236816406,28.39455255187384,84.35945869672416,-24.406339857313366,-89.03165181477864,-39.01477389865451,2.992917806795328,3.047339562142249,4.132123890489635,-6.925379435221354,-0.0,3.1890869140625,-1.6525,-0.5598,-1.6402,-0.05782,0.01275,0.03028,0.0009015771211124957,0.0009995289146900177,0.0008572414517402649,0.00041296740528196096,0.0004996439092792571,0.0005212740506976843,0.011521042324602604,0.009093786589801311,0.011657471768558025,passive,0
2.8412,rehab,safe_near_limit_fast,44.67242137470325,-666.6360579499365,284.59759873475355,-177.67166201858691,0.304171793886164,-149.77880097734288,34.0941,-0.0413,-47.8181,11.0825,0.3802,-4.379,81.31845530897084,28.44091811982712,84.4250503388962,-24.518822564019096,-89.03266059027777,-38.96572536892361,2.938502849918781,3.047339562142249,4.0840111156501395,-6.940341525607638,-0.06785074869791667,2.9176754421657987,-1.7232,-0.4826,-1.4305,-0.05329,0.02568,0.03113,0.0009015771211124957,0.0009995289146900177,0.0008572414517402649,0.00041296740528196096,0.0004996439092792571,0.0005212740506976843,0.011521042324602604,0.009093786589801311,0.011657471768558025,passive,0
2.8612,rehab,safe_near_limit_fast,45.528241803687955,-666.6365912637897,283.3984499726047,-177.67162002898743,0.30414680745017375,-149.77964362516227,34.671,0.0105,-48.3119,18.5336,0.4948,-6.8468,81.39337445249652,28.51051406104966,84.52178577385327,-24.687406751844616,-89.03418646918402,-38.891847398546005,3.2650061881188117,2.938502849918781,4.045463788627398,-6.961305406358507,-0.06785074869791667,3.121236165364583,-1.7,-0.4848,-1.373,-0.05554,0.01598,0.02816,0.0009015771211124957,0.0009995289146900177,0.0008572414517402649,0.00041296740528196096,0.0004996439092792571,0.0005212740506976843,0.011521042324602604,0.009093786589801311,0.011657471768558025,passive,0
2.8814,rehab,safe_near_limit_fast,46.40728977599168,-666.6342806551422,282.21723599792335,-177.6702431441997,0.30305302885717766,-149.7791045469988,35.8494,0.0348,-49.3805,25.0703,0.4832,-11.9669,81.4702855478419,28.579375767471767,84.61731787955407,-24.85577901204427,-89.03572930230034,-38.81735059950087,3.2650061881188117,2.8296661376953125,3.952494706257735,-6.953379313151041,-0.06785074869791667,3.1890869140625,-1.5326,-0.3094,-0.6249,-0.01952,0.00108,0.03265,0.0009015771211124957,0.0009995289146900177,0.0008572414517402649,0.00041296740528196096,0.0004996439092792571,0.0005212740506976843,0.011521042324602604,0.009093786589801311,0.011657471768558025,passive,0
2.9014,rehab,safe_near_limit_fast,46.99670314661492,-666.6313173163743,281.4227578608348,-177.67000823170542,0.30287294249888486,-149.77834889505172,37.5041,0.0074,-51.099,37.487,0.1552,-29.8792,81.52183834869082,28.625904498714032,84.68095836072865,-24.96771918402778,-89.03675503200955,-38.767801920572914,3.1561694758953434,2.938502849918781,3.9127780423306002,-6.841456095377604,-0.06785074869791667,3.121236165364583,-1.6238,-0.4067,-1.5818,-0.03968,0.00015,0.03157,0.0009015771211124957,0.0009995289146900177,0.0008572414517402649,0.00041296740528196096,0.0004996439092792571,0.0005212740506976843,0.011521042324602604,0.009093786589801311,0.011657471768558025,passive,0
2.9211,rehab,safe_near_limit_fast,47.587756638825184,-666.6314584170685,280.62543703567115,-177.66986102781857,0.3027406128742009,-149.77761503376624,38.5244,-0.007,-51.9731,42.4051,-0.3192,-40.2805,81.57358150671024,28.67324904640122,84.74378302545831,-25.079566107855904,-89.03780619303386,-38.718041314019096,3.2650061881188117,3.047339562142249,3.917625351707534,-7.076831393771701,-0.06785074869791667,3.2569376627604165,-1.8143,-0.4313,-1.8656,-0.05659,0.01731,0.04034,0.0009015771211124957,0.0009995289146900177,0.0008572414517402649,0.00041296740528196096,0.0004996439092792571,0.0005212740506976843,0.011521042324602604,0.009093786589801311,0.011657471768558025,passive,0
2.9412,rehab,safe_near_limit_fast,48.478494296487575,-666.6318723691454,279.40707755775003,-177.67127764895915,0.3038726727900623,-149.77717367933988,37.6123,0.0139,-50.2938,30.0991,-0.5103,-27.3806,81.65156676037476,28.74621023045908,84.8380982049621,-25.247277153862846,-89.03939141167534,-38.642374674479164,3.373836101871906,2.992917806795328,3.811881943504409,-6.923616197374132,-0.0,3.1890869140625,-1.6809,-0.4749,-1.5646,-0.06041,0.01158,0.0268,0.0009015771211124957,0.0009995289146900177,0.0008572414517402649,0.00041296740528196096,0.0004996439092792571,0.0005212740506976843,0.011521042324602604,0.009093786589801311,0.011657471768558025,passive,0
2.9613,rehab,safe_near_limit_fast,49.222627297200376,-666.6368542970406,278.3915923125241,-177.6721645388326,0.3045409734163266,-149.77643790408698,37.6632,0.0064,-50.2714,9.6469,-0.0207,-2.5638,81.7167844866762,28.80801512463258,84.91531523147432,-25.38705613878038,-89.04073927137587,-38.57945760091146,3.2650061881188117,3.047339562142249,3.8223175955290842,-6.901151869032118,-0.06785074869791667,3.1890869140625,-1.693,-0.3918,-1.2412,-0.05735,0.00559,0.03459,0.0009015771211124957,0.0009995289146900177,0.0008572414517402649,0.00041296740528196096,0.0004996439092792571,0.0005212740506976843,0.011521042324602604,0.009093786589801311,0.011657471768558025,passive,0
2.9811,rehab,safe_near_limit_fast,50.12189800765008,-666.6386142170167,277.19343270673596,-177.67190567361774,0.30440712666870473,-149.77623164452615,38.8702,-0.0323,-52.0756,-8.9618,0.6361,20.4492,81.79553796749303,28.880949114808942,85.00710137999884,-25.554334852430554,-89.04229905870226,-38.50277370876736,3.2650061881188117,2.884087893042234,3.7979994669999226,-6.821297539605035,-0.06785074869791667,3.1890869140625,-1.7196,-0.3281,-1.3466,-0.04382,0.01261,0.03994,0.0009015771211124957,0.0009995289146900177,0.0008572414517402649,0.00041296740528196096,0.0004996439092792571,0.0005212740506976843,0.011521042324602604,0.009093786589801311,0.011657471768558025,passive,0
3.001,rehab,safe_near_limit_fast,50.73162659206812,-666.6343785136365,276.4090987827559,-177.6706358372877,0.3034037702076028,-149.77534793977628,39.2265,-0.0303,-52.4818,-17.1822,0.6181,30.8607,81.84887196758005,28.92836844567025,85.06830121030902,-25.666088528103298,-89.04337565104167,-38.4515635172526,3.319421144995359,2.938502849918781,3.8674458418742264,-6.863513522677951,-0.06785074869791667,3.1890869140625,-1.8149,-0.5423,-2.1399,-0.06464,0.01663,0.03802,0.0009015771211124957,0.0009995289146900177,0.0008572414517402649,0.00041296740528196096,0.0004996439092792571,0.0005212740506976843,0.011521042324602604,0.009093786589801311,0.011657471768558025,passive,0
3.021,rehab,safe_near_limit_fast,51.63407666933944,-666.6290018893201,275.23274223213735,-177.6690598667879,0.30213226475874133,-149.77568500797113,38.6526,0.0116,-51.2381,-9.5675,0.0962,24.1344,81.92784299944887,28.99999712953473,85.15920355768488,-25.832934909396702,-89.04503716362846,-38.374108208550346,3.2650061881188117,3.1561694758953434,3.809502478873376,-6.828477647569445,-0.06785074869791667,3.2569376627604165,-1.8335,-0.4168,-1.7252,-0.06507,0.01708,0.03704,0.0009015771211124957,0.0009995289146900177,0.0008572414517402649,0.00041296740528196096,0.0004996439092792571,0.0005212740506976843,0.011521042324602604,0.009093786589801311,0.011657471768558025,passive,0
3.0413,rehab,safe_near_limit_fast,52.23351271293669,-666.6314830239575,274.41832877565867,-177.67021163707824,0.3030551781878146,-149.77663713834755,37.5249,0.0666,-49.2728,-2.4149,-0.0314,23.7083,81.98037478003171,29.050734113938738,85.21925444650178,-25.943790011935764,-89.04613918728299,-38.32186381022135,3.1017545190187965,3.2105844327718907,3.684274654577274,-6.9008636474609375,-0.0,3.392647637261285,-1.7797,-0.2762,-1.5761,-0.04948,0.00577,0.04164,0.0009015771211124957,0.0009995289146900177,0.0008572414517402649,0.00041296740528196096,0.0004996439092792571,0.0005212740506976843,0.011521042324602604,0.009093786589801311,0.011657471768558025,passive,0
3.0612,rehab,safe_near_limit_fast,53.1392451569304,-666.6371377842142,273.1873347068459,-177.6723345158063,0.30469898688666835,-149.77802583019047,36.9702,0.0775,-48.1817,-1.8708,0.276,32.9407,82.05978091400449,29.12818228844369,85.30869512274714,-26.11032274034288,-89.04784308539496,-38.24293348524306,3.2650061881188117,3.2105844327718907,3.89954142051168,-6.706322564019097,-0.13570149739583334,3.392647637261285,-1.654,-0.4144,-1.3053,-0.06508,0.00351,0.03539,0.0009015771211124957,0.0009995289146900177,0.0008572414517402649,0.00041296740528196096,0.0004996439092792571,0.0005212740506976843,0.011521042324602604,0.009093786589801311,0.011657471768558025,passive,0
3.0813,rehab,safe_near_limit_fast,53.757641912325894,-666.6362855155479,272.3740221646161,-177.67343897528522,0.30556768396758016,-149.77803476312997,37.1256,0.0146,-48.0246,9.6202,0.1159,22.8495,82.11393073053644,29.17925239789604,85.3681477461711,-26.220999823676216,-89.04897054036458,-38.190010918511284,3.428251058748453,3.1017545190187965,3.741184650081219,-6.802232530381945,-0.0,3.4604983859592013,-1.9487,-0.4776,-1.6923,-0.07155,0.01872,0.03904,0.0009015771211124957,0.0009995289146900177,0.0008572414517402649,0.00041296740528196096,0.0004996439092792571,0.0005212740506976843,0.011521042324602604,0.009093786589801311,0.011657471768558025,passive,0
3.1013,rehab,safe_near_limit_fast,54.714000563009336,-666.6301753820718,271.1890572110446,-177.6724988692414,0.30487150148598724,-149.77667223080843,38.422,-0.0403,-48.9666,34.8416,-0.6714,-9.4177,82.19760630390432,29.253743237788132,85.45592279717474,-26.386803521050346,-89.05066596137152,-38.109537760416664,3.5915027278484684,3.1017545190187965,3.6208041351620515,-6.67234632703993,-0.06785074869791667,3.324796888563368,-1.7102,-0.4322,-1.2853,-0.05262,0.00557,0.03195,0.0009015771211124957,0.0009995289146900177,0.0008572414517402649,0.00041296740528196096,0.0004996439092792571,0.0005212740506976843,0.011521042324602604,0.009093786589801311,0.011657471768558025,passive,0
3.1211,rehab,safe_near_limit_fast,55.34907076839488,-666.6278377095714,270.40626762733314,-177.67125655092906,0.3038968522617987,-149.776364939194,39.7945,-0.025,-49.6511,56.8074,-1.3007,-38.5717,82.25320419462601,29.30342645928411,85.51348544583462,-26.497217814127602,-89.05183580186632,-38.05547078450521,3.5915027278484684,3.047339562142249,3.530411673064279,-6.852069430881076,-0.06785074869791667,3.324796888563368,-1.7143,-0.4843,-1.6714,-0.05651,0.00883,0.03788,0.0009015771211124957,0.0009995289146900177,0.0008572414517402649,0.00041296740528196096,0.0004996439092792571,0.0005212740506976843,0.011521042324602604,0.009093786589801311,0.011657471768558025,passive,0
3.1409,rehab,safe_near_limit_fast,55.982546915969756,-666.6281872883188,269.6156652750654,-177.67059392816856,0.30333445669815823,-149.77698477971524,40.2107,0.0278,-49.2587,62.4362,-1.1224,-46.7179,82.30870690676245,29.354183839099242,85.57044982910156,-26.60742017957899,-89.05306498209636,-38.000573052300346,3.5370877709719215,3.1561694758953434,3.5740442559270575,-6.89894782172309,-0.06785074869791667,3.528349134657118,-1.6437,-0.3664,-1.5836,-0.04659,0.0218,0.03542,0.0009015771211124957,0.0009995289146900177,0.0008572414517402649,0.00041296740528196096,0.0004996439092792571,0.0005212740506976843,0.011521042324602604,0.009093786589801311,0.011657471768558025,passive,0
3.1614,rehab,safe_near_limit_fast,56.951180229764496,-666.634674907331,268.41446147408914,-177.67041783071852,0.30316537877403904,-149.77812784691068,41.0489,0.0163,-49.8028,51.8316,-0.1804,-33.5872,82.3936401971496,29.432685776512223,85.65441093822517,-26.772596571180554,-89.05493842230902,-37.91633605957031,3.5370877709719215,3.373836101871906,3.5075008279026143,-6.82859632703993,-0.0,3.4604983859592013,-1.6665,-0.3044,-1.3241,-0.05298,0.01677,0.03564,0.0009015771211124957,0.0009995289146900177,0.0008572414517402649,0.00041296740528196096,0.0004996439092792571,0.0005212740506976843,0.011521042324602604,0.009093786589801311,0.011657471768558025,passive,0
3.1813,rehab,safe_near_limit_fast,57.77783966207239,-666.6380877233629,267.4037418773784,-177.67116094403227,0.3037560968302154,-149.77758956504124,42.7944,-0.0603,-51.6985,28.5025,0.5597,-5.1495,82.46608469745901,29.49916121983292,85.72400008097733,-26.90977308485243,-89.05647277832031,-37.845959133572045,3.5370877709719215,3.428251058748453,3.537760819538985,-6.780887179904513,-0.06785074869791667,3.4604983859592013,-1.7294,-0.2626,-1.314,-0.07929,0.02048,0.02873,0.0009015771211124957,0.0009995289146900177,0.0008572414517402649,0.00041296740528196096,0.0004996439092792571,0.0005212740506976843,0.011521042324602604,0.009093786589801311,0.011657471768558025,passive,0
3.2009,rehab,safe_near_limit_fast,58.80217862264311,-666.6352044131534,266.1964353847756,-177.67158084508154,0.304122000347373,-149.77634639762803,44.0477,-0.0936,-52.7314,12.624,0.4745,15.6862,82.55576332016747,29.57857415227607,85.80743090941174,-27.074593438042534,-89.05835469563802,-37.75935702853732,3.7003394400719367,3.373836101871906,3.4979761709081063,-6.967764960394965,-0.06785074869791667,3.4604983859592013,-1.7817,-0.2742,-2.2161,-0.06629,0.01319,0.0385,0.0009015771211124957,0.0009995289146900177,0.0008572414517402649,0.00041296740528196096,0.0004996439092792571,0.0005212740506976843,0.011521042324602604,0.009093786589801311,0.011657471768558025,passive,0
3.2212,rehab,safe_near_limit_fast,59.47961841663422,-666.6306172000945,265.3959167691704,-177.6719716054658,0.3043715849774512,-149.77643639688807,43.7806,-0.0528,-51.7682,5.2975,0.0741,30.2122,82.61505957877282,29.6312147083849,85.8627976521407,-27.183837890625,-89.05968560112846,-37.70118713378906,3.754754396948484,3.319421144995359,3.423430943253017,-6.6617584228515625,-0.06785074869791667,3.596208360460069,-1.7176,-0.4891,-2.1883,-0.06451,0.00383,0.0395,0.0009015771211124957,0.0009995289146900177,0.0008572414517402649,0.00041296740528196096,0.0004996439092792571,0.0005212740506976843,0.011521042324602604,0.009093786589801311,0.011657471768558025,passive,0
3.2412,rehab,safe_near_limit_fast,60.495149044911514,-666.6299233334558,264.1964208076683,-177.67218523279988,0.30458802805190405,-149.77863663348663,43.2564,0.0215,-50.0973,2.1978,0.3011,44.8072,82.70401756362159,29.71130068939511,85.94399858229231,-27.347429063585068,-89.0616438123915,-37.611846923828125,3.7003394400719367,3.482672814095374,3.36038872747138,-7.015465630425347,-0.06785074869791667,3.7319098578559027,-1.7004,-0.3216,-1.7348,-0.05576,0.0123,0.03531,0.0009015771211124957,0.0009995289146900177,0.0008572414517402649,0.00041296740528196096,0.0004996439092792571,0.0005212740506976843,0.011521042324602604,0.009093786589801311,0.011657471768558025,passive,0
3.2609,rehab,safe_near_limit_fast,61.182114561283555,-666.6386733905013,263.40103780062367,-177.67147490396226,0.30403066594242545,-149.78053633704013,42.36,0.0643,-47.9791,19.7345,0.9355,36.803,82.76430639890161,29.765912801912517,85.99581652348584,-27.456537882486977,-89.06303405761719,-37.55087110731337,3.7003394400719367,3.428251058748453,3.2784807564008354,-6.828765869140625,-0.06785074869791667,3.8676198323567705,-1.6039,-0.0635,-1.2833,-0.04449,0.01669,0.03878,0.0009015771211124957,0.0009995289146900177,0.0008572414517402649,0.00041296740528196096,0.0004996439092792571,0.0005212740506976843,0.011521042324602604,0.009093786589801311,0.011657471768558025,passive,0
3.2809,rehab,safe_near_limit_fast,62.244474428358,-666.6405401690854,262.19844741235363,-177.6717504419803,0.30421547458264075,-149.7820248238914,42.5137,0.0279,-46.9519,44.5997,0.9014,14.8831,82.85739785373801,29.847997533212794,86.07441363948406,-27.619586520724827,-89.0651618109809,-37.458106146918404,4.026835979801594,3.373836101871906,3.238315393428991,-6.9540150960286455,-0.06785074869791667,3.799769083658854,-1.6174,-0.2467,-1.4149,-0.0543,0.00856,0.03723,0.0009015771211124957,0.0009995289146900177,0.0008572414517402649,0.00041296740528196096,0.0004996439092792571,0.0005212740506976843,0.011521042324602604,0.009093786589801311,0.011657471768558025,passive,0
3.301,rehab,safe_near_limit_fast,62.9874353925929,-666.6354638868629,261.39537886219887,-177.67216597314163,0.30455900466061486,-149.78118603302906,44.9481,-0.0217,-48.3277,70.6671,0.0333,-13.5901,82.92241162592822,29.902779607489556,86.12689103230392,-27.728135850694443,-89.0665774875217,-37.39513821072048,4.081257735148514,3.482672814095374,3.2610766722424196,-6.972902086046007,-0.06785074869791667,3.8676198323567705,-1.5977,-0.2604,-1.2339,-0.05604,0.00455,0.03313,0.0009015771211124957,0.0009995289146900177,0.0008572414517402649,0.00041296740528196096,0.0004996439092792571,0.0005212740506976843,0.011521042324602604,0.009093786589801311,0.011657471768558025,passive,0
3.3209,rehab,safe_near_limit_fast,63.74706542474004,-666.6295150521807,260.6027500159459,-177.67168584752008,0.30428607112742867,-149.78003619006682,45.3994,-0.0135,-47.6138,84.2709,-0.7304,-33.3455,82.98886667383779,29.957208161306852,86.17854581020846,-27.836625840928818,-89.06797620985243,-37.331034342447914,4.081257735148514,3.319421144995359,3.2131678515141555,-6.878840128580729,-0.06785074869791667,4.139031304253472,-1.7726,-0.3523,-1.0884,-0.07985,0.00503,0.03341,0.0009015771211124957,0.0009995289146900177,0.0008572414517402649,0.00041296740528196096,0.0004996439092792571,0.0005212740506976843,0.011521042324602604,0.009093786589801311,0.011657471768558025,passive,0
3.3424,rehab,safe_near_limit_fast,64.89471261678574,-666.6286533185009,259.4221637620277,-177.6701552319722,0.3031157744523386,-149.77932348967778,49.2819,0.0377,-50.471,85.8101,-0.8549,-36.1851,83.08938205832303,30.03986396411858,86.2533425812674,-27.998843722873264,-89.07025655110677,-37.233030531141495,4.244502605778156,3.5915027278484684,3.1317357733698175,-6.732542249891493,-0.13570149739583334,4.274732801649305,-1.7888,-0.2249,-2.2147,-0.06269,0.02071,0.0386,0.0009015771211124957,0.0009995289146900177,0.0008572414517402649,0.00041296740528196096,0.0004996439092792571,0.0005212740506976843,0.011521042324602604,0.009093786589801311,0.011657471768558025,passive,0
3.3609,rehab,safe_near_limit_fast,65.66948892373527,-666.6324176454377,258.63809691741835,-177.66928667684053,0.3024243742998634,-149.77962200100748,51.807,0.0357,-52.1174,76.6386,-0.3489,-25.9007,83.15729197889272,30.095794979888613,86.30128539434754,-28.105765448676216,-89.07185872395833,-37.16601053873698,4.353339318001624,3.5370877709719215,3.0149788431601947,-6.768408881293403,-0.13570149739583334,4.206882052951388,-1.7208,-0.3365,-1.9494,-0.07519,0.0117,0.03287,0.0009015771211124957,0.0009995289146900177,0.0008572414517402649,0.00041296740528196096,0.0004996439092792571,0.0005212740506976843,0.011521042324602604,0.009093786589801311,0.011657471768558025,passive,0
3.3811,rehab,safe_near_limit_fast,67.05598698516013,-666.6389188550904,257.243491442321,-177.67027708052257,0.30314424195805134,-149.7781541845234,51.0127,-0.0226,-50.3378,34.6994,0.2246,14.93,83.27879424142365,30.19631036437384,86.38370325069616,-28.290879991319443,-89.07466464572482,-37.048043145073784,4.353339318001624,3.428251058748453,2.901831900719369,-6.528896755642361,-0.13570149739583334,4.274732801649305,-1.6283,-0.2462,-1.2456,-0.08227,0.00762,0.02779,0.0009015771211124957,0.0009995289146900177,0.0008572414517402649,0.00041296740528196096,0.0004996439092792571,0.0005212740506976843,0.011521042324602604,0.009093786589801311,0.011657471768558025,passive,0
3.401,rehab,safe_near_limit_fast,67.85422265741721,-666.6364071267172,256.45253935072583,-177.67165205641825,0.304179467012508,-149.77741062974476,51.9978,-0.0528,-50.4579,-4.6804,0.2325,56.518,83.34867571840192,30.253172770585163,86.43035435440517,-28.39463127983941,-89.07627529568143,-36.980065239800346,4.244502605778156,3.373836101871906,2.9213910999864634,-6.645261976453993,-0.13570149739583334,4.274732801649305,-1.5356,-0.1634,-1.4223,-0.04942,0.01383,0.03573,0.0009015771211124957,0.0009995289146900177,0.0008572414517402649,0.00041296740528196096,0.0004996439092792571,0.0005212740506976843,0.011521042324602604,0.009093786589801311,0.011657471768558025,passive,0
3.4212,rehab,safe_near_limit_fast,69.04130894238023,-666.6334496886816,255.3127031118476,-177.671988133799,0.30448002113147854,-149.77807981162556,50.7896,-0.0304,-48.0633,-29.2775,0.1033,84.9248,83.45261073348546,30.335964542804376,86.49702015489635,-28.546600341796875,-89.07869974772136,-36.87715318467882,4.298924361125077,3.428251058748453,2.734351583046488,-6.194898817274305,-0.13570149739583334,4.342592027452257,-1.4854,-0.1441,-1.7827,-0.04376,0.01013,0.03709,0.0009015771211124957,0.0009995289146900177,0.0008572414517402649,0.00041296740528196096,0.0004996439092792571,0.0005212740506976843,0.011521042324602604,0.009093786589801311,0.011657471768558025,passive,0
3.442,rehab,safe_near_limit_fast,69.83131171631045,-666.6320145768057,254.585908143448,-177.67075482558366,0.30351110425182,-149.77922570353147,50.8935,0.0128,-46.9495,-44.3778,0.2746,107.5798,83.52179876648553,30.38938012453589,86.53923865592125,-28.64579094780816,-89.08041212293837,-36.807920667860245,4.353339318001624,3.319421144995359,2.6631376058748453,-6.0036468505859375,-0.13570149739583334,4.342592027452257,-1.6958,-0.1725,-1.6276,-0.05871,0.00498,0.03917,0.0009015771211124957,0.0009995289146900177,0.0008572414517402649,0.00041296740528196096,0.0004996439092792571,0.0005212740506976843,0.011521042324602604,0.009093786589801311,0.011657471768558025,passive,0
3.461,rehab,safe_near_limit_fast,71.03474452978969,-666.6340135259608,253.50322614673394,-177.67009035068318,0.3030041975734961,-149.77870493250657,49.8874,0.0415,-44.5659,-34.593,0.5085,103.4531,83.62720904964031,30.47039069751702,86.59919436615293,-28.79055447048611,-89.08293830023871,-36.70464409722222,4.462176030225093,3.428251058748453,2.45972737227336,-5.930074055989583,-0.06785074869791667,4.206882052951388,-1.4398,-0.2714,-1.7535,-0.06873,0.01113,0.03028,0.0009015771211124957,0.0009995289146900177,0.0008572414517402649,0.00041296740528196096,0.0004996439092792571,0.0005212740506976843,0.011521042324602604,0.009093786589801311,0.011657471768558025,passive,0
3.4813,rehab,safe_near_limit_fast,71.84227170514664,-666.6350485218863,252.7902691908891,-177.67063961078435,0.30343290115639554,-149.77801725616666,46.978,0.0342,-40.412,-19.3915,0.487,92.5686,83.69792673847464,30.524309366056233,86.63727939719021,-28.883836534288193,-89.08461676703558,-36.635657416449654,4.462176030225093,3.428251058748453,2.2905338400661357,-5.542390611436632,-0.20355224609375,4.274732801649305,-1.4707,-0.084,-1.6964,-0.04777,0.01166,0.03259,0.0009015771211124957,0.0009995289146900177,0.0008572414517402649,0.00041296740528196096,0.0004996439092792571,0.0005212740506976843,0.011521042324602604,0.009093786589801311,0.011657471768558025,passive,0
3.5017,rehab,safe_near_limit_fast,73.05490258359171,-666.6351892808408,251.75295264224457,-177.67212311510073,0.30461233593111203,-149.7771401186702,48.6089,0.0188,-40.2113,-0.6054,0.1295,85.4809,83.80409165184096,30.603599926032643,86.69100770855894,-29.01792738172743,-89.08712599012587,-36.531872219509545,4.244502605778156,3.1561694758953434,2.1102452042079207,-5.473904079861111,-0.06785074869791667,4.206882052951388,-1.5426,-0.1083,-0.8035,-0.06037,0.00627,0.02702,0.0009015771211124957,0.0009995289146900177,0.0008572414517402649,0.00041296740528196096,0.0004996439092792571,0.0005212740506976843,0.011521042324602604,0.009093786589801311,0.011657471768558025,passive,0
3.5209,rehab,safe_near_limit_fast,73.86239652296051,-666.632951426518,251.095437616535,-177.67288718080744,0.3051088907346562,-149.77663822698412,49.1273,0.0101,-39.175,16.9962,-0.4547,74.3879,83.87477534832341,30.654350507377398,86.72439499656753,-29.103130764431423,-89.08891465928819,-36.462648179796005,4.298924361125077,3.047339562142249,1.9649278999555229,-5.312847561306423,-0.06785074869791667,4.342592027452257,-1.5117,-0.0336,-0.6667,-0.06988,0.01136,0.02465,0.0009015771211124957,0.0009995289146900177,0.0008572414517402649,0.00041296740528196096,0.0004996439092792571,0.0005212740506976843,0.011521042324602604,0.009093786589801311,0.011657471768558025,passive,0
