t,trajectory_type,trajectory_variant,x,y,z,rx,ry,rz,vx,vy,vz,ax,ay,az,j1,j2,j3,j4,j5,j6,dj1,dj2,dj3,dj4,dj5,dj6,fx,fy,fz,tx,ty,tz,Mx,My,Mz,Bx,By,Bz,Kx,Ky,Kz,mode,comfort
0.0005,rehab,danger_high_force,-39.9165367978,-666.2649950371,337.6463047541,-177.389281866,0.1414853364,-149.9867561888,-53.9576,3.0775,40.8914,1332.639,-42.821,-2076.5335,86.3175806586,31.3951147648,87.3870044532,-30.7485285234,-88.8121629682,-33.2912086233,0.2362945359,2.2830639854,1.2719715627,0.4701986709,4.5536209511,-4.3464315701,15.9554,5.0165,14.2685,-0.00864,0.04425,0.05702,0.00165,0.00158,0.00172,0.00118,0.00125,0.00115,0.029,0.0315,0.033,passive,2
0.0205,rehab,danger_high_force,-40.7630622697,-666.2073449207,338.1529455319,-177.3872582317,0.1413572777,-149.982415868,-30.695,2.6875,9.7727,993.6248,3.823,-1035.3423,86.319517242,31.4182316245,87.4081432462,-30.7644454467,-88.7576967739,-33.3376597788,-0.0426361942,0.0286219916,0.8419077363,-2.0618910099,0.8929984721,-0.298683982,15.1885,4.7899,13.456,-0.0041,0.03852,0.0738,0.00165,0.00158,0.00172,0.00118,0.00125,0.00115,0.029,0.0315,0.033,passive,2
0.0405,rehab,danger_high_force,-41.1443349863,-666.1574944132,338.0372111324,-177.3902588696,0.144919639,-149.986799158,-14.2126,3.2304,-0.5223,742.3848,-11.6929,-218.1833,86.3158752108,31.3962596444,87.4206807626,-30.8310041637,-88.7764430293,-33.3031559826,0.5214853704,-0.2670745075,0.3190896066,0.3806541798,0.5933593685,-0.1705060756,14.4938,4.7265,13.4793,-0.00422,0.04196,0.05052,0.00165,0.00158,0.00172,0.00118,0.00125,0.00115,0.029,0.0315,0.033,passive,2
0.0605,rehab,danger_high_force,-41.3315663636,-666.0781282972,338.1320545247,-177.3904602429,0.144504188,-149.984935416,-0.9996,2.2198,1.0453,825.3428,-44.3849,-216.34,86.3403766568,31.4075486442,87.4209068304,-30.7492192796,-88.7339623992,-33.3444800219,0.1434649359,-1.0561612363,-4.2797400313,2.5136237431,0.417707971,1.2048462607,-3.4091,4.9698,19.5001,-0.02047,0.13238,-0.02936,0.00165,0.00158,0.00172,0.00118,0.00125,0.00115,0.029,0.0315,0.033,passive,2
0.0805,rehab,danger_high_force,-41.1843174729,-666.0687023639,338.0790242517,-177.3903832018,0.1407014415,-149.9843928799,18.8011,1.455,-9.1759,902.3621,10.7362,-331.985,86.3216138083,31.354013195,87.2494911614,-30.730459214,-88.7597347104,-33.2549621322,0.1185402354,-0.9526647702,0.1582707011,0.6918777103,-0.9229514853,1.4050547101,-3.0658,5.2228,19.3671,-0.01545,0.12929,-0.04346,0.00165,0.00158,0.00172,0.00118,0.00125,0.00115,0.029,0.0315,0.033,passive,2
0.1005,rehab,danger_high_force,-40.5795219889,-666.0199274775,337.7650194859,-177.3853049952,0.1453890656,-149.9857648868,35.0949,2.6493,-12.2341,765.3558,39.473,-242.1182,86.3451182662,31.3694420534,87.4272376585,-30.7215441711,-88.7708804586,-33.2882778334,-0.5727640447,2.274132734,3.1704031191,1.4217815225,-0.6957534433,0.9508701871,-4.5194,5.9855,20.979,-0.0216,0.13892,-0.05375,0.00165,0.00158,0.00172,0.00118,0.00125,0.00115,0.029,0.0315,0.033,passive,2
0.1205,rehab,danger_high_force,-39.7805205935,-665.9627323293,337.5896613714,-177.385178491,0.1441689798,-149.9810943387,49.4153,3.0339,-18.8606,731.4765,-24.5078,-201.5992,86.2987032465,31.4449785043,87.3763072861,-30.6735879531,-88.7875648482,-33.2169273247,-3.1961909429,-1.4308501843,-1.6496647866,3.6601415776,0.9611232374,-0.5768782806,-4.2603,5.4831,20.1343,-0.02795,0.13136,-0.03895,0.00165,0.00158,0.00172,0.00118,0.00125,0.00115,0.029,0.0315,0.033,passive,2
0.1405,rehab,danger_high_force,-38.6029083539,-665.8985699172,337.0105952707,-177.3947158188,0.1430910403,-149.9828079866,64.354,1.6689,-20.298,804.877,-56.3547,21.2406,86.2172706285,31.312208046,87.361251067,-30.575138508,-88.7324355291,-33.3113529647,-2.4887824204,-4.3233628291,-1.3178078931,2.2094882762,0.657115071,-4.3201295984,-3.4365,5.3598,20.9149,-0.03267,0.13066,-0.0536,0.00165,0.00158,0.00172,0.00118,0.00125,0.00115,0.029,0.0315,0.033,passive,2
0.1605,rehab,danger_high_force,-37.2063613431,-665.8959747833,336.7777397546,-177.3930973551,0.1428175762,-149.984040313,81.6104,0.7798,-18.011,8568.4359,-25.6554,-3313.8955,86.1991519497,31.2720439912,87.3235949704,-30.5852084221,-88.7612802453,-33.3897325086,-4.6348212491,-0.7204738248,-4.1955119792,2.0208361097,-1.8231370588,-3.7619958814,-4.1278,4.7461,20.3997,-0.03361,0.14205,-0.04261,0.00165,0.00158,0.00172,0.00118,0.00125,0.00115,0.029,0.0315,0.033,passive,2
0.1805,rehab,danger_high_force,-35.3384915398,-665.8673798522,336.2901560818,-177.3948528884,0.1408701671,-149.9903036852,407.0914,0.6427,-152.8539,8153.1084,-16.7659,-3494.8261,86.0318777786,31.283389093,87.1934305878,-30.4943050636,-88.8053610115,-33.4618327999,-20.0163016357,-9.5166833822,-12.3971671441,19.055082776,1.1390376254,-16.3196805148,-3.6582,6.0606,24.4578,-0.04756,0.15754,-0.03685,0.00165,0.00158,0.00172,0.00118,0.00125,0.00115,0.029,0.0315,0.033,passive,2
0.2005,rehab,danger_high_force,-20.9227046657,-665.8702659001,330.6635854172,-177.3859807604,0.1376546148,-149.980567798,407.7348,0.1091,-157.804,-7601.1223,35.11,2762.7517,85.3984998842,30.8913766559,86.8277082846,-29.823005111,-88.7157187403,-34.0425197292,-17.8870270273,-11.0728852483,-12.4142819039,19.9130842778,1.2246827807,-16.4506630793,-2.5557,5.9983,22.542,-0.03213,0.1407,-0.03645,0.00165,0.00158,0.00172,0.00118,0.00125,0.00115,0.029,0.0315,0.033,passive,2
0.2205,rehab,danger_high_force,-19.0291013339,-665.8630151566,329.9779950762,-177.3898678839,0.1454326269,-149.9831077804,103.0465,2.0471,-42.3438,-7319.9349,5.0371,2660.5695,85.3163966975,30.8404736831,86.6968593117,-29.6977816925,-88.7563737002,-34.1198593231,-3.5727169506,-1.4215514955,-7.2080113709,6.8721705119,-0.363307701,-5.5034677648,-2.4966,5.5507,20.8556,-0.03151,0.12722,-0.0346,0.00165,0.00158,0.00172,0.00118,0.00125,0.00115,0.029,0.0315,0.033,passive,2
0.2405,rehab,danger_high_force,-16.8008437265,-665.7883809482,328.9698337276,-177.3858710599,0.1402770075,-149.9875044148,114.9374,0.3106,-51.3812,457.3572,-14.9415,-278.294,85.2555912062,30.834514596,86.5393878298,-29.5481182906,-88.7302510484,-34.2626584398,-4.9861111008,-1.3847321708,-2.9700625679,8.222251138,-1.9212693473,-5.3971700955,-1.9598,5.1257,20.0918,-0.03524,0.13723,-0.02862,0.00165,0.00158,0.00172,0.00118,0.00125,0.00115,0.029,0.0315,0.033,passive,2
0.2605,rehab,danger_high_force,-14.4316069633,-665.8505910721,327.9227452747,-177.3894209858,0.1411614009,-149.984219167,121.3408,1.4495,-53.4756,457.8658,51.7419,-255.031,85.1169522534,30.7850843963,86.578056809,-29.368891647,-88.8332244741,-34.3357461269,-8.3494291636,-5.3198849239,-2.9599513457,7.5458509869,0.198334593,-4.3500024223,-2.3374,5.4601,20.7927,-0.02454,0.13904,-0.03519,0.00165,0.00158,0.00172,0.00118,0.00125,0.00115,0.029,0.0315,0.033,passive,2
0.2805,rehab,danger_high_force,-11.9472112015,-665.7304024275,326.8308117072,-177.3880890901,0.14371174,-149.9750186939,133.252,2.3803,-61.5825,451.3883,-55.3204,-269.9977,84.9216140397,30.6217191991,86.420989776,-29.2462842511,-88.7223176646,-34.4366585367,-6.4762136256,-5.5306781351,-3.4111369097,6.1206241446,1.502202756,-6.664636616,-1.6984,5.2689,20.9474,-0.03024,0.12799,-0.0377,0.00165,0.00158,0.00172,0.00118,0.00125,0.00115,0.029,0.0315,0.033,passive,2
0.3005,rehab,danger_high_force,-9.1015272619,-665.7553799183,325.4594458433,-177.3876911177,0.1424212366,-149.988728831,139.3963,-0.7634,-64.2755,425.6718,-39.5508,-183.2479,84.8579037084,30.5638572709,86.4416113326,-29.1240666812,-88.7731363639,-34.6023315916,-5.2111585719,-2.9840747108,-1.7119548206,6.057423829,-2.0296220435,-6.0114836661,-1.5592,5.2465,20.8302,-0.03041,0.13439,-0.03432,0.00165,0.00158,0.00172,0.00118,0.00125,0.00115,0.029,0.0315,0.033,passive,2
0.3205,rehab,danger_high_force,-6.3713573721,-665.7609365491,324.2597934117,-177.3849613646,0.1431363765,-149.9786933234,150.2789,0.7982,-68.9124,528.4801,-10.2865,-196.1298,84.7131676968,30.5023562107,86.3525115832,-29.0039872979,-88.8035025464,-34.6771178833,-7.6413138313,-2.9161386149,-6.4354873542,6.6243861069,-0.0332309664,-6.2105178123,-1.3034,4.5204,19.707,-0.02079,0.12077,-0.02696,0.00165,0.00158,0.00172,0.00118,0.00125,0.00115,0.029,0.0315,0.033,passive,2
0.3405,rehab,danger_high_force,-3.090372672,-665.7234500542,322.7029497031,-177.3894436806,0.141858366,-149.9761013444,160.5355,-1.1748,-72.1206,233.6937,-30.5849,-195.4223,84.5522511552,30.4472117263,86.1841918384,-28.859091237,-88.7744656025,-34.8507523041,-6.8529670628,-0.4790558812,-7.3806913882,8.0767502741,0.9643362788,-7.9513858757,-1.5187,5.1964,20.4888,-0.03284,0.12874,-0.02249,0.00165,0.00158,0.00172,0.00118,0.00125,0.00115,0.029,0.0315,0.033,passive,2
0.3605,rehab,danger_high_force,0.0500645597,-665.8079290237,321.3749674783,-177.3865138931,0.1444067837,-149.9821555098,159.6266,-0.4252,-76.7293,125.7761,78.1894,-452.5167,84.4390490143,30.4831939754,86.0572839276,-28.680917287,-88.7649290952,-34.9951733184,-7.3074588583,-2.5824281863,-5.3870160424,9.3634294775,0.6757130125,-7.1505238092,-1.3336,5.2423,19.3705,-0.0252,0.11888,-0.03533,0.00165,0.00158,0.00172,0.00118,0.00125,0.00115,0.029,0.0315,0.033,passive,2
0.3805,rehab,danger_high_force,3.2946918925,-665.7404561015,319.633777918,-177.3879982882,0.1489450725,-149.9821747977,165.5666,1.9528,-90.2213,277.2184,36.1564,-504.7063,84.2599528008,30.3439145988,85.9687111967,-28.4845540579,-88.747437082,-35.1367732564,-6.1500597905,-6.5638454229,-6.0930289062,9.348108413,-0.4524141976,-7.4609396098,0.0777,4.9186,19.3141,-0.03297,0.12466,-0.01893,0.00165,0.00158,0.00172,0.00118,0.00125,0.00115,0.029,0.0315,0.033,passive,2
0.4005,rehab,danger_high_force,6.6727281872,-665.7298184554,317.7661147721,-177.3872976148,0.14307389,-149.9844971615,170.7154,1.0211,-96.9175,148.2133,-51.7145,-203.2215,84.1930466227,30.2206401585,85.8135627714,-28.3069929504,-88.7830256631,-35.2936109028,-9.6665613364,-6.5613528249,-6.1062613501,8.1815268158,-2.8746836989,-6.1049705647,-0.5184,4.5426,18.8585,-0.02319,0.11764,-0.03039,0.00165,0.00158,0.00172,0.00118,0.00125,0.00115,0.029,0.0315,0.033,passive,2
0.4205,rehab,danger_high_force,10.1233058983,-665.699611845,315.7570760093,-177.3846152291,0.1425934273,-149.9808769067,171.4951,-0.1158,-98.3502,244.6012,-61.4416,-98.569,83.8732903474,30.0814604858,85.7244607427,-28.1572929852,-88.86242443,-35.380972079,-12.4270174238,-6.1082569664,-4.7337101098,10.8944368844,-1.8092313854,-8.9087979663,-0.8584,5.0971,19.3029,-0.02299,0.11734,-0.02219,0.00165,0.00158,0.00172,0.00118,0.00125,0.00115,0.029,0.0315,0.033,passive,2
0.4405,rehab,danger_high_force,13.5325330859,-665.7344511627,313.8321076403,-177.3909134056,0.1451464674,-149.9838687537,180.4994,-1.4366,-100.8603,315.4991,10.0745,-197.149,83.6959659257,29.9763098798,85.624214367,-27.8712154751,-88.8553949185,-35.6499628214,-9.1412353377,-2.8491419494,-6.5920089067,10.743563176,1.8752188407,-10.0849895685,0.4597,4.5619,18.884,-0.02664,0.11015,-0.01654,0.00165,0.00158,0.00172,0.00118,0.00125,0.00115,0.029,0.0315,0.033,passive,2
0.4605,rehab,danger_high_force,17.3432817507,-665.7570741899,311.7226637054,-177.3857238825,0.1425522534,-149.9819830577,184.1151,0.2872,-106.2361,-62.0931,27.9732,-158.863,83.5076409339,29.9674948079,85.4607803864,-27.7275504582,-88.7874156764,-35.7843716618,-8.1619742117,-3.4676163554,-5.0164096404,7.3808027633,-0.8481840008,-8.3437614424,0.8855,5.0512,19.7469,-0.02872,0.10568,-0.01051,0.00165,0.00158,0.00172,0.00118,0.00125,0.00115,0.029,0.0315,0.033,passive,2
0.4805,rehab,danger_high_force,20.897136601,-665.7229646804,309.5826620583,-177.3864768436,0.1435788544,-149.9801909176,178.0157,-0.3176,-107.2148,-234.969,-82.9442,-22.947,83.3694869572,29.8376052256,85.4235579814,-27.5759833645,-88.8893222786,-35.9837132791,-8.2849803875,-6.4680815839,-2.7950939153,9.1940187768,-3.6058649285,-10.2422482744,0.5278,4.6113,18.4665,-0.02343,0.09404,-0.01007,0.00165,0.00158,0.00172,0.00118,0.00125,0.00115,0.029,0.0315,0.033,passive,2
0.5005,rehab,danger_high_force,24.4639086842,-665.7697793757,307.4340706009,-177.3854287129,0.1424608839,-149.9819468669,174.7163,-3.0306,-107.154,-74.4949,-44.0409,-171.5047,83.1762417184,29.7087715445,85.3489766298,-27.3597897071,-88.9316502735,-36.1940615927,-8.7113644467,-3.2282423829,-7.4508963286,10.5208171745,1.3389231112,-5.7919411268,1.6354,4.8056,18.9449,-0.02839,0.1083,-0.01434,0.00165,0.00158,0.00172,0.00118,0.00125,0.00115,0.029,0.0315,0.033,passive,2
0.5205,rehab,danger_high_force,27.8857897718,-665.8441889138,305.2965013288,-177.3838597632,0.1451710698,-149.9829244777,175.0359,-2.0793,-114.075,-2592.5561,86.9385,1469.7938,83.0210323794,29.7084755303,85.1255221282,-27.1551506776,-88.8357653541,-36.2153909242,-8.95264716,-4.5250228136,-9.6769930748,9.0596710553,2.2133774687,-5.2809736959,1.1322,4.6489,18.7877,-0.03679,0.11457,-0.01637,0.00165,0.00158,0.00172,0.00118,0.00125,0.00115,0.029,0.0315,0.033,passive,2
0.5405,rehab,danger_high_force,31.4653438556,-665.8529500097,302.8710699238,-177.3891594147,0.1379534545,-149.9716243698,71.0141,0.4469,-48.3623,-2488.6835,1.3868,1486.8126,82.818135832,29.527770632,84.9618969068,-26.9974028649,-88.8431151748,-36.4053005406,-4.2712011163,-4.3306093487,-2.4748156494,3.7952960414,-1.0166679745,-5.8606621733,0.9242,4.464,17.2454,-0.01689,0.10048,-0.01545,0.00165,0.00158,0.00172,0.00118,0.00125,0.00115,0.029,0.0315,0.033,passive,2
0.5605,rehab,danger_high_force,30.7263532559,-665.8263116221,303.3620106154,-177.3862323502,0.141018284,-149.9825417923,75.4885,-2.0238,-54.6025,3051.1205,-79.8578,-2056.4322,82.8501843347,29.5352511564,85.0265295023,-27.0033388359,-88.8764320731,-36.4498174111,-4.8770343338,-2.7651355403,-0.9871232994,6.2351664211,-2.4280914733,-3.393855678,0.9622,3.8007,15.4831,-0.03205,0.08755,-0.01432,0.00165,0.00158,0.00172,0.00118,0.00125,0.00115,0.029,0.0315,0.033,passive,2
0.5805,rehab,danger_high_force,34.4848853559,-665.9339017207,300.6869694323,-177.3771839208,0.1438898576,-149.9823477997,193.0589,-2.7474,-130.6196,2850.2697,8.0066,-1736.8165,82.6230544586,29.4171652103,84.9224119748,-26.7479962081,-88.9402388337,-36.5410547677,-9.0120221502,-4.2418774166,-5.940627385,11.0469459781,-0.1744040028,-7.6113518471,1.7643,5.2084,19.2878,-0.02252,0.11141,-0.01021,0.00165,0.00158,0.00172,0.00118,0.00125,0.00115,0.029,0.0315,0.033,passive,2
0.6005,rehab,danger_high_force,38.4487094765,-665.9362067675,298.1372283867,-177.3875577568,0.1434652934,-149.9808210007,189.4993,-1.7035,-124.0752,-347.0472,22.0125,-115.3781,82.4897034487,29.3655760597,84.7889044069,-26.5614609968,-88.8834082332,-36.754271485,-10.0866932725,-5.8361150519,-8.4536138477,8.1137940571,0.7567101359,-8.756630551,2.0375,4.2888,17.6843,-0.01797,0.10202,-0.00643,0.00165,0.00158,0.00172,0.00118,0.00125,0.00115,0.029,0.0315,0.033,passive,2
0.6205,rehab,danger_high_force,42.0648583916,-666.0020428295,295.7239624928,-177.3854591185,0.1407010874,-149.981319617,179.177,-1.8669,-135.2347,-407.0096,22.1098,-358.2087,82.2195867277,29.1837206083,84.5842674209,-26.4234444458,-88.9099704283,-36.8913199897,-11.333612567,-6.8772210985,-7.1137128105,11.545804359,-0.4452714972,-8.5509735006,1.9158,4.75,18.2098,-0.02396,0.10523,-0.01183,0.00165,0.00158,0.00172,0.00118,0.00125,0.00115,0.029,0.0315,0.033,passive,2
0.6405,rehab,danger_high_force,45.6157902113,-666.0108819374,292.72784113,-177.3816893354,0.1406898753,-149.9794247539,173.2189,-0.8191,-138.4035,-119.791,19.5575,181.1795,82.036358946,29.0904872158,84.5043558944,-26.0996288224,-88.9012190931,-37.096310425,-7.1778907755,-4.3365191414,-6.3133672736,13.5498385671,1.2471660879,-8.0681270113,2.7841,4.6445,17.0101,-0.02255,0.09583,0.00282,0.00165,0.00158,0.00172,0.00118,0.00125,0.00115,0.029,0.0315,0.033,passive,2
0.6605,rehab,danger_high_force,48.9936160267,-666.034808247,290.1878216337,-177.3796591099,0.1426320063,-149.9808077928,174.3854,-1.0846,-127.9875,-143.2927,-8.3356,158.7534,81.9324710967,29.0102598426,84.33173273,-25.8814509031,-88.8600837847,-37.2140450702,-9.2005128375,-4.5020083223,-7.7873690868,10.6068914354,0.1006915909,-9.0073164952,1.8552,4.3327,15.9585,-0.01276,0.08556,-0.0127,0.00165,0.00158,0.00172,0.00118,0.00125,0.00115,0.029,0.0315,0.033,passive,2
0.6805,rehab,danger_high_force,52.5912053383,-666.0542650708,287.6083411408,-177.3813177508,0.14332178,-149.9774606841,167.4872,-1.1526,-132.0534,-518.3902,-36.4379,-51.3911,81.6683384325,28.9104068829,84.192861131,-25.675353165,-88.8971914295,-37.4566030848,-7.7960100574,-4.4113140362,-5.661374734,9.2416446827,-1.3692987441,-10.2722525775,3.0293,4.2097,16.9686,-0.0247,0.08306,0.00857,0.00165,0.00158,0.00172,0.00118,0.00125,0.00115,0.029,0.0315,0.033,passive,2
0.7005,rehab,danger_high_force,55.6931053187,-666.0809105907,284.9056862699,-177.384835567,0.1435576949,-149.9820359831,153.6498,-2.5421,-130.0431,-403.8567,-33.7443,74.196,81.6206306944,28.8338072812,84.1052777406,-25.5117851158,-88.9148557345,-37.6249351733,-9.3672285983,-3.8218565841,-4.9380121454,10.2229303214,-2.1309186485,-8.1955730811,3.0599,4.4399,17.5728,-0.02772,0.10161,0.01088,0.00165,0.00158,0.00172,0.00118,0.00125,0.00115,0.029,0.0315,0.033,passive,2
0.7205,rehab,danger_high_force,58.7371962046,-666.1559488288,282.4066153633,-177.3855651969,0.142232603,-149.9801849054,151.333,-2.5023,-129.0855,-88.4242,22.2165,12.8368,81.2936492886,28.7575326195,83.9953406451,-25.2664359521,-88.9824281754,-37.7844260081,-11.8976354785,-4.5132680945,-5.5522385721,8.745557341,-0.5905662565,-8.6228617863,2.6195,-3.7628,17.1563,-0.10538,0.09106,0.02914,0.00165,0.00158,0.00172,0.00118,0.00125,0.00115,0.029,0.0315,0.033,passive,2
0.7405,rehab,danger_high_force,61.7464238943,-666.1810038896,279.7422645679,-177.3891210495,0.1429162273,-149.9777897544,150.1128,-1.6534,-129.5297,-295.8746,22.1705,177.2493,81.1447252753,28.6532765574,83.8831881977,-25.1619628221,-88.9384783848,-37.9698496447,-6.3723036297,-5.1663028006,-6.4184570538,7.4814115227,1.0567141538,-6.6173212373,3.6991,-3.665,14.9547,-0.10021,0.07218,0.03629,0.00165,0.00158,0.00172,0.00118,0.00125,0.00115,0.029,0.0315,0.033,passive,2
0.7605,rehab,danger_high_force,64.7417082992,-666.2220861639,277.2254284663,-177.385630142,0.1408345436,-149.9801011477,139.498,-1.6155,-121.9956,-391.0794,-69.4128,162.688,81.0387571434,28.5508805075,83.738602363,-24.9671794912,-88.9401596093,-38.0491188576,-8.5462566894,-3.9323561276,-6.7794367403,8.2794017657,-1.479827894,-5.5527981819,3.8141,-4.0405,15.7776,-0.11335,0.08548,0.0327,0.00165,0.00158,0.00172,0.00118,0.00125,0.00115,0.029,0.0315,0.033,passive,2
0.7805,rehab,danger_high_force,67.3263430932,-666.2456243326,274.862441699,-177.380834252,0.1410693227,-149.9751796316,134.4696,-4.4299,-123.0222,-145.6969,-34.3435,20.1712,80.8028750077,28.4959823123,83.6120107281,-24.8307867515,-88.9976715005,-38.191961572,-9.4678515429,-3.9056918048,-6.7574821653,10.0084163974,0.2252319283,-8.4252168405,3.7184,-3.5561,14.4378,-0.09444,0.07346,0.03548,0.00165,0.00158,0.00172,0.00118,0.00125,0.00115,0.029,0.0315,0.033,passive,2
0.8005,rehab,danger_high_force,70.1204933053,-666.3992840349,272.3045424049,-177.3857984729,0.1402405898,-149.9768140106,133.6701,-2.9893,-121.1887,-165.0781,67.2085,218.8177,80.6600430817,28.3946528353,83.4683030764,-24.5668428353,-88.9311503321,-38.3861275312,-6.2880966521,-5.2104381845,-4.9053055542,6.7730476194,0.6263668017,-6.7777666683,3.5269,-4.1163,14.3178,-0.09622,0.08311,0.02955,0.00165,0.00158,0.00172,0.00118,0.00125,0.00115,0.029,0.0315,0.033,passive,2
0.8205,rehab,danger_high_force,72.6731472856,-666.3651943645,270.0148928078,-177.3792882561,0.1445102964,-149.9830009492,127.8665,-1.7416,-114.2694,-415.7444,-3.2804,142.9584,80.5513511416,28.2875647849,83.415798506,-24.5598648467,-88.9726168285,-38.4630722387,-6.5920851084,-4.1030706121,-2.5856776282,4.6726990648,-1.4328050991,-7.1823320569,3.3647,-3.7475,13.3972,-0.09339,0.06718,0.02664,0.00165,0.00158,0.00172,0.00118,0.00125,0.00115,0.029,0.0315,0.033,passive,2
0.8405,rehab,danger_high_force,75.2351533362,-666.4689482663,267.7337646283,-177.3831278538,0.139142373,-149.9769646596,117.0403,-3.1205,-115.4704,-573.9464,-65.8984,31.5773,80.3963596774,28.2305300108,83.3648759712,-24.3799348727,-88.9884625361,-38.6734208135,-7.3542950468,-2.8706311271,-4.7727771355,10.7756609664,0.335102485,-8.210293124,3.988,-3.625,13.436,-0.08324,0.07106,0.03406,0.00165,0.00158,0.00172,0.00118,0.00125,0.00115,0.029,0.0315,0.033,passive,2
0.8605,rehab,danger_high_force,77.354760422,-666.4900130342,265.396077413,-177.3878974111,0.1430637077,-149.9786788712,104.9086,-4.3775,-113.0064,-180.0458,-15.0218,229.7526,80.2571793397,28.1727395398,83.2248874205,-24.1288384081,-88.9592127291,-38.7914839637,-6.1864613752,-4.9246765729,-6.6784853322,9.4934447332,0.348214659,-4.030804567,3.1661,-3.2636,12.4306,-0.08287,0.06509,0.03531,0.00165,0.00158,0.00172,0.00118,0.00125,0.00115,0.029,0.0315,0.033,passive,2
0.8805,rehab,danger_high_force,79.4314991477,-666.6440500137,263.2135104526,-177.3772182041,0.1441250588,-149.9772273472,109.8385,-3.7213,-106.2803,-69.7046,75.4022,171.1994,80.1489012223,28.0335429479,83.097736558,-24.0001970834,-88.9745339497,-38.8346529961,-8.7034065311,-5.8786339199,-2.677284228,5.7562588996,0.0486093034,-3.6130954122,4.2277,-3.3516,13.7536,-0.09217,0.07694,0.04244,0.00165,0.00158,0.00172,0.00118,0.00125,0.00115,0.029,0.0315,0.033,passive,2
0.9005,rehab,danger_high_force,81.7483003463,-666.6388665193,261.144866161,-177.3800024643,0.140133122,-149.9742167054,102.1205,-1.3615,-106.1584,-521.1159,36.8741,70.6029,79.9090430785,27.937594183,83.1177960514,-23.8985880521,-88.9572683569,-38.9360077802,-5.9022994446,-2.9128901183,-2.3590056136,6.8353838793,-0.1233196438,-5.885119183,4.1485,-3.81,13.8817,-0.10847,0.06902,0.03037,0.00165,0.00158,0.00172,0.00118,0.00125,0.00115,0.029,0.0315,0.033,passive,2
0.9205,rehab,danger_high_force,83.5163175224,-666.698508162,258.9671753048,-177.3818632382,0.1415695995,-149.9796120361,88.9939,-2.2464,-103.4562,-85.3601,8.2524,162.0373,79.9128092446,27.9170273431,83.0033763334,-23.7267817282,-88.9794667355,-39.0700577635,-4.2892456945,-0.429266322,-5.8505110124,7.1063080964,-0.9700963135,-7.3799130184,4.4139,-3.5093,12.7513,-0.08183,0.06245,0.03925,0.00165,0.00158,0.00172,0.00118,0.00125,0.00115,0.029,0.0315,0.033,passive,2
0.9405,rehab,danger_high_force,85.3080547815,-666.7287214773,257.0066195148,-177.3850943577,0.1391576252,-149.9831001453,98.7061,-1.0314,-99.6769,280.376,9.4777,-113.2139,79.7374732507,27.9204235301,82.8837756109,-23.6143357283,-88.9960722095,-39.2312043009,-7.3837410079,-2.8591134623,-4.9023312405,5.9483394643,0.464147205,-5.3724955491,4.8385,-3.732,12.8522,-0.08719,0.06431,0.03529,0.00165,0.00158,0.00172,0.00118,0.00125,0.00115,0.029,0.0315,0.033,passive,2
0.9605,rehab,danger_high_force,87.4645596735,-666.7397625306,254.9800999071,-177.3838724672,0.1433691326,-149.9761571705,100.2089,-1.8673,-107.9847,-277.978,-37.0099,-96.8873,79.6174596042,27.8026628047,82.8072830838,-23.4888481497,-88.9609008473,-39.2849575854,-6.4618280046,-1.6608356516,-4.6330354164,6.972281181,-1.5856759015,-2.9043859421,4.8579,-3.3008,13.4133,-0.08294,0.06239,0.04053,0.00165,0.00158,0.00172,0.00118,0.00125,0.00115,0.029,0.0315,0.033,passive,2
0.9805,rehab,danger_high_force,89.3164107441,-666.8034121102,252.6872306578,-177.3822819524,0.1420294357,-149.9766085464,87.5869,-2.5118,-103.5524,-307.7455,-56.0403,116.4281,79.4790001305,27.8539901041,82.6984541943,-23.335444481,-89.0594992455,-39.3473797386,-5.4202063711,-3.0303456295,-4.7788626857,7.0229110411,-3.2110256263,-4.2532207402,4.6547,-3.7168,13.4149,-0.08564,0.07384,0.03769,0.00165,0.00158,0.00172,0.00118,0.00125,0.00115,0.029,0.0315,0.033,passive,2
1.0005,rehab,danger_high_force,90.9680370706,-666.840232814,250.8380048876,-177.3840298235,0.1443834933,-149.9700260344,87.8991,-4.1089,-103.3276,164.3413,-20.6275,-168.2732,79.4006513494,27.6814489795,82.6161285764,-23.207931708,-89.0893418723,-39.455086415,-4.9855501908,-5.0866870221,-5.4917671124,6.3214168769,0.6001939227,-6.5825503258,5.1429,-3.9023,14.8065,-0.09535,0.07741,0.03903,0.00165,0.00158,0.00172,0.00118,0.00125,0.00115,0.029,0.0315,0.033,passive,2
1.0205,rehab,danger_high_force,92.8323739806,-666.9677672876,248.5541267963,-177.382193292,0.1413913029,-149.9743948405,94.1606,-3.3369,-110.2833,45.7674,52.9177,-18.423,79.2795781229,27.6505226232,82.4787835098,-23.0825878059,-89.0354914886,-39.6106817516,-8.2002711625,-4.6645838291,-4.1030256175,4.5834341365,3.3867599984,-7.9546795506,4.8294,-3.6046,13.9032,-0.09713,0.06829,0.0379,0.00165,0.00158,0.00172,0.00118,0.00125,0.00115,0.029,0.0315,0.033,passive,2
1.0405,rehab,danger_high_force,94.7344605482,-666.9737070904,246.4266727063,-177.3807860571,0.1408613267,-149.9802278321,89.7298,-1.9922,-104.0645,-203.0025,12.3546,203.359,79.0726405029,27.4948656263,82.4520075517,-23.0245943426,-88.9538714724,-39.7732735971,-8.0368544076,-3.2734874286,-2.2953541047,5.8605010881,0.0811059485,-5.9922762083,5.2546,-3.6077,12.6894,-0.08088,0.06413,0.03779,0.00165,0.00158,0.00172,0.00118,0.00125,0.00115,0.029,0.0315,0.033,passive,2
1.0605,rehab,danger_high_force,96.4215649827,-667.0474541554,244.391546088,-177.3796806029,0.1418686366,-149.9776164261,86.0405,-2.8427,-102.1489,-92.4693,36.6816,-233.8688,78.9581039466,27.519583126,82.3869693456,-22.8481677624,-89.0322472507,-39.8503728,-3.8590476313,-2.371726483,-3.4097458586,5.4533548071,-2.2586086099,-4.1566501505,5.3119,-4.1458,14.0835,-0.10168,0.07562,0.03932,0.00165,0.00158,0.00172,0.00118,0.00125,0.00115,0.029,0.0315,0.033,passive,2
1.0805,rehab,danger_high_force,98.1760799691,-667.0874139747,242.3407149065,-177.3817136499,0.1414808406,-149.9767346661,86.031,-0.5249,-113.4193,142.7002,43.7836,-330.6925,78.9182785977,27.399996567,82.3156177173,-22.8064601503,-89.0442158168,-39.9395396031,-3.8791096432,-4.942283449,-5.4255923514,5.5652549598,1.5014410765,-6.6520131827,5.5647,-4.025,13.7782,-0.09491,0.06004,0.04276,0.00165,0.00158,0.00172,0.00118,0.00125,0.00115,0.029,0.0315,0.033,passive,2
1.1005,rehab,danger_high_force,99.8628051069,-667.0684504998,239.8547753204,-177.3833482618,0.1413582704,-149.9779571569,91.7485,-1.0913,-115.3766,194.6179,-43.981,101.5932,78.8029395609,27.3218917881,82.1699456515,-22.625557564,-88.9721896076,-40.1164533273,-7.0276856767,-3.5643463864,-5.5747823318,7.7983366449,-0.9045255816,-5.9272375927,5.9601,-4.0166,14.2119,-0.09177,0.05958,0.04131,0.00165,0.00158,0.00172,0.00118,0.00125,0.00115,0.029,0.0315,0.033,passive,2
1.1205,rehab,danger_high_force,101.8460197054,-667.131067051,237.7256491159,-177.3809424909,0.1400012633,-149.9720605357,93.8157,-2.2842,-109.3555,0.1397,-2.647,-90.5909,78.6371711706,27.2574227115,82.0926264241,-22.4945266845,-89.0803968401,-40.1766291068,-7.1554684075,-3.7741097385,-1.0472324462,8.9954382732,-3.3566253643,-4.4446302922,6.5751,-4.4798,15.8732,-0.10814,0.08114,0.0567,0.00165,0.00158,0.00172,0.00118,0.00125,0.00115,0.029,0.0315,0.033,passive,2
1.1405,rehab,danger_high_force,103.6154339136,-667.1598165154,235.4805537458,-177.3829661936,0.1415998683,-149.9762609157,91.7541,-1.1972,-119.0003,-102.6857,-10.801,-447.2699,78.5167208246,27.1709273985,82.1280563537,-22.2657400331,-89.1064546222,-40.294238539,-5.2021615882,-2.5215431579,-4.8304810215,7.9946425663,0.6582942146,-6.6390314406,6.0979,-3.7054,14.0019,-0.10148,0.06486,0.03412,0.00165,0.00158,0.00172,0.00118,0.00125,0.00115,0.029,0.0315,0.033,passive,2
1.1605,rehab,danger_high_force,105.5161829089,-667.1789553289,232.9656379603,-177.3847815015,0.1411896676,-149.9709942102,89.7083,-2.7162,-127.2463,-56.3425,-29.7052,-112.1802,78.4290847071,27.1565609852,81.8994071832,-22.1747409818,-89.0540650715,-40.4421903644,-5.2257156199,-2.6982381681,-7.1011436208,5.7291677569,-1.0560203862,-7.4680402853,7.0012,-4.1822,14.6862,-0.09508,0.0539,0.0637,0.00165,0.00158,0.00172,0.00118,0.00125,0.00115,0.029,0.0315,0.033,passive,2
1.1805,rehab,danger_high_force,107.203765588,-667.2684641785,230.3907002897,-177.3756393676,0.1420354704,-149.9678207878,89.5004,-2.3854,-123.4875,42.5126,42.1603,9.1289,78.3076921998,27.0629978718,81.8440106088,-22.0365733228,-89.1486954376,-40.5929601504,-6.6949165781,-4.6561968725,-1.2541189575,8.4179111872,0.3582122554,-6.609677537,7.0246,-4.4403,14.8742,-0.10163,0.0675,0.05821,0.00165,0.00158,0.00172,0.00118,0.00125,0.00115,0.029,0.0315,0.033,passive,2
1.2005,rehab,danger_high_force,109.0961981753,-667.2743720051,228.0261384678,-177.3847709618,0.1420770708,-149.9677751186,91.4088,-1.0298,-126.8812,117.2767,-13.4256,-238.2932,78.1612880439,26.9703131103,81.8492424249,-21.8380245343,-89.0397365813,-40.7065774659,-10.1846013287,-4.6153741589,-4.8059774707,9.2403508926,-0.688132469,-6.3952455547,7.4471,-3.4651,14.5477,-0.09186,0.06204,0.05219,0.00165,0.00158,0.00172,0.00118,0.00125,0.00115,0.029,0.0315,0.033,passive,2
1.2205,rehab,danger_high_force,110.8601174131,-667.309655323,225.3154531291,-177.3809731942,0.1388484011,-149.9728846328,94.1914,-2.9224,-133.0192,142.3718,-30.4708,-193.5829,77.9003081466,26.8783829055,81.65177151,-21.6669592871,-89.1762207364,-40.8487699726,-7.4183319508,-3.4063176452,-8.0465945105,7.8426349885,-3.5993176748,-6.2937250331,6.9391,-4.1248,14.3063,-0.09036,0.06539,0.05231,0.00165,0.00158,0.00172,0.00118,0.00125,0.00115,0.029,0.0315,0.033,passive,2
1.2405,rehab,danger_high_force,112.8638561536,-667.3912697178,222.7053698046,-177.3794072496,0.134699979,-149.9734200823,97.1037,-2.2486,-134.6245,-1674.8372,25.512,2322.9504,77.8645547659,26.8340604045,81.5273786445,-21.5243191348,-89.1837092883,-40.9583264672,-6.7844824208,-2.5733199674,-3.6853446203,6.5839081678,-0.3552377709,-5.0789411945,7.0252,-3.736,13.7037,-0.0988,0.07727,0.04634,0.00165,0.00158,0.00172,0.00118,0.00125,0.00115,0.029,0.0315,0.033,passive,2
1.2605,rehab,danger_high_force,114.7442641542,-667.3995997983,219.9304733571,-177.38509168,0.1384694843,-149.9671129264,27.198,-1.902,-40.1012,-1878.9703,60.7294,2492.3224,77.6289288498,26.7754501068,81.5043577252,-21.4036029604,-89.1904302472,-41.0519276203,-3.2211953851,-3.8609940516,0.3999966718,1.6228389769,1.3545366935,-1.6275629161,6.6236,-4.2826,13.755,-0.10061,0.06618,0.0485,0.00165,0.00158,0.00172,0.00118,0.00125,0.00115,0.029,0.0315,0.033,passive,2
1.2805,rehab,danger_high_force,113.9517746689,-667.4673481854,221.1013217694,-177.3824994294,0.1398836339,-149.9765791882,21.9449,0.1806,-34.9316,1386.6962,44.2304,-2305.0466,77.7357069505,26.6796206425,81.5433785113,-21.4594055757,-89.1295278205,-41.0234289839,-0.661304936,-1.5335301113,-1.5017829482,1.0421497094,2.7407231418,-1.9465572614,6.9035,-3.3274,13.8844,-0.09651,0.0734,0.04842,0.00165,0.00158,0.00172,0.00118,0.00125,0.00115,0.029,0.0315,0.033,passive,2
1.3005,rehab,danger_high_force,115.622058436,-667.3923772228,218.533209375,-177.3850578703,0.1392586599,-149.9728130258,82.6658,-0.1327,-132.3031,1624.0436,-88.4207,-2607.595,77.6024766523,26.7141089023,81.4442864073,-21.361916972,-89.0808013215,-41.1297899108,-6.4349752598,0.5216405744,-6.5117604509,7.883892531,0.6506119151,-6.7349675529,7.6588,-4.3363,15.4691,-0.10556,0.0696,0.05318,0.00165,0.00158,0.00172,0.00118,0.00125,0.00115,0.029,0.0315,0.033,passive,2
1.3205,rehab,danger_high_force,117.2584071744,-667.4726579668,215.8091991144,-177.3797476516,0.1385666866,-149.9686937067,86.9066,-3.3563,-139.2354,98.3183,-3.8212,-212.5145,77.4783079401,26.7004862654,81.2829080933,-21.1440498745,-89.1035033439,-41.292827686,-7.0887369409,-3.5881704071,-6.2027413262,6.9300016029,-1.1022568093,-6.823031347,8.2835,-4.8272,15.2882,-0.11061,0.05814,0.05927,0.00165,0.00158,0.00172,0.00118,0.00125,0.00115,0.029,0.0315,0.033,passive,2
1.3405,rehab,danger_high_force,119.0983225015,-667.5266277478,212.9637934012,-177.378029483,0.1401816956,-149.9737178116,86.5985,-0.2856,-140.8036,-106.1416,70.2958,177.0962,77.3189271747,26.570582086,81.1961767542,-21.0847169079,-89.1248915939,-41.4027111647,-7.2077372085,-6.2424035159,-4.769858481,5.5406561,-1.489732746,-6.1556536687,8.6916,-4.7445,14.4508,-0.11236,0.05283,0.05472,0.00165,0.00158,0.00172,0.00118,0.00125,0.00115,0.029,0.0315,0.033,passive,2
1.3605,rehab,danger_high_force,120.7223490163,-667.4840817265,210.177053251,-177.3797892934,0.1386361411,-149.9716725942,82.6609,-0.5444,-132.1515,-2.6724,-35.79,106.4885,77.1899984518,26.4507901248,81.0921137541,-20.9224236305,-89.1630926537,-41.5390538327,-7.1072337704,-1.7884766304,-3.862107958,10.1737111285,-1.5284569932,-7.5243556093,8.7534,-4.3548,14.4631,-0.11515,0.05559,0.05272,0.00165,0.00158,0.00172,0.00118,0.00125,0.00115,0.029,0.0315,0.033,passive,2
1.3805,rehab,danger_high_force,122.4047599531,-667.5484050315,207.6777314113,-177.3793810879,0.1394043151,-149.975658516,86.4916,-1.7172,-136.5441,95.6607,21.6168,-271.098,77.0346378239,26.4990430208,81.0416924359,-20.6777684628,-89.1860298736,-41.7036853891,-8.5459912539,-4.0371183404,-4.229545859,9.8483668533,-0.1624095346,-5.5979912211,9.0744,-4.585,14.648,-0.11163,0.06027,0.07088,0.00165,0.00158,0.00172,0.00118,0.00125,0.00115,0.029,0.0315,0.033,passive,2
1.4005,rehab,danger_high_force,124.1820149699,-667.5527694576,204.7152889454,-177.3757260408,0.1390291264,-149.9718175989,86.4874,0.3202,-142.9955,-85.9876,85.4494,-219.698,76.8481588016,26.2893053912,80.9229319197,-20.5284889564,-89.1695890351,-41.7629734816,-4.0722497107,-7.1108520272,-8.9668532394,6.715616633,-0.2442107336,-5.9964971044,9.086,-4.7595,15.734,-0.1095,0.06963,0.06676,0.00165,0.00158,0.00172,0.00118,0.00125,0.00115,0.029,0.0315,0.033,passive,2
1.4205,rehab,danger_high_force,125.8642544764,-667.5355954288,201.9579126097,-177.3782900805,0.1391946893,-149.9745431794,83.0521,1.7008,-145.332,-185.7892,19.7212,-235.7282,76.8717478355,26.2146089397,80.6830183063,-20.4091437974,-89.195798303,-41.9435452732,-5.985024179,-2.2522187578,-6.1812176343,7.8285905123,-1.1926800371,-9.3346635124,9.3688,-4.6794,16.2249,-0.11262,0.06725,0.06324,0.00165,0.00158,0.00172,0.00118,0.00125,0.00115,0.029,0.0315,0.033,passive,2
1.4405,rehab,danger_high_force,127.504100708,-667.4847380833,198.9020078561,-177.3843709803,0.1384649472,-149.9684132019,79.0558,1.1091,-152.4246,-111.9375,-42.0611,-178.5649,76.6087578344,26.1992166409,80.6756832143,-20.2153453359,-89.2172962366,-42.1363600221,-7.9099031528,-3.6259943014,-1.5107048477,9.8940849624,2.0930068934,-9.1843543976,9.8877,-4.2585,16.3439,-0.11344,0.06459,0.05471,0.00165,0.00158,0.00172,0.00118,0.00125,0.00115,0.029,0.0315,0.033,passive,2
1.4605,rehab,danger_high_force,129.02648624,-667.4912318548,195.8609286686,-177.3807609833,0.1379294732,-149.972499638,78.5746,0.0183,-152.4746,24.4255,-24.308,55.9823,76.5553517094,26.0695691677,80.6225901124,-20.0133803989,-89.1120780273,-42.3109194491,-8.5366894171,-5.8270727131,-4.3468292963,6.1897855377,0.5004929038,-4.1196371601,10.4232,-5.0762,15.4494,-0.11644,0.05804,0.06074,0.00165,0.00158,0.00172,0.00118,0.00125,0.00115,0.029,0.0315,0.033,passive,2
1.4805,rehab,danger_high_force,130.6470864352,-667.4840044427,192.8030229683,-177.3806749145,0.138766736,-149.9689530527,80.0328,0.1368,-150.1853,2.4602,-15.1835,88.2451,76.2672902578,25.9661337323,80.5018100425,-19.9677539144,-89.1972765205,-42.3011455085,-9.8171407796,-4.7034531905,-7.0705941207,5.9088654256,-3.8510351049,-4.2577900226,10.2596,-4.7097,15.4817,-0.11335,0.06376,0.07303,0.00165,0.00158,0.00172,0.00118,0.00125,0.00115,0.029,0.0315,0.033,passive,2
1.5005,rehab,danger_high_force,132.2277988218,-667.4857610193,189.853516369,-177.3776292042,0.1390063279,-149.9662429367,78.6731,-0.589,-148.9448,-102.7313,5.6726,88.8508,76.1626660782,25.8814310401,80.3397663476,-19.7770257819,-89.2661194315,-42.48123105,-5.6372036545,-2.914970573,-3.8715881314,8.6746720889,-0.7384062971,-8.9407814787,10.5422,-4.7479,15.7033,-0.11368,0.0619,0.08342,0.00165,0.00158,0.00172,0.00118,0.00125,0.00115,0.029,0.0315,0.033,passive,2
1.5205,rehab,danger_high_force,133.794008532,-667.5075643819,186.8452302136,-177.3844759008,0.1378679033,-149.9757849166,75.9236,0.3637,-146.6313,-194.2381,50.4038,94.4542,76.0418021116,25.8495349094,80.3469465172,-19.6207670308,-89.2268127723,-42.6587767676,-6.8888120224,-4.4711648081,-3.8416618693,7.8926673878,2.4925618177,-4.6519527597,10.5298,-4.5524,15.0002,-0.10226,0.0478,0.08177,0.00165,0.00158,0.00172,0.00118,0.00125,0.00115,0.029,0.0315,0.033,passive,2
1.5405,rehab,danger_high_force,135.2647413403,-667.471213964,183.9882653227,-177.3749303775,0.1385535695,-149.9708137367,70.9035,1.4272,-145.1667,-293.8707,-39.5271,32.1987,75.8871135973,25.7025844477,80.1860998728,-19.4613190864,-89.1664169587,-42.6673091604,-8.2189108826,-3.0801024644,-5.8410912495,8.5629868494,-0.1427639458,-4.9101158752,11.1092,-5.0528,15.797,-0.1104,0.06392,0.07343,0.00165,0.00158,0.00172,0.00118,0.00125,0.00115,0.029,0.0315,0.033,passive,2
1.5605,rehab,danger_high_force,136.630149595,-667.4504782473,181.0385641211,-177.3806821107,0.1361299336,-149.9711189276,64.1687,-1.2174,-145.3433,-58.4265,-43.2792,-84.5695,75.7130456763,25.7263308108,80.1133028673,-19.2782475568,-89.2325233302,-42.8551814026,-6.7476772079,-3.181725387,-4.2490147196,8.5005636809,-1.323658986,-8.7248919756,11.3152,-5.2743,15.9557,-0.10807,0.06669,0.0763,0.00165,0.00158,0.00172,0.00118,0.00125,0.00115,0.029,0.0315,0.033,passive,2
1.5805,rehab,danger_high_force,137.8314907302,-667.5199102011,178.174532128,-177.3805083226,0.1401144131,-149.9718970448,68.5665,-0.304,-148.5494,91.1989,111.3453,56.5347,75.617206509,25.5753154322,80.016139284,-19.1212965392,-89.2193633182,-43.0163048395,-4.9581881135,-3.9942233955,-6.2449424348,8.2138770144,-1.1042790199,-8.767779272,11.5387,-4.5842,15.6964,-0.09841,0.07044,0.07083,0.00165,0.00158,0.00172,0.00118,0.00125,0.00115,0.029,0.0315,0.033,passive,2
1.6005,rehab,danger_high_force,139.3728083354,-667.4626388864,175.0965868013,-177.3790908233,0.136443626,-149.9725156111,67.8167,3.2364,-143.0819,2538.757,11.6247,-7090.7091,75.5147181517,25.566561875,79.8635051699,-18.9496924763,-89.276694491,-43.2058925735,-5.404810135,-4.2249068954,-3.199119831,8.2635253622,-0.8454393046,-4.4393288381,12.3022,-5.2272,15.977,-0.11881,0.05764,0.07982,0.00165,0.00158,0.00172,0.00118,0.00125,0.00115,0.029,0.0315,0.033,passive,2
1.6205,rehab,danger_high_force,140.5441583215,-667.3904538874,172.4512545066,-177.3820997661,0.1396323522,-149.973385305,170.1167,0.161,-432.1778,2587.9045,-94.5018,-7514.8062,75.4010141036,25.4063191564,79.8881744908,-18.7907555247,-89.2531808904,-43.193877993,-21.890134225,-10.2398840778,-12.8245895562,21.3290391452,2.6786196533,-17.8079523955,14.0982,-5.5954,17.1156,-0.12759,0.06307,0.08519,0.00165,0.00158,0.00172,0.00118,0.00125,0.00115,0.029,0.0315,0.033,passive,2
1.6405,rehab,danger_high_force,146.1774783098,-667.456199974,157.8094749053,-177.3768116993,0.1319138992,-149.9682871532,171.3329,-0.5437,-443.6742,-3001.0446,25.7491,7326.635,74.6391127827,25.1569665119,79.3505215876,-18.0965309104,-89.1695497048,-43.9182106693,-20.3629422444,-8.5672776832,-17.0398483345,21.4373548723,-0.8562118366,-20.9464029224,15.1376,-6.0085,17.4665,-0.13396,0.06009,0.0949,0.00165,0.00158,0.00172,0.00118,0.00125,0.00115,0.029,0.0315,0.033,passive,2
1.6605,rehab,danger_high_force,147.3974730607,-667.4122005196,154.704287013,-177.3769557274,0.1343567816,-149.9657119844,50.075,1.1909,-139.1124,-3229.6722,72.275,7965.1979,74.5864964138,25.0636280491,79.2065805574,-17.9332613298,-89.2874293638,-44.0317341099,-6.5107259042,-2.3639271065,-5.8216381386,5.6177005343,-1.4886942088,-5.1363615701,13.98,-5.5338,15.3862,-0.11086,0.04365,0.09504,0.00165,0.00158,0.00172,0.00118,0.00125,0.00115,0.029,0.0315,0.033,passive,2
1.6805,rehab,danger_high_force,148.1804768755,-667.4085625778,152.244979089,-177.3791305525,0.137520794,-149.9697981538,42.146,2.3473,-125.0663,-214.2746,40.5334,500.9286,74.3786837466,25.0624094277,79.1176560621,-17.8718228891,-89.2290974732,-44.1236651321,-9.0469788629,-3.7837397478,-3.9967013837,3.7732829714,1.2525898708,-2.3596328607,14.7562,-5.7739,16.1711,-0.11948,0.04905,0.09571,0.00165,0.00158,0.00172,0.00118,0.00125,0.00115,0.029,0.0315,0.033,passive,2
1.7005,rehab,danger_high_force,149.08331226,-667.3183070762,149.7016361889,-177.379120824,0.1418395762,-149.972568264,41.504,2.8123,-119.0753,-167.8459,-40.2349,497.213,74.2246172593,24.9122784592,79.0467125021,-17.7823300109,-89.237325769,-44.1261194243,-6.2153372088,-6.6084631579,-2.6141138854,7.0891261518,-1.6681496201,-6.9821814968,13.6882,-4.9728,15.1227,-0.10748,0.05194,0.09836,0.00165,0.00158,0.00172,0.00118,0.00125,0.00115,0.029,0.0315,0.033,passive,2
1.7205,rehab,danger_high_force,149.8406360248,-667.2960716891,147.4819690316,-177.3804822383,0.1386504903,-149.9670004969,35.4321,0.7379,-105.1778,-202.8219,6.5095,572.7423,74.1300702582,24.7980709013,79.0130915067,-17.588257843,-89.295823458,-44.402952392,-3.7263315268,-3.4778660156,-2.7671506608,4.7640979591,0.7233336389,-5.9777055706,13.0292,-4.9888,14.6397,-0.10716,0.05139,0.08475,0.00165,0.00158,0.00172,0.00118,0.00125,0.00115,0.029,0.0315,0.033,passive,2
1.7405,rehab,danger_high_force,150.5005980201,-667.2887894544,145.4945261811,-177.3794826643,0.1365116852,-149.9727307003,33.3911,3.0727,-96.1656,-157.5242,99.9022,581.2268,74.0755639982,24.7731638186,78.9360264756,-17.5917660926,-89.2083924234,-44.3652276471,-3.8288963578,-2.2773161348,-4.3149058792,5.2913700278,2.3551959185,-2.905791335,13.5633,-4.6215,14.3539,-0.10524,0.04109,0.08793,0.00165,0.00158,0.00172,0.00118,0.00125,0.00115,0.029,0.0315,0.033,passive,2
1.7605,rehab,danger_high_force,151.1762800911,-667.1731655959,143.6353467035,-177.3781559156,0.1387107586,-149.970911123,29.1312,4.734,-81.9287,-409.4122,-20.8861,771.7545,73.9769144039,24.7069782559,78.8404952715,-17.3766030419,-89.2016156213,-44.5191840454,-1.6656225898,-0.6197521901,-5.4212653899,5.6167800502,-1.6092562412,-5.7521683035,13.1283,-4.7954,13.6362,-0.10155,0.04451,0.07818,0.00165,0.00158,0.00172,0.00118,0.00125,0.00115,0.029,0.0315,0.033,passive,2
1.7805,rehab,danger_high_force,151.665845015,-667.0994282559,142.2173790835,-177.3782937942,0.1349562481,-149.9713337275,17.0146,2.2372,-65.2954,-397.119,-102.522,681.7867,74.0089390946,24.748373731,78.71917586,-17.3670948906,-89.2727626731,-44.5953143793,-5.0369303273,-0.3050420157,-0.4650873737,1.1363389945,-0.9067880964,-2.5036238091,15.1013,-5.4676,15.3367,-0.12037,0.04872,0.10179,0.00165,0.00158,0.00172,0.00118,0.00125,0.00115,0.029,0.0315,0.033,passive,2
1.8005,rehab,danger_high_force,151.8568646064,-667.083677248,141.0235315446,-177.3820035931,0.1410567881,-149.9731127772,13.2464,0.6331,-54.6572,-104.5528,11.8597,547.2461,73.7754371908,24.6947765753,78.8218917765,-17.3311494821,-89.2378871451,-44.6193289978,-3.8967173051,-3.5885348625,-1.8185015145,5.5114213692,2.9990525388,-3.2066386114,14.4918,-5.4757,15.114,-0.12028,0.05276,0.09244,0.00165,0.00158,0.00172,0.00118,0.00125,0.00115,0.029,0.0315,0.033,passive,2
1.8205,rehab,danger_high_force,152.1957016296,-667.0741022686,140.0310906914,-177.3793554324,0.1343458755,-149.9736907769,12.8325,2.7116,-43.4055,16.9124,52.8628,654.4928,73.8530704024,24.6048323365,78.6464357995,-17.1466380358,-89.1528005715,-44.7235799237,-1.0874992295,-0.9644719488,-4.7585098938,2.7452323678,-0.2517752683,-2.3872454868,13.8519,-5.2092,14.1525,-0.11407,0.04808,0.09108,0.00165,0.00158,0.00172,0.00118,0.00125,0.00115,0.029,0.0315,0.033,passive,2
1.8405,rehab,danger_high_force,152.3701646646,-666.9752133982,139.2873100914,-177.3765179017,0.1368740227,-149.9723403975,13.9229,2.7477,-28.4775,-184.652,-17.7046,975.6708,73.7319372216,24.6561976974,78.6315513808,-17.2213401874,-89.2479581558,-44.7148188172,-2.668723758,-0.9781431403,2.5528641841,-1.6073022679,-3.6565520381,0.0785415407,14.747,-4.9413,14.5748,-0.10895,0.03685,0.10491,0.00165,0.00158,0.00172,0.00118,0.00125,0.00115,0.029,0.0315,0.033,passive,2
1.8605,rehab,danger_high_force,152.7526181258,-666.9641957912,138.8919908218,-177.3784564656,0.1379527906,-149.9749917266,5.4464,2.0034,-4.3787,-537.0038,-22.2113,867.7913,73.7463214521,24.5657066109,78.7485503668,-17.2109301265,-89.2990626531,-44.7204382621,0.4334303175,-2.1728248495,2.181615289,0.8501072913,0.2367449746,1.6347231084,14.3178,-4.6162,13.7603,-0.10211,0.02919,0.09844,0.00165,0.00158,0.00172,0.00118,0.00125,0.00115,0.029,0.0315,0.033,passive,2
1.8805,rehab,danger_high_force,152.588021598,-666.8950768742,139.1121618427,-177.3801509801,0.1353291179,-149.9684167451,-7.5572,1.8592,6.2342,-381.8969,11.8039,551.7404,73.7492744343,24.5692847034,78.7188159923,-17.1873358957,-89.2384883569,-44.6494298929,1.0257076231,2.4461738309,0.4211066436,-0.7130870429,0.6038913956,-0.3934335619,19.0724,-4.9361,-3.9219,-0.03171,-0.06871,0.11443,0.00165,0.00158,0.00172,0.00118,0.00125,0.00115,0.029,0.0315,0.033,passive,2
1.9005,rehab,danger_high_force,152.450328535,-666.8898274203,139.1413570511,-177.3747479538,0.134773347,-149.9782540402,-9.8295,2.4756,17.6909,-25.6251,64.6563,838.2225,73.787349757,24.6635535641,78.7653946326,-17.2394536082,-89.2749069972,-44.7361756046,1.5410113761,2.312578122,0.1237789893,-2.5853393976,0.4489398798,-0.931076851,18.9577,-5.1066,-4.2286,-0.03802,-0.08388,0.11248,0.00165,0.00158,0.00172,0.00118,0.00125,0.00115,0.029,0.0315,0.033,passive,2
1.9205,rehab,danger_high_force,152.1948435648,-666.7960541028,139.819798181,-177.3763744208,0.1393070895,-149.9751961477,-8.5822,4.4455,39.7631,-8.8334,20.7851,686.2157,73.8109148894,24.6617878283,78.7237671519,-17.2907494716,-89.2205307617,-44.6866729669,0.3128110365,-0.7819433985,-0.6749654994,-1.7818667637,-0.4018359706,0.8522045088,20.5505,-5.1878,-4.72,-0.03619,-0.10122,0.11414,0.00165,0.00158,0.00172,0.00118,0.00125,0.00115,0.029,0.0315,0.033,passive,2
1.9405,rehab,danger_high_force,152.1070387676,-666.7120089972,140.7318792203,-177.3761770369,0.1359162348,-149.9728129843,-10.1828,3.307,45.1395,-294.7471,-63.2611,613.9914,73.7998621985,24.6322758282,78.7383960126,-17.3107282788,-89.2909804361,-44.7020874242,2.3479127724,1.0312317991,2.148059649,-1.3748775041,-1.4032998454,3.041336207,21.7629,-5.6244,-4.6154,-0.04743,-0.09824,0.12524,0.00165,0.00158,0.00172,0.00118,0.00125,0.00115,0.029,0.0315,0.033,passive,2
1.9605,rehab,danger_high_force,151.7875320617,-666.6637751536,141.6253796686,-177.378493903,0.1344532006,-149.9727847785,-20.3721,1.915,64.3227,-501.6101,-47.4338,1115.5421,73.9048314003,24.7030371002,78.8096895379,-17.3457445718,-89.2766627555,-44.5650195187,2.421162998,-1.0608774298,1.2416432272,-4.7130785338,1.4696387032,4.5313882201,19.9829,-5.0037,-3.9755,-0.02985,-0.08597,0.12028,0.00165,0.00158,0.00172,0.00118,0.00125,0.00115,0.029,0.0315,0.033,passive,2
1.9805,rehab,danger_high_force,151.2921536699,-666.6354082959,143.3047876301,-177.3725256711,0.1343318808,-149.9734832831,-30.2472,1.4096,89.7612,-3025.0856,-15.3105,8630.8758,73.8967087184,24.589840731,78.7880617417,-17.4992514201,-89.2321948879,-44.5208318954,3.2203328822,2.7769291058,1.3271322697,-2.1291920816,1.4932875974,0.5382481437,20.1378,-4.8354,-4.3888,-0.03574,-0.08846,0.12361,0.00165,0.00158,0.00172,0.00118,0.00125,0.00115,0.029,0.0315,0.033,passive,2
2.0005,rehab,danger_high_force,150.5776444325,-666.6073902667,145.2158284989,-177.375517232,0.1374759764,-149.9689667814,-141.3756,1.3026,409.5577,-2990.4784,37.585,7982.6602,74.0336447156,24.8141142645,78.8627748287,-17.4309122551,-89.2169312516,-44.5434895929,21.2151101245,11.6875851789,15.3376701409,-17.985926751,-0.4006315704,16.0050706603,23.8808,-6.1189,-5.0054,-0.0495,-0.10068,0.14182,0.00165,0.00158,0.00172,0.00118,0.00125,0.00115,0.029,0.0315,0.033,passive,2
2.0205,rehab,danger_high_force,145.6371316104,-666.5833044156,159.6870972409,-177.3763208209,0.1330322191,-149.9708806718,-149.8663,2.913,409.0676,2585.2914,37.1214,-7594.3551,74.7453131234,25.0573441381,79.4015685473,-18.2186884902,-89.2482201508,-43.880629069,19.9377645362,7.2740142936,12.7420760318,-23.1038744382,0.0386761084,19.6832280508,23.5136,-6.3484,-3.7712,-0.04092,-0.10135,0.1485,0.00165,0.00158,0.00172,0.00118,0.00125,0.00115,0.029,0.0315,0.033,passive,2
2.0405,rehab,danger_high_force,144.5829914292,-666.4908694557,161.5785336011,-177.3786900267,0.1349712103,-149.9686344752,-37.9639,2.7875,105.7835,2883.0081,-3.2295,-7309.6924,74.831155297,25.1050748362,79.3724578699,-18.3550672326,-89.2153842073,-43.7561604709,4.3013075214,2.9062507794,1.8717795083,-5.7935569704,-0.8307725748,3.044996499,19.6837,-4.9418,-3.3177,-0.04164,-0.08501,0.11318,0.00165,0.00158,0.00172,0.00118,0.00125,0.00115,0.029,0.0315,0.033,passive,2
2.0605,rehab,danger_high_force,144.1185757126,-666.4718062847,163.9184386252,-177.3755948024,0.1372483758,-149.9728046851,-34.546,2.7838,116.6799,-402.8694,39.3727,377.3598,74.9173654242,25.1735941693,79.4764397277,-18.450430769,-89.2814510537,-43.758829209,6.611094566,4.2258521937,4.0686633618,-4.1613050106,-0.3309517592,2.6679091976,21.3616,-5.7371,-2.3928,-0.0494,-0.0745,0.12838,0.00165,0.00158,0.00172,0.00118,0.00125,0.00115,0.029,0.0315,0.033,passive,2
2.0805,rehab,danger_high_force,143.2011514574,-666.3795158859,166.2457307882,-177.3749629548,0.1362030256,-149.9729486475,-54.0787,4.3624,120.8779,-710.3272,-33.5491,527.3792,75.0955990796,25.2741089239,79.5352044044,-18.521519433,-89.2286222776,-43.649444103,6.4321382227,4.3929636737,3.5536854212,-6.4386398084,2.696513104,5.9338758844,19.0721,-4.6848,-2.1312,-0.03326,-0.07286,0.11517,0.00165,0.00158,0.00172,0.00118,0.00125,0.00115,0.029,0.0315,0.033,passive,2
2.1005,rehab,danger_high_force,141.9554288429,-666.2973118976,168.7535557334,-177.3721000103,0.1333324981,-149.9725723705,-62.9591,1.4419,137.7751,-156.1718,-58.8754,721.0807,75.1746509531,25.3493127162,79.6185871445,-18.7079763613,-89.1735905296,-43.5214741737,5.4690457524,2.69332348,6.412658279,-9.0901081986,1.4415393151,6.9551484757,21.538,-5.0604,-1.7706,-0.05019,-0.06966,0.12393,0.00165,0.00158,0.00172,0.00118,0.00125,0.00115,0.029,0.0315,0.033,passive,2
2.1205,rehab,danger_high_force,140.6827880276,-666.321840892,171.7567347633,-177.3723742967,0.132148185,-149.9719833662,-60.3255,2.0073,149.7212,-80.8428,66.9259,217.7081,75.3143609097,25.3818418631,79.7917107356,-18.885123761,-89.170960705,-43.3712381639,9.2134368187,3.0946163979,4.9207567177,-7.5348270731,-1.1360071062,7.8254623876,19.3331,5.196,-2.1355,0.07142,-0.07701,0.06081,0.00165,0.00158,0.00172,0.00118,0.00125,0.00115,0.029,0.0315,0.033,passive,2
2.1405,rehab,danger_high_force,139.5424071104,-666.2170180928,174.742401932,-177.3774840438,0.1356141894,-149.9682257127,-66.1928,4.1189,146.4834,-301.2368,20.1159,168.0169,75.5431884259,25.4730973722,79.8154174132,-19.0093694442,-89.2190308138,-43.2084556782,5.0648119882,3.9972537531,2.4405318326,-7.8726384065,-1.4558533038,8.5201005376,20.0694,5.5931,-2.5869,0.05874,-0.07332,0.07235,0.00165,0.00158,0.00172,0.00118,0.00125,0.00115,0.029,0.0315,0.033,passive,2
2.1605,rehab,danger_high_force,138.035076138,-666.1570844909,177.6160716726,-177.3781375071,0.1353278005,-149.974453484,-72.375,2.812,156.4418,-220.6062,-86.3201,509.3809,75.5169533893,25.5417320133,79.8893320089,-19.2000292972,-89.2291948372,-43.0304341424,5.3559173973,4.2406480865,5.0590876591,-8.4945611083,0.9267990406,8.2248242225,19.6593,5.3896,-1.4887,0.05758,-0.06205,0.08176,0.00165,0.00158,0.00172,0.00118,0.00125,0.00115,0.029,0.0315,0.033,passive,2
2.1805,rehab,danger_high_force,136.6474064477,-666.1045388374,181.0000751197,-177.3769386656,0.1317058712,-149.971798149,-75.017,0.6661,166.8587,-318.21,-25.8317,340.6844,75.7574251218,25.6427232956,80.0177809196,-19.3491518886,-89.1819588522,-42.8794627093,9.6561516674,2.63408752,5.6182970258,-8.7316153843,0.6251596546,6.1861304894,20.3956,4.6242,-1.4123,0.05468,-0.06744,0.08094,0.00165,0.00158,0.00172,0.00118,0.00125,0.00115,0.029,0.0315,0.033,passive,2
2.2005,rehab,danger_high_force,135.0343942499,-666.1304402533,184.2904180639,-177.3805564007,0.1342649548,-149.9729064043,-85.1034,1.7787,170.0692,-454.4799,73.9232,239.9313,75.903199456,25.6470955141,80.1140638899,-19.5492939126,-89.204188451,-42.7829889229,7.3242581169,5.5686898386,4.5704318035,-10.8145868314,-0.3895019087,5.3443572064,19.5936,5.2277,-0.8163,0.07292,-0.0529,0.07692,0.00165,0.00158,0.00172,0.00118,0.00125,0.00115,0.029,0.0315,0.033,passive,2
2.2205,rehab,danger_high_force,133.2432697321,-666.0333902513,187.8028432815,-177.3825636271,0.1337851106,-149.9780616143,-93.1962,3.623,176.4559,-146.8225,-10.2654,206.1437,76.0503954464,25.8654708892,80.2005981917,-19.7817353618,-89.1975389286,-42.665688421,7.0742554106,7.6233191874,6.7077448286,-9.2239855849,1.1134258378,5.2319897637,19.4952,4.7405,-1.1527,0.05063,-0.07222,0.07282,0.00165,0.00158,0.00172,0.00118,0.00125,0.00115,0.029,0.0315,0.033,passive,2
2.2405,rehab,danger_high_force,131.3065445137,-665.9855189657,191.3486545326,-177.3784895897,0.1372909652,-149.978703465,-90.9763,1.3681,178.315,59.8999,-77.8557,114.6351,76.1861696724,25.9520282816,80.3823736831,-19.918253336,-89.1596514175,-42.5737093323,7.8300880444,2.0690422448,7.5359590341,-9.2081694007,-0.170570236,6.692462505,19.8632,4.8807,-0.6402,0.04361,-0.06307,0.0894,0.00165,0.00158,0.00172,0.00118,0.00125,0.00115,0.029,0.0315,0.033,passive,2
2.2605,rehab,danger_high_force,129.604217066,-665.9786663401,194.9354414057,-177.3714851839,0.1349802468,-149.9732656007,-90.8002,0.5088,181.0413,-255.0811,0.5239,39.5331,76.3635989682,25.9482325789,80.5020365531,-20.1500621379,-89.204361738,-42.3979899208,7.8769452641,4.6745102656,5.9351039761,-10.2265283795,1.797124239,9.8421520527,20.129,5.2468,0.4389,0.05188,-0.0578,0.07433,0.00165,0.00158,0.00172,0.00118,0.00125,0.00115,0.029,0.0315,0.033,passive,2
2.2805,rehab,danger_high_force,127.6745346664,-665.9651667417,198.590307134,-177.3777277702,0.131602043,-149.9763708997,-101.1796,1.3891,179.8963,-220.2727,34.8921,9.9185,76.501247483,26.1390086922,80.6197778421,-20.3273144712,-89.0877664479,-42.1800232502,9.1967266672,5.1846699754,3.974145003,-9.704426731,1.4112567129,9.8424466576,19.0812,4.7769,0.0161,0.05103,-0.05086,0.07967,0.00165,0.00158,0.00172,0.00118,0.00125,0.00115,0.029,0.0315,0.033,passive,2
2.3005,rehab,danger_high_force,125.5570345804,-665.9231042628,202.131292459,-177.3774861897,0.1284338541,-149.9732021643,-99.6112,1.9045,181.4381,-190.7637,20.6839,179.8993,76.7314680349,26.155619378,80.6610023532,-20.5382392071,-89.1479114695,-42.0042920545,13.1563518154,5.4180670928,5.2140693514,-8.3030528835,-2.7654753947,9.3930978991,18.1521,4.3044,0.2486,0.04735,-0.04486,0.07132,0.00165,0.00158,0.00172,0.00118,0.00125,0.00115,0.029,0.0315,0.033,passive,2
2.3205,rehab,danger_high_force,123.6900884595,-665.8889871008,205.8478293633,-177.3754707872,0.1341556105,-149.9696698941,-108.8101,2.2164,187.0922,-299.8039,-9.8968,-83.0595,77.0275015556,26.3557313759,80.8283406162,-20.6594365865,-89.1983854637,-41.8042993342,9.9562648292,7.7102046566,7.520151682,-9.2442793981,-0.5689565278,8.6130069368,19.8467,5.0123,0.4902,0.04928,-0.05398,0.08873,0.00165,0.00158,0.00172,0.00118,0.00125,0.00115,0.029,0.0315,0.033,passive,2
2.3405,rehab,danger_high_force,121.2046301421,-665.8344480121,209.6149823395,-177.3784557558,0.1320724075,-149.9773992933,-111.6033,1.5086,178.1157,1729.3014,-13.5447,-2972.5096,77.1297186281,26.4640275642,80.9618084205,-20.908010383,-89.1706697306,-41.659771777,7.1512744127,2.9770123639,6.2507284882,-11.7384108134,1.8613082325,5.9673806074,19.1898,5.0496,0.3744,0.04616,-0.04893,0.08389,0.00165,0.00158,0.00172,0.00118,0.00125,0.00115,0.029,0.0315,0.033,passive,2
2.3605,rehab,danger_high_force,119.2259560601,-665.8286422661,212.9724564186,-177.3787559975,0.1309252624,-149.9769809367,-39.6381,1.6746,68.1919,1453.9674,-17.0811,-2455.7163,77.3135525321,26.4748118705,81.0783697557,-21.1289730191,-89.1239331344,-41.5656041099,1.1859296494,-0.1737986712,3.2636896892,-3.5967799525,0.1842621395,2.7784016798,16.0313,3.9655,1.1117,0.04224,-0.04257,0.0568,0.00165,0.00158,0.00172,0.00118,0.00125,0.00115,0.029,0.0315,0.033,passive,2
2.3805,rehab,danger_high_force,119.6191079024,-665.7674633426,212.3426568426,-177.3747329574,0.1325628846,-149.9703059899,-53.4446,0.8254,79.887,-2164.9601,-45.893,3043.3375,77.177155814,26.4570756174,81.092356008,-21.0518815811,-89.163299245,-41.5486357098,3.0876783914,1.3243437852,3.7593580527,-3.3990771081,1.0503533521,2.8847092406,18.4484,4.3925,0.4735,0.03839,-0.05087,0.07402,0.00165,0.00158,0.00172,0.00118,0.00125,0.00115,0.029,0.0315,0.033,passive,2
2.4005,rehab,danger_high_force,117.08817144,-665.7956272494,216.167937368,-177.3820568038,0.1336117121,-149.9731428187,-126.2365,-0.1611,189.9254,-1834.3112,15.6122,2769.9447,77.4370596677,26.5277856219,81.2287440778,-21.2649361034,-89.0819190003,-41.4502157403,11.168862091,4.9448991578,4.6978831955,-11.4026239778,0.9196994952,7.4866515132,18.3843,4.5604,1.4005,0.03742,-0.04144,0.07094,0.00165,0.00158,0.00172,0.00118,0.00125,0.00115,0.029,0.0315,0.033,passive,2
2.4205,rehab,danger_high_force,114.5696495345,-665.7739075352,219.9396713406,-177.3751474657,0.1342874306,-149.9768728513,-126.8171,1.4499,190.6848,-10.8134,26.2415,-105.9294,77.6239102977,26.6548715837,81.2802713359,-21.5079865402,-89.1265112652,-41.2491696493,12.1084045993,5.9067665865,6.8262077252,-14.0034355578,-1.8842597561,10.4522737306,19.2244,4.5598,1.491,0.03955,-0.05263,0.08211,0.00165,0.00158,0.00172,0.00118,0.00125,0.00115,0.029,0.0315,0.033,passive,2
2.4405,rehab,danger_high_force,112.0154889189,-665.7376326739,223.7953298099,-177.3831404017,0.1320258383,-149.9758961586,-126.669,0.8886,185.6882,-212.5541,-68.0697,-224.2544,77.9213958517,26.7640562853,81.5017923868,-21.8250735257,-89.1572893906,-41.0321247911,13.3220560164,4.2834767685,7.3125648584,-10.6389658815,0.7629192428,11.2473387504,18.676,4.2885,1.6179,0.03604,-0.04453,0.07604,0.00165,0.00158,0.00172,0.00118,0.00125,0.00115,0.029,0.0315,0.033,passive,2
2.4605,rehab,danger_high_force,109.5028897868,-665.7383653958,227.3671988122,-177.3767733047,0.1282246986,-149.980095504,-135.3192,-1.2729,181.7146,-84.3169,-15.6775,-158.5773,78.1567925383,26.8262106544,81.5727739302,-21.9335451755,-89.0959944955,-40.7992760993,8.9130481542,4.3516518473,7.729637184,-8.8870579064,-0.4666820643,8.1469931838,16.8119,4.4693,2.3015,0.03824,-0.0356,0.05708,0.00165,0.00158,0.00172,0.00118,0.00125,0.00115,0.029,0.0315,0.033,passive,2
2.4805,rehab,danger_high_force,106.6027198428,-665.7885496727,231.063915254,-177.3742505882,0.130114174,-149.9726538451,-130.0417,0.2615,179.3451,305.5299,61.2333,-326.2269,78.2779177779,26.9381223592,81.8109778742,-22.1805558419,-89.1759566731,-40.7062450637,6.7237024424,5.5363562705,7.7675677493,-9.8047883669,0.8518587724,6.0364245915,19.0327,5.0338,2.7152,0.04114,-0.03873,0.07873,0.00165,0.00158,0.00172,0.00118,0.00125,0.00115,0.029,0.0315,0.033,passive,2
2.5005,rehab,danger_high_force,104.3012229459,-665.7279072984,234.5410025796,-177.3766415377,0.1292107739,-149.9678347112,-123.098,1.1764,168.6656,220.7774,-21.1112,-504.6169,78.425740636,27.0476649053,81.8834766402,-22.3257367102,-89.0619201446,-40.5578191156,8.5938800744,7.1492136443,4.9332008986,-10.5527915792,2.7076969541,7.5587189848,16.4757,4.1477,2.6498,0.03143,-0.04107,0.06413,0.00165,0.00158,0.00172,0.00118,0.00125,0.00115,0.029,0.0315,0.033,passive,2
2.5205,rehab,danger_high_force,101.6787985806,-665.7414933343,237.8105377118,-177.3819470033,0.1326464337,-149.9725898541,-121.2106,-0.583,159.1604,79.9302,-34.4106,-335.9592,78.6216729809,27.224090905,82.0083059101,-22.6026675051,-89.067648795,-40.4038963044,8.8228004067,5.7451078079,6.5463756772,-9.2501907793,-1.0382636691,9.1846142033,17.2177,5.0938,2.2379,0.0521,-0.0465,0.06514,0.00165,0.00158,0.00172,0.00118,0.00125,0.00115,0.029,0.0315,0.033,passive,2
2.5405,rehab,danger_high_force,99.4527999422,-665.7512271208,240.9074193818,-177.3779783221,0.1303283163,-149.9764245119,-119.9008,-0.2,155.2272,-180.7523,42.8906,-235.0391,78.7786526523,27.2774692176,82.1453316673,-22.6957443413,-89.1034506914,-40.1904345475,6.8918776476,4.4149785493,5.3781457195,-8.5832363382,-0.6705288805,7.075594546,16.0079,4.0322,3.1733,0.02154,-0.03572,0.07343,0.00165,0.00158,0.00172,0.00118,0.00125,0.00115,0.029,0.0315,0.033,passive,2
2.5605,rehab,danger_high_force,96.8827655939,-665.749493893,244.0196253765,-177.373777897,0.1288433791,-149.9718609278,-128.4407,1.1326,149.7589,14.013,-21.9266,-287.1201,78.8973480868,27.400690047,82.2234317389,-22.9459969586,-89.0944699502,-40.1208725225,9.0622807775,2.8441661221,4.9578200187,-7.8396124243,-0.733425992,7.1764893445,16.0519,4.3496,3.607,0.04319,-0.02799,0.07281,0.00165,0.00158,0.00172,0.00118,0.00125,0.00115,0.029,0.0315,0.033,passive,2
2.5805,rehab,danger_high_force,94.315173314,-665.7059220206,246.8977736686,-177.3744307787,0.132128619,-149.9765247399,-119.3403,-1.0771,143.7424,252.2926,-78.1584,-352.7773,79.1411438834,27.3912358625,82.343644468,-23.0093288383,-89.132787731,-39.9033749737,10.8989116365,3.3273035195,6.5181791418,-9.0305798257,2.5262390807,8.9662589886,16.475,4.0738,3.313,0.03099,-0.01999,0.05859,0.00165,0.00158,0.00172,0.00118,0.00125,0.00115,0.029,0.0315,0.033,passive,2
2.6005,rehab,danger_high_force,92.1091534544,-665.7925770457,249.7693209087,-177.3728493181,0.1297708851,-149.9733521335,-118.349,-1.9937,135.6478,41.3941,48.243,-330.2936,79.3333045522,27.5337821878,82.4841589046,-23.3072201517,-88.993420387,-39.762222163,7.4287538422,7.4170368652,6.5225466841,-11.2447650451,2.6615278068,7.2067262708,15.2105,4.2252,3.2383,0.01797,-0.01959,0.05519,0.00165,0.00158,0.00172,0.00118,0.00125,0.00115,0.029,0.0315,0.033,passive,2
2.6205,rehab,danger_high_force,89.5812149158,-665.7856703387,252.323684252,-177.3807376951,0.1290546781,-149.9759777599,-117.6845,0.8526,130.5306,159.261,3.8334,-256.5782,79.4382940371,27.6879173371,82.6045463354,-23.4591194401,-89.0263266188,-39.6151059229,5.8891213299,1.8554809032,3.4398357256,-8.7786077082,0.0731532976,7.5219683787,14.6234,3.7437,3.2378,0.02877,-0.01833,0.05779,0.00165,0.00158,0.00172,0.00118,0.00125,0.00115,0.029,0.0315,0.033,passive,2
2.6405,rehab,danger_high_force,87.4017718672,-665.7584714039,254.9905466385,-177.3830832563,0.1300387011,-149.9785856317,-111.9785,-1.8404,125.3846,93.6832,-61.946,-335.2022,79.5688694054,27.6080014239,82.6217523336,-23.65836446,-88.9904942551,-39.4613434278,8.2254818941,0.7628018494,3.0415946362,-9.1513645203,-0.280813653,5.9266502929,14.9266,4.2031,3.6429,0.02385,-0.01792,0.06741,0.00165,0.00158,0.00172,0.00118,0.00125,0.00115,0.029,0.0315,0.033,passive,2
2.6605,rehab,danger_high_force,85.1020740794,-665.8592852596,257.339069738,-177.371211472,0.1276224024,-149.9710849487,-113.9372,-1.6252,117.1226,57.4322,61.4132,-250.8573,79.7673133129,27.718429411,82.7262101208,-23.8251740209,-89.0375591649,-39.3780399112,8.9331657222,7.194385286,7.7323284848,-5.7955047674,-2.1992749224,4.6567955985,16.234,3.7941,4.4447,0.02591,-0.01525,0.06563,0.00165,0.00158,0.00172,0.00118,0.00125,0.00115,0.029,0.0315,0.033,passive,2
2.6805,rehab,danger_high_force,82.8442833377,-665.8234793278,259.6754488304,-177.3828173496,0.1290734344,-149.9763151,-109.6812,0.6162,115.3503,172.5729,11.2317,-273.4413,79.9261960343,27.8957768353,82.931045473,-23.8901846507,-89.078465252,-39.2750716039,6.1386644788,2.0737792317,6.4912534068,-6.0428747943,-0.723742755,6.4266870022,14.9828,3.4654,3.8516,0.01866,-0.0184,0.0669,0.00165,0.00158,0.00172,0.00118,0.00125,0.00115,0.029,0.0315,0.033,passive,2
2.7005,rehab,danger_high_force,80.714824763,-665.8346391008,261.9530834731,-177.3754979145,0.12904507,-149.9799754453,-107.0343,-1.1759,106.1849,167.6148,-79.7545,-185.7232,80.012859892,27.8013805803,82.9858602571,-24.0668890127,-89.0665088751,-39.1209724311,7.4968316061,4.8641873765,1.3206811573,-5.8016983424,2.5656606217,7.0735874424,14.1332,3.5676,4.2002,0.01591,-0.01646,0.06341,0.00165,0.00158,0.00172,0.00118,0.00125,0.00115,0.029,0.0315,0.033,passive,2
2.7205,rehab,danger_high_force,78.5629115148,-665.8705165274,263.9228449616,-177.3806122792,0.1321343908,-149.9796565728,-102.9766,-2.574,107.9214,224.2125,7.952,63.4428,80.2260692985,28.0903443304,82.9838727193,-24.1222525844,-88.9758388271,-38.9921281062,8.4655482307,7.2151201567,4.8163836414,-5.881358308,1.7648035309,6.0083021598,13.4031,3.8931,3.5757,0.02783,-0.03081,0.056,0.00165,0.00158,0.00172,0.00118,0.00125,0.00115,0.029,0.0315,0.033,passive,2
2.7405,rehab,danger_high_force,76.5957591954,-665.9376001459,266.2699401032,-177.3748300557,0.129383208,-149.9734420583,-98.0658,-0.8579,108.7226,112.3357,30.0636,-413.0895,80.3514818212,28.0899853866,83.1785156028,-24.302143345,-88.9959167339,-38.8806403447,7.6776437275,0.7673981291,5.778401566,-9.4375376726,-1.2332628314,5.1934821405,15.651,4.0799,4.8752,0.0222,-0.01707,0.05819,0.00165,0.00158,0.00172,0.00118,0.00125,0.00115,0.029,0.0315,0.033,passive,2
2.7605,rehab,danger_high_force,74.6402796225,-665.9048305305,268.2717495019,-177.3812544154,0.129720357,-149.974744584,-98.4832,-1.3715,91.3978,32.9333,-41.0085,-394.3317,80.5331750476,28.1210402555,83.2150087819,-24.4997540913,-89.0251693404,-38.7843888206,4.8169212452,2.3483635174,3.0484284709,-6.7096568527,-0.9929480717,4.5284682136,14.4748,3.0644,4.4724,0.01688,-0.01175,0.05865,0.00165,0.00158,0.00172,0.00118,0.00125,0.00115,0.029,0.0315,0.033,passive,2
2.7805,rehab,danger_high_force,72.656430753,-665.992459473,269.9258534592,-177.3788721757,0.1317277493,-149.9790637015,-96.7485,-2.4982,92.9493,-102.9742,-52.9795,203.0949,80.544158671,28.1839199273,83.3004527416,-24.5705296191,-89.0356346567,-38.6995016162,3.0921597547,2.4726423324,6.3261678364,-4.0761865289,2.1073008937,5.3667944182,15.7065,4.3212,5.003,0.02965,-0.02444,0.06019,0.00165,0.00158,0.00172,0.00118,0.00125,0.00115,0.029,0.0315,0.033,passive,2
2.8005,rehab,danger_high_force,70.7703410344,-666.0047581314,271.9897233957,-177.3771856543,0.1274172507,-149.9778621113,-102.6022,-3.4907,99.5216,-354.3751,13.0243,4.2511,80.6568614378,28.2199459488,83.4680554954,-24.6628015524,-88.9408773046,-38.5697170438,5.5595406272,3.9411423631,3.3926665508,-6.6563858394,3.7491697789,4.040991457,16.3497,4.7669,4.7535,0.02087,-0.02019,0.05649,0.00165,0.00158,0.00172,0.00118,0.00125,0.00115,0.029,0.0315,0.033,passive,2
2.8205,rehab,danger_high_force,68.5523435452,-666.1320859643,273.9067187183,-177.3783954518,0.1301828212,-149.9784158808,-110.9235,-1.9772,93.1194,51.6615,107.5347,-200.9012,80.7665402961,28.3415656218,83.4361594036,-24.8367850527,-88.8856678656,-38.5378619579,5.5705649912,3.6904290949,0.9477474157,-7.8442029365,0.0885946679,6.2507916589,14.7532,3.7036,4.9922,0.01072,-0.01558,0.04527,0.00165,0.00158,0.00172,0.00118,0.00125,0.00115,0.029,0.0315,0.033,passive,2
2.8405,rehab,danger_high_force,66.3334023018,-666.083846862,275.7144989727,-177.3807920809,0.1295671434,-149.9691417124,-100.5357,0.8107,91.4856,281.1973,-10.4676,-138.3047,80.8796840375,28.3675631126,83.505965392,-24.9765696699,-88.9373335179,-38.3196853775,6.2204301035,1.95572143,3.0043894449,-6.8011659909,-1.6162909358,8.4187091781,15.6549,3.9703,5.6869,0.00771,-0.00514,0.06378,0.00165,0.00158,0.00172,0.00118,0.00125,0.00115,0.029,0.0315,0.033,passive,2
2.8605,rehab,danger_high_force,64.5309147202,-666.0996570142,277.566141986,-177.3811043157,0.1289352214,-149.9713210232,-99.6756,-2.3959,87.5872,-157.0197,-97.668,69.3225,81.0153575003,28.419794479,83.5563349814,-25.1088316923,-88.950319503,-38.2011135908,6.1184773197,1.8529517898,4.152041875,-5.645692219,1.6384914676,4.5728420969,15.3301,4.0799,5.6011,0.01719,-0.00134,0.05826,0.00165,0.00158,0.00172,0.00118,0.00125,0.00115,0.029,0.0315,0.033,passive,2
2.8805,rehab,danger_high_force,62.3463793152,-666.1796837097,279.2179870318,-177.3772436752,0.1289309708,-149.9783665695,-106.8165,-3.096,94.2585,-161.3107,-6.1444,53.4148,81.1244231303,28.4416811842,83.672047067,-25.2023973587,-88.8717938592,-38.1367716936,3.9353500021,3.1929413334,6.1526117081,-7.3262131998,-0.7647634066,3.6740186411,15.8087,4.333,5.5062,0.01695,-0.01114,0.0455,0.00165,0.00158,0.00172,0.00118,0.00125,0.00115,0.029,0.0315,0.033,passive,2
2.9005,rehab,danger_high_force,60.2582543403,-666.223496878,281.3364813119,-177.3750638504,0.1305962852,-149.9724587053,-106.128,-2.6417,89.7238,-53.2276,13.8716,-275.6362,81.1727715004,28.5475121323,83.8024394497,-25.4018802203,-88.9809100393,-38.0541528451,4.6146510066,5.9728538736,4.6460930463,-6.6117676786,-1.7591322228,7.6196256579,15.4703,4.2154,6.2499,0.01017,0.003,0.06093,0.00165,0.00158,0.00172,0.00118,0.00125,0.00115,0.029,0.0315,0.033,passive,2
2.9205,rehab,danger_high_force,58.1012592005,-666.2853515793,282.8069387604,-177.3841526081,0.1268628321,-149.9808817978,-108.9456,-2.5411,83.233,-225.4846,-24.3249,138.0736,81.3090091705,28.6805953392,83.8578907888,-25.4668680658,-88.9421591481,-37.8319866673,9.4512831119,1.8756972737,5.2459861742,-6.2492293327,1.8433484409,4.9472812206,16.2013,4.1152,5.4787,0.01258,-0.01131,0.05511,0.00165,0.00158,0.00172,0.00118,0.00125,0.00115,0.029,0.0315,0.033,passive,2
2.9405,rehab,danger_high_force,55.9004297548,-666.3251421718,284.6658027933,-177.3795876507,0.1275625729,-149.9769777926,-115.1474,-3.6147,95.2467,-193.7057,-27.0656,440.3433,81.5508228248,28.6225400233,84.0122788967,-25.6518493936,-88.9071761016,-37.8562615963,7.2382289552,2.3782368459,5.316994032,-5.6795783379,0.8887554037,3.325387922,15.191,4.0415,6.1912,0.00019,-0.00115,0.05212,0.00165,0.00158,0.00172,0.00118,0.00125,0.00115,0.029,0.0315,0.033,passive,2
2.9605,rehab,danger_high_force,53.495363648,-666.4299392276,286.6168082223,-177.3738952064,0.1264918186,-149.98092761,-116.6938,-3.6238,100.8468,0.1366,37.2098,-49.079,81.5985383287,28.775724813,84.0705705501,-25.6940511993,-88.9066089319,-37.6989711504,4.4993855859,5.8171937285,4.7231630223,-6.4736512144,-0.482417415,7.5402921704,16.1781,4.4454,6.3614,0.01732,-0.00744,0.06398,0.00165,0.00158,0.00172,0.00118,0.00125,0.00115,0.029,0.0315,0.033,passive,2
2.9805,rehab,danger_high_force,51.232676031,-666.4700923688,288.6996735172,-177.3770872842,0.1305821601,-149.9762490122,-115.1419,-2.1263,93.2836,-175.4575,8.2776,-152.9702,81.7307982483,28.8552277724,84.2012054176,-25.9107954422,-88.9264727982,-37.5546499095,7.5289450632,1.5889606341,3.6905258993,-9.0178668948,2.3606411297,8.2986538783,14.8365,4.1836,6.0621,0.01758,-0.00985,0.05704,0.00165,0.00158,0.00172,0.00118,0.00125,0.00115,0.029,0.0315,0.033,passive,2
3.0005,rehab,danger_high_force,48.8896866792,-666.5149911962,290.348151213,-177.3806057557,0.1266541542,-149.9772666492,-123.7121,-3.2927,94.728,-323.9669,-1.4994,194.6842,81.8996961313,28.8392832384,84.2181915861,-26.0547658751,-88.8121832868,-37.3670249953,8.8778443266,1.4919343465,2.3512744917,-8.3380433886,-1.0452059594,6.9958176944,16.3776,4.6126,7.405,0.01664,-0.01074,0.05851,0.00165,0.00158,0.00172,0.00118,0.00125,0.00115,0.029,0.0315,0.033,passive,2
3.0205,rehab,danger_high_force,46.2841902352,-666.6017984202,292.4887919023,-177.3834522483,0.1290273431,-149.9753217888,-128.1006,-2.1863,101.0709,-262.4954,49.2095,-87.2635,82.0859120213,28.9149051463,84.2952563973,-26.2443171777,-88.9682810366,-37.2748172017,7.3907653303,6.3702617357,4.5090799621,-6.8730663365,-3.6310697633,4.1354277227,15.5016,4.6096,7.1618,0.03074,-0.00299,0.05236,0.00165,0.00158,0.00172,0.00118,0.00125,0.00115,0.029,0.0315,0.033,passive,2
3.0405,rehab,danger_high_force,43.765662732,-666.6024422098,294.3909889824,-177.3827347295,0.1297092658,-149.9814261442,-134.212,-1.3243,91.2374,-240.8166,-24.4457,-130.841,82.1953267445,29.0940937078,84.3985547846,-26.3296885286,-88.9574260773,-37.2016078864,6.8856569689,4.8137142111,4.3475206558,-5.8772099254,1.0945958777,6.2765899467,15.9729,4.7624,7.7706,0.01099,-0.012,0.06276,0.00165,0.00158,0.00172,0.00118,0.00125,0.00115,0.029,0.0315,0.033,passive,2
3.0605,rehab,danger_high_force,40.9157117352,-666.6547693374,296.1382886412,-177.3793610069,0.1250715633,-149.9798795622,-137.7333,-3.1641,95.8373,2354.0617,-7.0294,-1609.929,82.3613383001,29.1074537147,84.4691572235,-26.4794055748,-88.9244972015,-37.0237536038,4.8086510622,1.6200870836,4.0927786709,-9.0674259933,1.997850204,8.5714780248,17.0826,4.7236,8.4684,0.01494,0.00454,0.07211,0.00165,0.00158,0.00172,0.00118,0.00125,0.00115,0.029,0.0315,0.033,passive,2
3.0805,rehab,danger_high_force,38.2563321989,-666.7290064218,298.2244811683,-177.3783826353,0.1311285412,-149.9799773621,-40.0495,-1.6054,26.8403,2693.3162,11.9797,-1851.8732,82.387672787,29.1588971911,84.5622659314,-26.6923855683,-88.8775120691,-36.8587487654,1.618048113,1.5954151153,2.3244366234,-2.8271907112,1.002355476,1.6258835663,14.3406,4.1427,7.3968,0.02318,0.00523,0.05228,0.00165,0.00158,0.00172,0.00118,0.00125,0.00115,0.029,0.0315,0.033,passive,2
3.1005,rehab,danger_high_force,39.3137320244,-666.7189872489,297.2118989972,-177.3816048982,0.1301520865,-149.9798905433,-30.0006,-2.6849,21.7624,-2054.8265,-38.8648,1667.0525,82.4260602246,29.1712703193,84.5621346884,-26.5924932032,-88.8844029825,-36.9587182612,2.5675141474,0.1313725794,4.0972907554,0.6172678354,1.5653100925,0.1101179041,15.0264,4.5341,7.1102,0.01836,-0.00701,0.07109,0.00165,0.00158,0.00172,0.00118,0.00125,0.00115,0.029,0.0315,0.033,passive,2
3.1205,rehab,danger_high_force,37.0563076452,-666.8364031028,299.094976179,-177.3793935072,0.128844938,-149.9834073981,-122.2426,-3.16,93.5224,-2585.5816,22.6496,1790.2027,82.4903733529,29.1641520943,84.7261575616,-26.6676948549,-88.8148996654,-36.8543440492,4.17377879,6.4282644864,3.6277173314,-8.3525747318,-0.4808875506,5.1751678432,17.0441,4.9863,8.0417,0.01397,0.00673,0.07043,0.00165,0.00158,0.00172,0.00118,0.00125,0.00115,0.029,0.0315,0.033,passive,2
3.1405,rehab,danger_high_force,34.4240298442,-666.8453887733,300.9527932996,-177.3812915619,0.1258811907,-149.9785770412,-133.4239,-1.7789,93.3705,-333.0741,-38.2728,-22.2254,82.5930113762,29.4284008988,84.7072433817,-26.9265961925,-88.9036384845,-36.7517115474,7.6202009706,6.5672150455,3.1190710283,-8.4701777896,-0.9224412376,5.6073684271,17.1812,5.0007,8.8287,0.0082,-0.00592,0.06956,0.00165,0.00158,0.00172,0.00118,0.00125,0.00115,0.029,0.0315,0.033,passive,2
3.1605,rehab,danger_high_force,31.7193524551,-666.9075604199,302.8297955179,-177.3832209044,0.1282604933,-149.9836107886,-135.5655,-4.691,92.6333,-101.0868,10.4356,-60.9257,82.7951813917,29.4268406961,84.8509204028,-27.0065019665,-88.8517973149,-36.6300493121,9.3621112769,-0.4451790576,6.344004888,-6.9112103114,3.006986398,7.0044816848,15.7358,4.1014,8.2752,0.00102,0.00554,0.05655,0.00165,0.00158,0.00172,0.00118,0.00125,0.00115,0.029,0.0315,0.033,passive,2
3.1805,rehab,danger_high_force,29.0014091517,-667.0330268521,304.6581269043,-177.3834566191,0.1310176179,-149.9769020084,-137.4674,-1.3615,90.9335,-73.7272,104.9725,-88.7142,82.9674958273,29.4105937365,84.9610035772,-27.2030446049,-88.7833590286,-36.4715322801,7.6001320787,1.5356449242,6.4720140304,-9.4132375993,-0.0821640012,7.5916572811,16.7352,4.8641,9.1116,0.0103,0.01377,0.05809,0.00165,0.00158,0.00172,0.00118,0.00125,0.00115,0.029,0.0315,0.033,passive,2
3.2005,rehab,danger_high_force,26.2206583799,-666.9620207019,306.467133716,-177.3794581206,0.1249590014,-149.9804583789,-138.5146,-0.4921,89.0848,-20.5212,-24.9322,-111.4344,83.0991866748,29.4882664931,85.109800964,-27.3830314704,-88.855083875,-36.3263830209,8.5812086896,4.7842848552,2.927557919,-7.5523823085,-0.5406138516,7.5830449923,17.5573,4.9278,9.8089,-0.00227,0.00479,0.06858,0.00165,0.00158,0.00172,0.00118,0.00125,0.00115,0.029,0.0315,0.033,passive,2
3.2205,rehab,danger_high_force,23.4608249305,-667.0527089015,308.2215177801,-177.3776090991,0.1265490058,-149.9821377647,-138.2882,-2.3588,86.4761,-229.3574,-34.4296,-51.9014,83.3107441749,29.6019651307,85.078105894,-27.5051398973,-88.8049835826,-36.1682104804,5.4909165546,5.4771167514,2.6069295903,-7.9950999346,0.4111747707,6.8399224167,15.8729,4.553,8.8669,0.01172,0.00979,0.06248,0.00165,0.00158,0.00172,0.00118,0.00125,0.00115,0.029,0.0315,0.033,passive,2
3.2405,rehab,danger_high_force,20.6891303295,-667.0563724385,309.9261768154,-177.3800655262,0.1297938226,-149.9831230274,-147.6889,-1.8692,87.0087,-237.6928,-36.2875,-215.3207,83.318823337,29.7073511632,85.2140781476,-27.7028354678,-88.8386368842,-36.0527861242,6.0947966791,4.0408017294,7.0624573936,-6.4694329615,0.3488400731,6.0587890615,17.2307,5.369,10.1283,0.01225,0.0072,0.07672,0.00165,0.00158,0.00172,0.00118,0.00125,0.00115,0.029,0.0315,0.033,passive,2
3.2605,rehab,danger_high_force,17.5532689224,-667.1274782375,311.7018664411,-177.3810711125,0.1293237457,-149.9840992604,-147.7959,-3.8103,77.8633,23.4456,-65.4917,-137.4476,83.554536042,29.7635971999,85.3606041897,-27.7639172157,-88.7910299797,-35.9258589179,8.5205256149,3.5290951027,6.9260052752,-6.4640158704,0.2899310241,9.7676989393,17.7265,5.0249,10.618,0.01146,0.01481,0.05921,0.00165,0.00158,0.00172,0.00118,0.00125,0.00115,0.029,0.0315,0.033,passive,2
3.2805,rehab,danger_high_force,14.7772937977,-667.2087841031,313.0407068345,-177.3830740584,0.1262661373,-149.9821438604,-146.7511,-4.4889,81.5108,-177.7166,23.76,227.0203,83.6596443616,29.8485149673,85.4911183586,-27.9613961026,-88.8270396432,-35.6620781667,8.0006813013,3.2439129253,5.6282358802,-7.8813295901,-0.9444564056,4.5472766637,17.3543,5.452,10.886,0.01171,0.00757,0.06632,0.00165,0.00158,0.00172,0.00118,0.00125,0.00115,0.029,0.0315,0.033,passive,2
3.3005,rehab,danger_high_force,11.6832259009,-667.307034292,314.9622989815,-177.3782332018,0.1273461202,-149.9830007161,-154.9046,-2.8599,86.9441,-73.034,125.4432,44.5242,83.8745632941,29.8933537169,85.5857336249,-28.0791703993,-88.8288082359,-35.7439678514,7.7639697953,3.6283726259,3.4622825991,-7.8258290449,1.338641609,4.3447260391,16.9794,4.9729,10.568,0.01529,0.01841,0.05721,0.00165,0.00158,0.00172,0.00118,0.00125,0.00115,0.029,0.0315,0.033,passive,2
3.3205,rehab,danger_high_force,8.581110644,-667.3231796968,316.5184693636,-177.3828319139,0.1243918019,-149.9815252312,-149.6724,0.5288,83.2918,259.9123,59.4568,-80.5153,83.9702031534,29.9936498723,85.6296096626,-28.2744292644,-88.7734939788,-35.4882891251,5.1896021546,6.6958977201,4.1190768071,-10.0432670656,0.4187643144,8.8277685102,16.6679,5.4703,10.1577,0.01831,-0.00142,0.06348,0.00165,0.00158,0.00172,0.00118,0.00125,0.00115,0.029,0.0315,0.033,passive,2
3.3405,rehab,danger_high_force,5.6963284816,-667.2858811937,318.2939701851,-177.3798936143,0.1285785687,-149.9809918243,-144.5081,-0.4816,83.7235,109.5192,-97.7302,-272.2864,84.0821473803,30.1611896257,85.7504966972,-28.480901082,-88.8120576633,-35.3908571109,6.3097973087,5.2254160045,5.0664641302,-8.9187961856,-0.0976971139,4.4028517255,15.9895,4.7684,10.4698,0.00188,0.02039,0.05921,0.00165,0.00158,0.00172,0.00118,0.00125,0.00115,0.029,0.0315,0.033,passive,2
3.3605,rehab,danger_high_force,2.8007871436,-667.3424444097,319.8674074883,-177.3768700582,0.1237904961,-149.9799459293,-145.2917,-3.3804,72.4003,-0.4193,-47.7761,-405.1656,84.2225950458,30.2026665125,85.8322682278,-28.6311811119,-88.7774018634,-35.3121750561,8.1905236221,2.1083407973,4.6121713386,-8.6741337246,0.4027637395,7.751700606,15.9179,4.9597,10.9051,0.01334,0.02071,0.06117,0.00165,0.00158,0.00172,0.00118,0.00125,0.00115,0.029,0.0315,0.033,passive,2
3.3805,rehab,danger_high_force,-0.115338231,-667.4210964808,321.1899831439,-177.380066617,0.1244191153,-149.9827617668,-144.5249,-2.3927,67.5168,150.3804,85.4342,-149.2477,84.4097683252,30.2455232576,85.9349835508,-28.8278664309,-88.7959471138,-35.0807890867,7.5250070359,1.790555653,6.5293862708,-7.704027586,0.6095053827,7.1580724694,16.3603,4.7463,11.3138,0.00161,0.01532,0.05297,0.00165,0.00158,0.00172,0.00118,0.00125,0.00115,0.029,0.0315,0.033,passive,2
3.4005,rehab,danger_high_force,-2.9802072061,-667.4381509178,322.568080629,-177.3847745494,0.1245535287,-149.9886217973,-139.2765,0.037,66.4304,171.9236,48.8442,45.7255,84.5235953272,30.2742887386,86.0934436786,-28.9393422153,-88.7530216481,-35.0258521573,4.1190347505,4.3176757728,4.0901697506,-4.4682517446,0.5194273839,5.0148469179,16.1987,5.4497,11.0768,0.01794,0.01291,0.06334,0.00165,0.00158,0.00172,0.00118,0.00125,0.00115,0.029,0.0315,0.033,passive,2
3.4205,rehab,danger_high_force,-5.6863962878,-667.4196170558,323.8471997218,-177.3828327735,0.1258140682,-149.9832438326,-137.6479,-0.4389,69.3458,-7369.1109,-49.7436,3225.9318,84.5745297152,30.4182302885,86.0985903408,-29.0065965007,-88.7751700184,-34.88019521,7.0318747345,4.5544918193,1.9550451922,-5.4663661247,-0.1669466009,7.7252759919,16.8745,5.1875,11.8351,-0.00202,0.01447,0.06147,0.00165,0.00158,0.00172,0.00118,0.00125,0.00115,0.029,0.0315,0.033,passive,2
3.4405,rehab,danger_high_force,-8.4861237174,-667.4557067596,325.3419145184,-177.3826439407,0.1266601992,-149.9863644793,-434.0409,-1.9528,195.4677,-7371.5399,-32.8967,2817.8133,84.8048703166,30.4564684114,86.1716454863,-29.1579968603,-88.7596995121,-34.7168411176,23.7351707591,10.7258032272,15.2563386863,-22.5118247619,0.8648561782,19.0648908051,18.6315,6.148,13.9966,0.00535,0.02718,0.06769,0.00165,0.00158,0.00172,0.00118,0.00125,0.00115,0.029,0.0315,0.033,passive,2
3.4605,rehab,danger_high_force,-23.0480317582,-667.4977273786,331.6659071035,-177.3794920898,0.1232925496,-149.9857967034,-432.5095,-1.7548,182.0584,7496.416,49.3298,-3701.1703,85.5239365455,30.8472624176,86.7088438882,-29.9070694912,-88.7405757713,-34.1175995778,18.9597984802,12.2822023666,15.0931131359,-21.6296032141,0.0022426251,20.8373910917,18.5032,6.6932,15.7157,0.00788,0.03374,0.0585,0.00165,0.00158,0.00172,0.00118,0.00125,0.00115,0.029,0.0315,0.033,passive,2
3.4805,rehab,danger_high_force,-25.7865041207,-667.52589738,332.6242496656,-177.3871700175,0.1261164655,-149.988201583,-134.1842,0.0204,47.4209,7550.6321,44.3542,-3432.2362,85.5632622558,30.947756506,86.7753700117,-30.0231809889,-88.7596098071,-33.883345474,8.1730319269,2.4101768291,4.2382574065,-7.2053876262,0.4092005391,4.3287096668,16.7464,5.6647,14.2256,0.00307,0.04952,0.06412,0.00165,0.00158,0.00172,0.00118,0.00125,0.00115,0.029,0.0315,0.033,passive,2
3.5005,rehab,danger_high_force,-28.4154016908,-667.496910096,333.5627420171,-177.3814955593,0.1260758313,-149.985485145,-130.4842,0.0194,44.7689,454.2542,-41.5195,-219.9331,85.8508578226,30.9436694907,86.8783741845,-30.1952849963,-88.7242077497,-33.9444511911,7.7382378446,1.4884723441,4.5631917781,-7.8082717034,-1.5058601774,4.0832075463,15.9324,5.418,13.7389,0.00524,0.0295,0.06249,0.00165,0.00158,0.00172,0.00118,0.00125,0.00115,0.029,0.0315,0.033,passive,2
3.5205,rehab,danger_high_force,-31.0058731467,-667.5251212165,334.4150069688,-177.3850512201,0.1263746554,-149.9858894165,-116.0141,-1.6403,38.6235,852.2027,30.5317,-144.0156,85.8727917696,31.0072953998,86.9578976828,-30.335511857,-88.8198442142,-33.7200171721,2.8496988277,3.1103341304,1.8226470564,-6.0718165256,-1.8214705383,3.7042971275,16.083,-5.289,13.9205,-0.10077,0.04046,0.10228,0.00165,0.00158,0.00172,0.00118,0.00125,0.00115,0.029,0.0315,0.033,passive,2
3.5405,rehab,danger_high_force,-33.0559649398,-667.5625239399,335.107683903,-177.3811923435,0.1245962225,-149.9845581716,-96.3961,1.2407,39.0083,603.1004,36.5004,-48.3107,85.9648457757,31.068082856,86.9512800667,-30.4381576573,-88.7970665713,-33.796279306,5.004152621,1.6327038303,3.6835007802,-3.8409077832,2.3229417805,1.96787082,14.682,-4.9562,13.5819,-0.10548,0.03517,0.09928,0.00165,0.00158,0.00172,0.00118,0.00125,0.00115,0.029,0.0315,0.033,passive,2
3.5605,rehab,danger_high_force,-34.8617177801,-667.475494312,335.9753393071,-177.3832525528,0.1246732706,-149.9859804837,-91.8901,-0.1803,36.6911,321.8403,-59.8804,-303.3316,86.0729578744,31.072603553,87.1052377141,-30.4891481683,-88.726926543,-33.6413023393,3.8031102477,2.1851230613,4.1450295683,-4.4767311942,0.2202488678,6.6530909981,15.4561,-5.1147,13.8334,-0.11453,0.03247,0.09466,0.00165,0.00158,0.00172,0.00118,0.00125,0.00115,0.029,0.0315,0.033,passive,2
3.5805,rehab,danger_high_force,-36.7315675804,-667.5697370897,336.5753286002,-177.3842509502,0.1257540226,-149.97516427,-83.5225,-1.1545,26.875,495.6369,29.5158,-387.1682,86.1169701856,31.1554877784,87.1170812495,-30.617226905,-88.7882566165,-33.5301556661,3.7280805866,2.6350962806,2.8159932716,-4.6001765994,-1.7394877676,4.0378549777,15.864,-5.7079,14.4815,-0.1143,0.04593,0.10063,0.00165,0.00158,0.00172,0.00118,0.00125,0.00115,0.029,0.0315,0.033,passive,2
3.6005,rehab,danger_high_force,-38.202617966,-667.5216760116,337.0503410165,-177.3790828075,0.1265274762,-149.9828653212,-72.0646,1.0003,21.2044,675.3613,36.3087,-211.5046,86.2220810979,31.1780074042,87.2178774449,-30.6731552323,-88.7965060537,-33.4797881402,1.1280413765,2.0056403534,0.6321072795,-3.9922862043,0.0894670662,3.060632686,14.804,-5.2632,13.8361,-0.11098,0.03334,0.08909,0.00165,0.00158,0.00172,0.00118,0.00125,0.00115,0.029,0.0315,0.033,passive,2
3.6205,rehab,danger_high_force,-39.6141512561,-667.529724946,337.4235041162,-177.3880771114,0.1258042197,-149.9831099894,-56.5081,0.2978,18.4149,974.1481,-40.9463,-219.9287,86.1620918407,31.2357133925,87.1423655407,-30.7769183532,-88.7846779339,-33.4077303587,3.1149077051,3.2069608224,1.9627837913,-2.9529349335,2.2573174981,1.126487793,15.0273,-5.112,14.3085,-0.11229,0.03944,0.09083,0.00165,0.00158,0.00172,0.00118,0.00125,0.00115,0.029,0.0315,0.033,passive,2
3.6405,rehab,danger_high_force,-40.4629401423,-667.5097637194,337.7869353527,-177.3818732128,0.122908247,-149.9852700066,-33.0987,-0.6376,12.4072,858.9146,21.8147,-323.5348,86.3466774061,31.3062858371,87.2963887966,-30.7912726296,-88.7062133538,-33.4347286285,2.1113136817,1.9649541914,4.1431830671,-0.007374242,1.1568201635,-2.3680569076,15.6587,-5.4697,14.3947,-0.10834,0.0398,0.09316,0.00165,0.00158,0.00172,0.00118,0.00125,0.00115,0.029,0.0315,0.033,passive,2
3.6605,rehab,danger_high_force,-40.9380979642,-667.5552269559,337.9197937462,-177.3851583237,0.1227347006,-149.9911286056,-22.1515,1.1704,5.4735,597.9325,86.0853,-180.94,86.246544388,31.3143115602,87.3080928633,-30.7772133229,-88.7384051273,-33.502452635,-0.3109815632,0.0064107215,-1.0089645036,-1.528385202,-1.0762720728,0.7977115595,13.4669,-4.814,12.7027,-0.10677,0.0423,0.08659,0.00165,0.00158,0.00172,0.00118,0.00125,0.00115,0.029,0.0315,0.033,passive,2
3.6805,rehab,danger_high_force,-41.3489989185,-667.4629478902,338.0058739674,-177.3815236706,0.1244646873,-149.9853637413,-9.1814,2.8059,5.1696,786.0873,-45.8904,-154.1741,86.3342381436,31.306542266,87.2560302164,-30.8524080377,-88.7492642367,-33.4028201661,1.195222916,0.3599175768,-0.3239170605,-0.1801529071,-2.2785591841,3.5683160587,14.7709,-5.1583,13.9812,-0.11588,0.04053,0.09711,0.00165,0.00158,0.00172,0.00118,0.00125,0.00115,0.029,0.0315,0.033,passive,2
3.7005,rehab,danger_high_force,-41.3053526981,-667.4429924182,338.1265794188,-177.3843031652,0.1260352685,-149.9864758201,9.292,-0.6652,-0.6935,765.7794,-61.429,-275.8661,86.2943533046,31.3287082633,87.2951361809,-30.7844194392,-88.8295474947,-33.3597199926,-0.9197573509,-2.1940210659,0.6949195244,0.9927977844,1.3643809005,2.3330985241,-3.8187,-5.3274,20.3062,-0.12745,0.13496,-0.00816,0.00165,0.00158,0.00172,0.00118,0.00125,0.00115,0.029,0.0315,0.033,passive,2
3.7205,rehab,danger_high_force,-40.9773180944,-667.4895567,337.9781339567,-177.3831994985,0.1231348008,-149.9900574466,21.4498,0.3487,-5.865,649.5488,83.6878,-346.3042,86.2974478495,31.2187814234,87.2838269974,-30.8126961263,-88.6946890007,-33.3094962251,-1.2166903384,-1.5006916642,-2.8863335273,0.4804688515,2.4410296513,-0.6548567116,-3.294,-4.7792,19.5341,-0.1158,0.13281,0.00342,0.00165,0.00158,0.00172,0.00118,0.00125,0.00115,0.029,0.0315,0.033,passive,2
3.7405,rehab,danger_high_force,-40.4473603902,-667.429044267,337.8919793365,-177.3821992409,0.1229475681,-149.9898119879,35.274,2.6823,-14.5457,819.9939,7.8726,-426.3713,86.2456856911,31.2686805967,87.1796828398,-30.7652006851,-88.7319063087,-33.3859142611,0.1636810426,1.0319295468,-3.0585969352,1.3425801075,-1.7024846422,-2.3214883746,-3.9888,-4.873,19.1323,-0.12823,0.12627,0.01024,0.00165,0.00158,0.00172,0.00118,0.00125,0.00115,0.029,0.0315,0.033,passive,2
3.7605,rehab,danger_high_force,-39.5663591821,-667.3822649957,337.3963072138,-177.3866063711,0.1252196353,-149.9850079953,54.2496,0.6636,-22.9199,784.3521,-46.3702,-86.0858,86.3039950912,31.2600586052,87.16148312,-30.758992922,-88.7627883864,-33.4023557601,-0.6137791814,-1.5432380993,-0.5451420859,3.5804006612,-1.5401670164,-2.2937730591,-3.6507,-5.2742,20.4402,-0.14338,0.13157,0.00266,0.00165,0.00158,0.00172,0.00118,0.00125,0.00115,0.029,0.0315,0.033,passive,2
3.7805,rehab,danger_high_force,-38.2773779087,-667.4024998807,336.9751851676,-177.3834440625,0.1262314021,-149.9889580381,66.6481,0.8275,-17.9891,656.6993,-10.0692,-19.1608,86.2211345238,31.2069510727,87.1578771564,-30.6219846587,-88.7935129893,-33.4776651834,-4.1171112813,-1.5436394883,-0.4233451572,2.7226905896,-0.3809542212,-2.5871337758,-3.7676,-4.7697,19.8757,-0.12616,0.1269,0.00134,0.00165,0.00158,0.00172,0.00118,0.00125,0.00115,0.029,0.0315,0.033,passive,2
3.8005,rehab,danger_high_force,-36.9004368741,-667.3491655458,336.6767431265,-177.3845253783,0.1237109555,-149.9898493545,80.5175,0.2608,-23.6863,8532.1508,29.4423,-3478.3522,86.13931064,31.1983130257,87.1445493137,-30.6500852985,-88.7780265552,-33.5058411111,-4.3899284117,-1.5338643728,-0.3313477763,3.4439508848,0.8208935108,-2.6274922432,-3.8262,-4.9109,20.0102,-0.12451,0.13261,0.01044,0.00165,0.00158,0.00172,0.00118,0.00125,0.00115,0.029,0.0315,0.033,passive,2
3.8205,rehab,danger_high_force,-35.0566765437,-667.3920662265,336.0277337104,-177.3846499847,0.12551976,-149.9864967581,407.9341,2.0052,-157.1232,8194.5991,106.6979,-3332.7744,86.0455373873,31.1455964978,87.1446232453,-30.4842266233,-88.7606772489,-33.5827648732,-20.3950877403,-11.1732149161,-12.4776844884,23.764930808,1.5093385211,-17.2580046592,-4.0665,-5.8008,22.0521,-0.14385,0.14706,0.00336,0.00165,0.00158,0.00172,0.00118,0.00125,0.00115,0.029,0.0315,0.033,passive,2
3.8405,rehab,danger_high_force,-20.5830732809,-667.2689583969,330.3918154577,-177.3829211038,0.1236912582,-149.9883057151,408.3015,4.5288,-156.9973,-7576.2076,-25.7245,2974.7028,85.3235071304,30.7513844291,86.6454419342,-29.6994880661,-88.7176530144,-34.1961612975,-19.8886259704,-9.8765849376,-13.7397682116,19.3263519753,-1.4500695371,-14.8932594747,-3.059,-6.1221,24.2094,-0.15136,0.16007,0.00883,0.00165,0.00158,0.00172,0.00118,0.00125,0.00115,0.029,0.0315,0.033,passive,2
3.8605,rehab,danger_high_force,-18.7246166305,-667.2109159468,329.7478431859,-177.3848414776,0.1247292545,-149.9909159846,104.8858,0.9762,-38.1351,-7327.582,-102.5767,2727.667,85.2499923485,30.7505331003,86.5950325169,-29.7111725443,-88.8186800304,-34.1784952522,-5.0473168061,-1.2293702911,-4.5281544933,3.1461481792,-2.1755458382,-4.4454328666,-2.2468,-4.8832,20.0388,-0.13426,0.12487,0.00579,0.00165,0.00158,0.00172,0.00118,0.00125,0.00115,0.029,0.0315,0.033,passive,2
3.8805,rehab,danger_high_force,-16.3876417989,-667.2299105063,328.8664123218,-177.3798669461,0.1260397783,-149.9867290688,115.1982,0.4257,-47.8906,420.5803,38.5792,-432.8232,85.1216144581,30.7022096174,86.4643157544,-29.573642139,-88.8046748479,-34.3739786122,-5.7086973411,-4.0678466466,-5.8865129873,6.3310244335,2.3452637575,-6.3956673063,-1.607,-4.7846,19.0053,-0.1328,0.11669,0.01409,0.00165,0.00158,0.00172,0.00118,0.00125,0.00115,0.029,0.0315,0.033,passive,2
3.9005,rehab,danger_high_force,-14.1166879206,-667.1938884424,327.8322198522,-177.387219653,0.1241238505,-149.9913157549,121.709,2.5194,-55.448,457.1219,68.9588,-327.3174,85.0216444549,30.5878192344,86.3595719974,-29.4579315669,-88.7248694801,-34.4343219444,-3.2714732847,-2.3780177429,-3.5522262829,6.9898894635,0.3047824035,-5.9675210778,-1.9009,-5.3831,20.4881,-0.13321,0.13909,0.0202,0.00165,0.00158,0.00172,0.00118,0.00125,0.00115,0.029,0.0315,0.033,passive,2
3.9205,rehab,danger_high_force,-11.5192818526,-667.1291359597,326.6484921409,-177.3867283971,0.1236140944,-149.9878463032,133.4831,3.184,-60.9833,508.1722,-14.214,-330.0175,84.9907555267,30.6070889077,86.3222267031,-29.2940465604,-88.7924835517,-34.6126794553,-5.6510326509,-3.1049470786,-3.9209996671,8.6600851837,-0.9095482818,-7.8348062293,-1.9377,-5.0724,20.2128,-0.1275,0.13155,0.01477,0.00165,0.00158,0.00172,0.00118,0.00125,0.00115,0.029,0.0315,0.033,passive,2
3.9405,rehab,danger_high_force,-8.7773641893,-667.0665268848,325.3928887407,-177.3841919211,0.1244057451,-149.990988302,142.0359,1.9508,-68.6487,350.2914,-39.9119,-362.7284,84.7956031488,30.4636213513,86.2027320107,-29.1115281596,-88.7612514113,-34.7477141936,-9.6578860574,-3.38426933,-5.7062615303,9.6758189187,0.3787467815,-4.3610188199,-0.8061,-4.9617,19.8348,-0.13334,0.12753,0.01916,0.00165,0.00158,0.00172,0.00118,0.00125,0.00115,0.029,0.0315,0.033,passive,2
3.9605,rehab,danger_high_force,-5.8378463116,-667.0511038221,323.9025439489,-177.3846406397,0.125267137,-149.9893033064,147.4947,1.5876,-75.4924,517.6985,13.0928,-231.9673,84.6044400844,30.4717181345,86.0939762419,-28.9070138037,-88.7773336805,-34.7871202081,-6.8295045722,-3.3653432229,-6.6113455086,5.9674918387,0.1398993792,-4.7845970622,-0.8886,-4.9301,20.1858,-0.12483,0.12653,0.00951,0.00165,0.00158,0.00172,0.00118,0.00125,0.00115,0.029,0.0315,0.033,passive,2
3.9805,rehab,danger_high_force,-2.8775741923,-667.0030243728,322.3731922027,-177.3862275993,0.1194927129,-149.9916850666,162.7438,2.4745,-77.9274,519.9117,13.6005,-111.4061,84.5224229659,30.3290076224,85.9382781904,-28.872828486,-88.7556554362,-34.9390980761,-6.5339718704,-3.4337239916,-6.7461794571,5.1383328462,-2.6456928161,-6.5604838041,-1.0363,-4.6912,19.2863,-0.12349,0.11823,0.01367,0.00165,0.00158,0.00172,0.00118,0.00125,0.00115,0.029,0.0315,0.033,passive,2
4.0005,rehab,danger_high_force,0.6719067885,-666.9521232354,320.7854480714,-177.3883487302,0.1212884852,-149.9907599261,168.2912,2.1316,-79.9487,87.0027,-3.7033,-152.7771,84.3430812096,30.3343691748,85.8241290636,-28.7014804898,-88.8831613931,-35.0495395603,-7.7501556824,-5.5946032864,-4.0843571201,8.7454743906,-0.6823648804,-7.1309162662,-0.5276,-5.2998,18.3516,-0.12975,0.11052,0.01718,0.00165,0.00158,0.00172,0.00118,0.00125,0.00115,0.029,0.0315,0.033,passive,2
4.0205,rehab,danger_high_force,3.8540744481,-666.9177610962,319.1752459356,-177.383210382,0.1240167523,-149.9950667271,166.2239,2.3264,-84.0385,149.9324,61.7605,-214.5389,84.2124167386,30.1052234909,85.7749039056,-28.5230095104,-88.7829500314,-35.2243347267,-9.201984061,-5.1065499565,-3.9348677468,12.2567522791,0.7589782807,-6.7242448037,-0.2016,-5.1159,20.0744,-0.12437,0.12377,0.02786,0.00165,0.00158,0.00172,0.00118,0.00125,0.00115,0.029,0.0315,0.033,passive,2
4.0405,rehab,danger_high_force,7.3208642545,-666.8590679472,317.4239089102,-177.3811983816,0.1222425326,-149.9903597473,174.2885,4.602,-88.5302,223.8333,74.1316,-441.9819,83.9750018472,30.1301071766,85.6667343538,-28.2112103987,-88.8528022619,-35.3185093524,-11.4158840944,-2.5511934775,-5.6580365227,10.9980357409,0.6886542398,-7.8661118983,-0.5121,-5.0593,19.0978,-0.12937,0.12781,0.01537,0.00165,0.00158,0.00172,0.00118,0.00125,0.00115,0.029,0.0315,0.033,passive,2
4.0605,rehab,danger_high_force,10.825614862,-666.7336810873,315.6340374731,-177.3876467989,0.1221510652,-149.9933974706,175.1773,5.2916,-101.7178,48.7395,-119.7985,-368.109,83.7557813749,30.0031757518,85.5485824446,-28.0830880808,-88.7554038618,-35.5389792026,-8.6695095463,-6.5234955827,-4.802210739,7.5542369016,1.6042096438,-9.2879897228,-0.3877,-3.8886,18.3881,-0.11732,0.11572,0.01958,0.00165,0.00158,0.00172,0.00118,0.00125,0.00115,0.029,0.0315,0.033,passive,2
4.0805,rehab,danger_high_force,14.3279549722,-666.64740215,313.3551987189,-177.3886659681,0.1187882288,-149.9912185191,176.2381,-0.1899,-103.2546,121.2415,-112.6077,-33.8404,83.6282214653,29.8691673533,85.4746459242,-27.9090409226,-88.7886338762,-35.6900289413,-9.2203444268,-4.9452525041,-5.0666052725,9.2856791265,-1.2595101957,-7.4845389404,0.5047,-4.8778,19.3501,-0.11853,0.12171,0.0205,0.00165,0.00158,0.00172,0.00118,0.00125,0.00115,0.029,0.0315,0.033,passive,2
4.1005,rehab,danger_high_force,17.8751385343,-666.7412787414,311.5038546298,-177.3853018536,0.1237780028,-149.9927992706,180.0269,0.7873,-103.0714,71.7632,96.0589,-238.3571,83.3869675978,29.8053656517,85.3459182337,-27.7116609157,-88.8057842696,-35.8383607603,-7.8806231197,-4.1764244207,-7.6165700857,8.8529134515,-1.3991052186,-7.3892923489,0.6082,-4.5869,18.9602,-0.13934,0.11366,0.01582,0.00165,0.00158,0.00172,0.00118,0.00125,0.00115,0.029,0.0315,0.033,passive,2
4.1205,rehab,danger_high_force,21.5290321056,-666.6159087431,309.2323439469,-177.3892852244,0.1235191226,-149.9933211265,179.1086,3.6524,-112.7889,-139.5872,59.9644,-159.0464,83.3129965405,29.7021103764,85.1699831208,-27.5549243845,-88.8445980849,-35.9856006353,-5.8478504741,-6.3439617249,-7.2477170104,10.1914686144,-2.3888359354,-9.5960390148,0.9391,-5.0206,20.2269,-0.13434,0.11925,0.02106,0.00165,0.00158,0.00172,0.00118,0.00125,0.00115,0.029,0.0315,0.033,passive,2
4.1405,rehab,danger_high_force,25.0394833706,-666.5951821406,306.992300397,-177.390407277,0.1248242566,-149.9908421171,174.4434,3.1859,-109.4332,-66.3944,-2.3463,31.2056,83.1530535788,29.5516071827,85.0560095533,-27.3040021711,-88.901337707,-36.2222023209,-10.0993979579,-4.9810163693,-5.5967839109,12.5278619065,-1.9516702368,-7.686123504,0.8026,-4.5766,18.8428,-0.12237,0.11516,0.02153,0.00165,0.00158,0.00172,0.00118,0.00125,0.00115,0.029,0.0315,0.033,passive,2
4.1605,rehab,danger_high_force,28.5067696403,-666.4884722206,304.8550149865,-177.3878112901,0.1253123987,-149.99530899,176.4528,3.5586,-111.5406,-2575.6858,-67.5153,1615.4427,82.9090206222,29.5028697217,84.9461117643,-27.0538099083,-88.9226648944,-36.2930455754,-11.9172569304,-4.1764753382,-6.427353473,12.6587420486,1.4947962879,-8.911720363,1.335,-5.0614,17.1263,-0.11997,0.09788,0.02193,0.00165,0.00158,0.00172,0.00118,0.00125,0.00115,0.029,0.0315,0.033,passive,2
4.1805,rehab,danger_high_force,32.0975972201,-666.452839674,302.530675156,-177.386374044,0.1204587226,-149.9931834542,71.416,0.4853,-44.8155,-2502.5659,2.8841,1298.3852,82.6763633016,29.3845481691,84.7989154144,-26.7976524892,-88.8415458555,-36.5786711354,-3.2159118265,-2.1106086522,-2.5663932544,1.2708615042,1.3655947591,-2.8299246924,1.6526,-3.8621,15.284,-0.09872,0.08323,0.03632,0.00165,0.00158,0.00172,0.00118,0.00125,0.00115,0.029,0.0315,0.033,passive,2
4.2005,rehab,danger_high_force,31.3634098937,-666.4690601499,303.0623943245,-177.381207611,0.1207917802,-149.990636867,76.3502,3.6739,-59.6052,2943.186,92.6544,-2258.9667,82.7803841492,29.4184453756,84.8434560342,-27.0029754481,-88.868041104,-36.4062425631,-3.5046640253,0.4212223731,-1.6044900081,0.9988064411,-0.5051993014,-3.0858646346,1.1312,-4.3783,15.3005,-0.1043,0.08243,0.01661,0.00165,0.00158,0.00172,0.00118,0.00125,0.00115,0.029,0.0315,0.033,passive,2
4.2205,rehab,danger_high_force,35.1516056603,-666.305882574,300.1464662294,-177.392988107,0.1230293817,-149.9975627825,189.1434,4.1915,-135.1742,2948.8123,-53.0168,-1725.7681,82.5361767406,29.4013970641,84.7347358141,-26.7577002315,-88.8617538276,-36.7021057208,-13.3335289289,-4.5799351184,-7.6347916265,11.0484974358,-0.153299659,-9.9431130471,1.7081,-4.4969,17.9579,-0.11761,0.09858,0.0211,0.00165,0.00158,0.00172,0.00118,0.00125,0.00115,0.029,0.0315,0.033,passive,2
4.2405,rehab,danger_high_force,38.9291477105,-666.3014010741,297.6554268658,-177.3898829216,0.1264113154,-149.990271124,194.3027,1.5533,-128.6359,-28.6613,-45.3795,13.8164,82.247042992,29.2352479708,84.5380643691,-26.5610355507,-88.8741730904,-36.803967085,-10.5227646711,-5.2152898105,-6.996586341,11.6313564417,-2.086658664,-7.3911034176,2.0888,-4.1639,17.4012,-0.12418,0.10207,0.026,0.00165,0.00158,0.00172,0.00118,0.00125,0.00115,0.029,0.0315,0.033,passive,2
4.2605,rehab,danger_high_force,42.9237137673,-666.2437522952,295.0010282998,-177.3909112463,0.1270916691,-149.9955842243,187.997,2.3763,-134.6215,-503.1686,-6.158,-53.9738,82.1152661538,29.1927854716,84.4548723604,-26.2924459739,-88.9452201741,-36.9977498575,-7.0444654709,-4.5525985601,-8.1528087039,13.5243767811,-0.8222961593,-8.1732565106,1.8517,-4.0334,16.0762,-0.10418,0.09379,0.02462,0.00165,0.00158,0.00172,0.00118,0.00125,0.00115,0.029,0.0315,0.033,passive,2
4.2805,rehab,danger_high_force,46.4490274212,-666.2063492197,292.2705656675,-177.3911282526,0.1226713906,-149.9935951073,174.176,1.3069,-130.7949,-593.197,7.6706,265.2213,81.9652643732,29.0531440284,84.2119520209,-26.0200604794,-88.9070649367,-37.1308973454,-9.2819782455,-7.0609689809,-6.9942625046,11.2686120612,1.8125032537,-9.3423949337,2.6909,-4.3482,17.9076,-0.11342,0.09225,0.02585,0.00165,0.00158,0.00172,0.00118,0.00125,0.00115,0.029,0.0315,0.033,passive,2
4.3005,rehab,danger_high_force,49.89075211,-666.1914748789,289.7692323347,-177.3864952148,0.1197105874,-149.9934196415,164.2691,2.6831,-124.0127,-315.9982,34.2314,-104.0311,81.7439870239,28.9103467124,84.1751018603,-25.8417014914,-88.872720044,-37.3714456548,-8.9952325238,-5.7626111169,-5.2003017299,8.1485919929,-1.0566690285,-9.6055682511,2.0508,-4.4136,15.1474,-0.11063,0.09551,0.03543,0.00165,0.00158,0.00172,0.00118,0.00125,0.00115,0.029,0.0315,0.033,passive,2
4.3205,rehab,danger_high_force,53.0197919764,-666.0990244419,287.3100585666,-177.3901761313,0.1209111445,-149.9990383708,161.536,2.6762,-134.9561,-124.381,-53.6257,-290.375,81.6054550722,28.8226395838,84.0039399517,-25.6941167997,-88.9493316979,-37.5151200755,-9.4929594076,-3.7644290648,-6.3536119343,10.3723797209,-1.2233012438,-5.5859688836,2.9682,-4.2752,16.5824,-0.10889,0.0922,0.03859,0.00165,0.00158,0.00172,0.00118,0.00125,0.00115,0.029,0.0315,0.033,passive,2
4.3405,rehab,danger_high_force,56.3521933266,-666.0844272036,284.3709866499,-177.3858709796,0.1228780348,-149.995630085,159.2939,0.5381,-135.6277,-334.0253,-54.3921,211.9011,81.3642686476,28.7597695498,83.9209573829,-25.4268063026,-88.9216520937,-37.5948844102,-10.5758108301,-3.5985881355,-6.1584758819,9.973304579,0.8456576137,-7.5124900372,2.999,-4.0848,15.6213,-0.09749,0.0827,0.03668,0.00165,0.00158,0.00172,0.00118,0.00125,0.00115,0.029,0.0315,0.033,passive,2
4.3605,rehab,danger_high_force,59.3915468554,-666.0775008191,281.8849514854,-177.3863414785,0.12623891,-149.9969423506,148.175,0.5005,-126.4801,-339.4438,55.0832,163.0816,81.182422639,28.6786960583,83.7576009165,-25.2951846166,-88.9155053933,-37.815619677,-7.3892580727,-5.1700597963,-7.054459854,8.6519512908,1.4880699965,-11.2726009123,3.3805,-4.675,16.614,-0.11462,0.07804,0.03576,0.00165,0.00158,0.00172,0.00118,0.00125,0.00115,0.029,0.0315,0.033,passive,2
4.3805,rehab,danger_high_force,62.2791941196,-666.0644068211,279.3117827707,-177.3935692817,0.123711963,-149.9936625289,145.7161,2.7414,-129.1044,-169.4988,101.4552,7.4077,81.0686983247,28.552967158,83.6387789887,-25.080728251,-88.8621292939,-38.0457884466,-9.2039174517,-6.186691226,-5.955734921,8.517605302,-1.6189975445,-7.3886547569,4.0263,-4.5554,16.5792,-0.11478,0.0768,0.04443,0.00165,0.00158,0.00172,0.00118,0.00125,0.00115,0.029,0.0315,0.033,passive,2
4.4005,rehab,danger_high_force,65.2201916606,-665.9678440481,276.7207748865,-177.3958243381,0.1266682968,-149.9942271598,141.3951,4.5587,-126.1838,-337.8474,-41.9673,250.1948,80.814265941,28.4312284093,83.5193715196,-24.9544804045,-88.9802652951,-38.1111658672,-9.0569574168,-3.9065258107,-7.0884463796,8.2502269058,-2.0622453274,-7.0853688577,3.5418,-3.996,15.7412,-0.09221,0.0833,0.03527,0.00165,0.00158,0.00172,0.00118,0.00125,0.00115,0.029,0.0315,0.033,passive,2
4.4205,rehab,danger_high_force,67.9349968672,-665.8820581516,274.2644312199,-177.3891301963,0.1222741088,-149.9974632486,132.2022,1.0627,-119.0966,-383.5773,-88.7159,141.4876,80.7064200281,28.3967061255,83.3552411335,-24.7507191747,-88.944619107,-38.329203201,-7.9859766239,-2.0959541719,-4.0975988311,9.4951957637,0.7349469814,-8.3350853012,3.5262,-3.7869,14.0362,-0.08902,0.07957,0.03957,0.00165,0.00158,0.00172,0.00118,0.00125,0.00115,0.029,0.0315,0.033,passive,2
4.4405,rehab,danger_high_force,70.5082806482,-665.9253349582,271.9569099429,-177.3910230107,0.1227235818,-150.0032442169,126.052,1.0101,-120.5243,-290.4081,17.2526,131.9092,80.494826876,28.3473902424,83.3554675664,-24.5746725739,-88.9508674159,-38.4445692793,-8.2343416433,-4.0792162847,-3.8177072545,8.3964169301,0.5514427642,-1.9127900988,3.417,-3.4838,14.6587,-0.08911,0.08478,0.03473,0.00165,0.00158,0.00172,0.00118,0.00125,0.00115,0.029,0.0315,0.033,passive,2
4.4605,rehab,danger_high_force,72.9770758638,-665.841654916,269.4434598115,-177.3872544669,0.1239326782,-149.9942196359,120.5859,1.7528,-113.8203,-88.221,-18.8863,219.815,80.3770463623,28.2335374741,83.2025328434,-24.4148624975,-88.9225613964,-38.4057148049,-6.1738518075,-5.3378874411,-4.0263661965,8.0448100496,-2.3724912396,-5.6665282794,4.4124,-4.2248,15.4528,-0.1035,0.08879,0.03511,0.00165,0.00158,0.00172,0.00118,0.00125,0.00115,0.029,0.0315,0.033,passive,2
4.4805,rehab,danger_high_force,75.3317167287,-665.8552216789,267.4040997818,-177.3969992535,0.1229000645,-149.9951234973,122.5231,0.2546,-111.7317,-276.4728,-8.9372,138.7171,80.2478728037,28.1338747448,83.1944129185,-24.252880172,-89.0457670654,-38.6712304105,-4.8644783278,-6.4120722781,-5.3015587344,8.7324357808,1.6659998887,-8.7778558509,4.1919,-3.7777,14.3605,-0.10261,0.0707,0.03221,0.00165,0.00158,0.00172,0.00118,0.00125,0.00115,0.029,0.0315,0.033,passive,2
4.5005,rehab,danger_high_force,77.8780012784,-665.8314697699,264.9741923992,-177.3910501702,0.1210231842,-149.9932587684,109.527,1.3953,-108.2716,-516.6653,29.3983,-46.4338,80.1824672292,27.977054583,82.990470494,-24.0655650663,-88.8559214009,-38.7568290389,-9.6461914957,-1.2620907726,-6.5647469286,8.1125416379,2.0412394955,-5.6889279374,4.1474,-3.4938,13.3343,-0.08756,0.06983,0.03689,0.00165,0.00158,0.00172,0.00118,0.00125,0.00115,0.029,0.0315,0.033,passive,2
4.5205,rehab,danger_high_force,79.7127963103,-665.799407874,263.0732369327,-177.3899688436,0.1228101551,-149.9942352642,101.8565,1.4306,-113.589,-86.8935,29.0066,-168.1845,79.8620251439,28.0833911139,82.9318230414,-23.9283785064,-88.9641174856,-38.898787528,-9.3067588029,-1.4151945317,-4.0153919345,6.2944538685,-5.1635612222,-7.3618498918,4.4734,-3.8775,12.7283,-0.08127,0.05669,0.03475,0.00165,0.00158,0.00172,0.00118,0.00125,0.00115,0.029,0.0315,0.033,passive,2
4.5405,rehab,danger_high_force,81.9522622107,-665.7742473781,260.4306308539,-177.3877147605,0.1221666051,-149.9948000661,106.0512,2.5556,-114.9989,-79.3807,16.3661,508.3048,79.8101968771,27.9204468018,82.8298548166,-23.8137869116,-89.0624638498,-39.0513030346,-4.9407840749,-6.4108678872,-5.3146088483,6.1535031104,-0.4875947493,-8.6500369168,3.9548,-3.5294,13.0407,-0.09212,0.06592,0.03562,0.00165,0.00158,0.00172,0.00118,0.00125,0.00115,0.029,0.0315,0.033,passive,2
4.5605,rehab,danger_high_force,83.9548462723,-665.6971835211,258.4732789466,-177.391059818,0.1238123561,-149.9980621656,98.6813,2.0852,-93.2568,-318.9238,-131.3605,369.7437,79.6643937809,27.8269563984,82.7192386874,-23.682238382,-88.9836212756,-39.2447890046,-6.2270779116,-1.3556071063,-3.6847970583,7.3643311332,2.4427258574,-4.2653858736,4.3578,-3.4067,12.4394,-0.09426,0.05806,0.03444,0.00165,0.00158,0.00172,0.00118,0.00125,0.00115,0.029,0.0315,0.033,passive,2
4.5805,rehab,danger_high_force,85.8995140316,-665.6908392261,256.7003569826,-177.3915697036,0.124526978,-149.9956955228,93.2943,-2.6988,-100.2092,-186.5478,-94.2504,-403.0813,79.5611137606,27.8662225175,82.6824629343,-23.5192136662,-88.9647548155,-39.2219184696,-4.3954909957,-1.8029107998,-2.059863462,8.2208087676,-3.2098805258,-3.5077914315,4.0152,-3.2529,13.1438,-0.08849,0.08387,0.02979,0.00165,0.00158,0.00172,0.00118,0.00125,0.00115,0.029,0.0315,0.033,passive,2
4.6005,rehab,danger_high_force,87.6866181307,-665.8051360186,254.4649108234,-177.3932295496,0.1207607128,-149.995365915,91.2194,-1.6848,-109.3801,-38.5051,121.9094,-193.7858,79.488574141,27.7548399664,82.636844149,-23.3534060313,-89.1120164966,-39.3851006619,-5.0600297339,-3.9903589508,-5.6811040506,6.6905729437,-2.4351421759,-6.7562003697,4.862,-4.0209,14.1778,-0.09388,0.06738,0.04288,0.00165,0.00158,0.00172,0.00118,0.00125,0.00115,0.029,0.0315,0.033,passive,2
4.6205,rehab,danger_high_force,89.5482893905,-665.7582316433,252.3251530484,-177.3872063856,0.1201726153,-149.9980151708,91.7541,2.1776,-107.9606,43.8437,30.8131,175.2183,79.3587125713,27.7066081595,82.4552187723,-23.2515907485,-89.0621605025,-39.4921664843,-6.8512410383,-2.9876243642,-5.5713086081,7.1789608176,1.4873181091,-4.2288505468,5.178,-3.209,14.1795,-0.08453,0.07244,0.04367,0.00165,0.00158,0.00172,0.00118,0.00125,0.00115,0.029,0.0315,0.033,passive,2
4.6405,rehab,danger_high_force,91.3567819023,-665.7180335551,250.1464854246,-177.392735114,0.1236910731,-149.994868802,92.9731,-0.4523,-102.3714,-106.9172,-57.2601,113.1106,79.2145244995,27.6353349918,82.4139918046,-23.0662475986,-89.0525237723,-39.5542546838,-7.0891119378,-4.7546485363,-1.9162856764,7.1042908301,-0.3882999123,-4.5630273369,5.1778,-3.1155,13.3132,-0.08528,0.05697,0.05153,0.00165,0.00158,0.00172,0.00118,0.00125,0.00115,0.029,0.0315,0.033,passive,2
4.6605,rehab,danger_high_force,93.2672147165,-665.7763230476,248.2302984285,-177.386252374,0.1218699612,-149.9908697238,87.4774,-0.1128,-103.4362,-204.4621,0.1397,1.1568,79.0751480938,27.516422218,82.3785673452,-22.9674191153,-89.077692499,-39.6746875778,-6.4487745448,-2.7133873322,-4.8214922748,3.9301170647,0.9511212002,-5.8608125278,5.2793,-4.2449,14.2326,-0.09802,0.07449,0.04421,0.00165,0.00158,0.00172,0.00118,0.00125,0.00115,0.029,0.0315,0.033,passive,2
4.6805,rehab,danger_high_force,94.855878151,-665.7225472896,246.0090369675,-177.3920739385,0.1225391322,-149.9955017268,84.7946,-0.4467,-102.3251,170.6411,-15.3421,12.3357,78.9565735177,27.5267994985,82.2211321137,-22.909042916,-89.0144789243,-39.7886871849,-5.2615165391,-3.5263847833,-4.618998765,5.3256283659,-1.377895493,-6.6486630836,5.3416,-3.849,13.9271,-0.09951,0.05826,0.04315,0.00165,0.00158,0.00172,0.00118,0.00125,0.00115,0.029,0.0315,0.033,passive,2
4.7005,rehab,danger_high_force,96.6590006193,-665.7941909506,244.1372947047,-177.3928531875,0.1215980176,-149.9921508628,94.303,-0.7265,-102.9428,45.0712,32.7927,-329.7879,78.8646874322,27.3753668267,82.1938073946,-22.7543939806,-89.1328083187,-39.9406341012,-5.1280147847,-4.6720617419,-0.8058299624,8.3637701922,-0.8678145288,-3.5735553686,5.2947,-3.7819,13.0632,-0.09598,0.05979,0.04218,0.00165,0.00158,0.00172,0.00118,0.00125,0.00115,0.029,0.0315,0.033,passive,2
4.7205,rehab,danger_high_force,98.6280001032,-665.7516083293,241.8913256701,-177.3938372344,0.1230709836,-149.9956974051,86.5975,0.865,-115.5166,-256.0706,4.4077,-284.5697,78.7514529263,27.3399170289,82.1888989152,-22.5744921083,-89.0491915054,-39.9316293996,-7.1131908925,-2.648003852,-5.430734252,8.3525713413,1.5923642963,-4.0169889424,6.0351,-3.8158,14.2258,-0.10714,0.054,0.05522,0.00165,0.00158,0.00172,0.00118,0.00125,0.00115,0.029,0.0315,0.033,passive,2
4.7405,rehab,danger_high_force,100.1229004846,-665.7595905094,239.5166303335,-177.3949241511,0.1213618612,-149.9897895813,84.0602,-0.5502,-114.3256,205.047,-64.127,-37.7581,78.5801597965,27.2694466726,81.9765780245,-22.420291127,-89.0691137469,-40.1013136589,-4.7942928448,-1.085061809,-5.5379185966,6.6610891605,-1.7953048092,-7.0678876861,5.2549,-3.8235,12.9589,-0.08954,0.06314,0.04336,0.00165,0.00158,0.00172,0.00118,0.00125,0.00115,0.029,0.0315,0.033,passive,2
4.7605,rehab,danger_high_force,101.9904091359,-665.7736171126,237.3183028265,-177.3860468565,0.1265001412,-149.9961215006,94.7994,-1.7001,-117.0269,322.1447,-8.6712,-102.2694,78.5596812125,27.2965145565,81.9673821713,-22.3080485419,-89.1210036978,-40.2143449071,-3.8410153626,-3.0769615078,-2.7908959047,5.1568586102,-1.2112220948,-6.468363629,5.4674,-3.7459,13.7198,-0.09407,0.07155,0.0461,0.00165,0.00158,0.00172,0.00118,0.00125,0.00115,0.029,0.0315,0.033,passive,2
4.7805,rehab,danger_high_force,103.914875607,-665.8275933108,234.8355529808,-177.3915574943,0.1281823393,-149.9866692668,96.946,-0.8971,-118.4163,-205.4539,48.3287,-0.4322,78.426519182,27.1463682123,81.8649421883,-22.2140167826,-89.1175626306,-40.360048204,-12.3040001752,-6.0101889844,-7.2514047018,8.5359148008,0.5589060521,-5.9425754513,6.0788,-3.7286,14.258,-0.08622,0.06261,0.03921,0.00165,0.00158,0.00172,0.00118,0.00125,0.00115,0.029,0.0315,0.033,passive,2
4.8005,rehab,danger_high_force,105.8682496259,-665.8094998569,232.5816489776,-177.3921995289,0.1234299696,-150.0002845768,86.5812,0.2331,-117.0442,-184.5531,-30.6067,-165.8029,78.0675212055,27.0561069971,81.6773259832,-21.9666119499,-89.0986474557,-40.4520479251,-8.0995804041,-1.6564983427,-4.6610665545,6.4915202944,1.4737785739,-5.7027923559,6.1143,-3.4621,13.7906,-0.08969,0.05999,0.05373,0.00165,0.00158,0.00172,0.00118,0.00125,0.00115,0.029,0.0315,0.033,passive,2
4.8205,rehab,danger_high_force,107.3781245602,-665.8182701149,230.1537841206,-177.3941315555,0.1266194952,-150.0040130396,89.5639,-2.1213,-125.0485,230.1651,-12.5858,-403.6445,78.1025359658,27.0801082786,81.6784995261,-21.9543559708,-89.0586114877,-40.5881598982,-3.7211394358,-2.4003206586,-2.6928139371,5.3207926504,-0.3221533461,-6.4312361271,6.5883,-3.9521,14.8513,-0.09944,0.0697,0.04704,0.00165,0.00158,0.00172,0.00118,0.00125,0.00115,0.029,0.0315,0.033,passive,2
4.8405,rehab,danger_high_force,109.4508051042,-665.8943532418,227.5797104556,-177.3919642291,0.1268641336,-150.0006590186,95.7878,-0.2704,-133.19,188.0868,9.135,-241.0268,77.9186756281,26.9600941708,81.5696134257,-21.7537802439,-89.1115335895,-40.7092973702,-7.0292649863,-3.7087027053,-5.2699740515,9.8177725801,-1.257750633,-7.7636729571,7.822,-4.1589,14.8632,-0.09664,0.06929,0.05619,0.00165,0.00158,0.00172,0.00118,0.00125,0.00115,0.029,0.0315,0.033,passive,2
4.8605,rehab,danger_high_force,111.2096377382,-665.829084127,224.826183986,-177.392188215,0.1218296383,-150.0001116478,97.0874,-1.7559,-134.6895,-55.2993,-69.0047,-193.3321,77.8213653664,26.9317601704,81.4677005641,-21.5616450676,-89.108921513,-40.8987068165,-6.4190575469,-4.8117145331,-3.6346824451,8.2856527833,-0.428843834,-6.5573503588,7.1971,-3.961,14.6608,-0.09222,0.07154,0.05308,0.00165,0.00158,0.00172,0.00118,0.00125,0.00115,0.029,0.0315,0.033,passive,2
4.8805,rehab,danger_high_force,113.3342994688,-665.9645906325,222.1921290835,-177.3967193588,0.118870283,-150.0031998156,93.5759,-3.0305,-140.9233,-1866.9927,5.4264,2377.5111,77.6619133262,26.7676255895,81.4242261279,-21.4223541325,-89.1286873429,-40.9715913846,-6.7159398005,-5.4962524726,-4.35441911,8.7660053781,0.2362555937,-3.7162899001,7.3161,-4.3206,14.4324,-0.10172,0.06635,0.04224,0.00165,0.00158,0.00172,0.00118,0.00125,0.00115,0.029,0.0315,0.033,passive,2
4.9005,rehab,danger_high_force,114.9526721055,-665.9503055837,219.1892525051,-177.3946343618,0.1216759198,-149.9999915387,22.4077,-1.5389,-39.5891,-1744.1451,-1.2923,2755.3547,77.5527277744,26.7119100715,81.2935237997,-21.2110048525,-89.0994712893,-41.0473584125,-2.3002617168,1.7356417193,-3.0250782097,3.1651227841,0.0603554956,0.7092280233,6.9964,-3.8422,12.6841,-0.09928,0.05529,0.0521,0.00165,0.00158,0.00172,0.00118,0.00125,0.00115,0.029,0.0315,0.033,passive,2
4.9205,rehab,danger_high_force,114.2306055302,-666.0261457247,220.608565407,-177.3869483314,0.1254011525,-150.0021361429,23.8101,-3.0822,-30.7091,1528.271,-36.662,-2312.8529,77.5699028575,26.8370512582,81.3032229995,-21.2957492212,-89.1262731231,-40.9432222636,-5.7653281212,-0.0217264307,-1.10055157,1.5761717713,-2.9416790721,-1.5321670114,7.2763,4.0049,12.3515,0.00558,0.04126,0.02115,0.00165,0.00158,0.00172,0.00118,0.00125,0.00115,0.029,0.0315,0.033,passive,2
4.9405,rehab,danger_high_force,115.9050743856,-666.0735946689,217.9608885283,-177.3853553554,0.1210958272,-149.9973763844,83.5385,-3.0054,-132.1032,1520.4722,42.6138,-2471.1065,77.3221146495,26.7110410142,81.2495017369,-21.1479579816,-89.2171384521,-41.108645093,-8.839254816,-5.6466531489,-3.5561006463,6.5395026396,-0.6048168503,-8.5258445058,6.9996,4.245,13.6188,-0.00624,0.05948,0.0225,0.00165,0.00158,0.00172,0.00118,0.00125,0.00115,0.029,0.0315,0.033,passive,2
4.9605,rehab,danger_high_force,117.5721452398,-666.1463600438,215.3244371222,-177.3986099226,0.1219357863,-149.9968954323,84.6289,-1.3777,-129.5534,26.3223,46.503,-134.8991,77.2163326649,26.6111851323,81.1609789737,-21.0341691156,-89.1504657971,-41.2842560439,-5.1776907529,-5.3852972457,-4.3341722602,7.4696774365,3.9432836358,-8.4117940933,8.3933,4.3421,14.9556,-0.00998,0.06116,0.02552,0.00165,0.00158,0.00172,0.00118,0.00125,0.00115,0.029,0.0315,0.033,passive,2
4.9805,rehab,danger_high_force,119.2902321684,-666.1287016952,212.7787540935,-177.3927526908,0.1227545967,-149.9987021742,84.5914,-1.1452,-137.4992,69.9131,-49.5336,-239.0216,77.1150070194,26.4956291244,81.0761348465,-20.8491708842,-89.0594071067,-41.4451168567,-6.9812164451,-1.21249022,-4.9438922077,5.9428514173,-0.3812545836,-7.4130543084,8.4406,3.9336,15.0497,-0.00735,0.07016,0.02783,0.00165,0.00158,0.00172,0.00118,0.00125,0.00115,0.029,0.0315,0.033,passive,2
5.0005,rehab,danger_high_force,120.9558006229,-666.1921695076,209.8244703391,-177.3919805189,0.1228945458,-149.9986110877,87.4255,-3.359,-139.1142,37.2643,27.6177,-76.5255,76.9370840071,26.5626855235,80.9632232854,-20.7964550589,-89.1657159804,-41.5807782162,-6.1225179969,-4.1484890349,-6.3983560525,6.6729594723,-3.1888059637,-3.0815269558,9.0286,4.8177,15.6335,-0.01255,0.06601,0.02797,0.00165,0.00158,0.00172,0.00118,0.00125,0.00115,0.029,0.0315,0.033,passive,2
5.0205,rehab,danger_high_force,122.787250958,-666.2630625097,207.2141850676,-177.39448519,0.1232997377,-149.9960747497,86.082,-0.0405,-140.5602,-142.9788,53.6471,-151.7779,76.8701062995,26.329689563,80.8202006044,-20.5822525053,-89.1869593453,-41.568377935,-6.1877684745,-4.9517187451,-5.5479681248,7.2042019794,0.2399897163,-6.0681920857,8.8093,4.3484,15.0014,-0.01766,0.06447,0.03373,0.00165,0.00158,0.00172,0.00118,0.00125,0.00115,0.029,0.0315,0.033,passive,2
5.0405,rehab,danger_high_force,124.3990789457,-666.1937906952,204.2020627189,-177.3882599406,0.1218353864,-149.9986270766,81.7063,-1.2131,-145.1853,-0.0367,-126.1211,-73.724,76.6895732681,26.3646167737,80.7413045604,-20.5082869797,-89.1561163918,-41.8235058996,-8.343046488,0.4200002092,-2.316272901,6.885633687,2.0539119334,-8.3168657709,9.8578,5.2037,15.4017,-0.02901,0.06054,0.03022,0.00165,0.00158,0.00172,0.00118,0.00125,0.00115,0.029,0.0315,0.033,passive,2
5.0605,rehab,danger_high_force,126.0555037186,-666.3115879755,201.4067714364,-177.389129777,0.1232262248,-150.0011210001,86.0805,-5.0854,-143.5092,-15.3688,-5.563,-215.2743,76.53638444,26.3464895714,80.7275496883,-20.3068271578,-89.1048028679,-41.9010525658,-6.4902021954,-5.2456775796,-3.2616685599,9.5028949803,0.3820154954,-8.5667101202,9.5822,4.835,16.0853,-0.01272,0.07528,0.03214,0.00165,0.00158,0.00172,0.00118,0.00125,0.00115,0.029,0.0315,0.033,passive,2
5.0805,rehab,danger_high_force,127.842298606,-666.3972056629,198.4616966846,-177.3965958062,0.1250934534,-150.0029144551,81.0916,-1.4357,-153.7963,-194.913,74.0528,-324.8547,76.4299651803,26.1547896705,80.610837818,-20.1281711805,-89.140835772,-42.1661743044,-8.0481377948,-6.5346121166,-8.7765908611,8.9880052807,-1.8158960322,-7.4303838177,9.4013,4.0882,14.4479,-0.01931,0.06315,0.04371,0.00165,0.00158,0.00172,0.00118,0.00125,0.00115,0.029,0.0315,0.033,passive,2
5.1005,rehab,danger_high_force,129.2991663192,-666.3690143105,195.2549189433,-177.3974862267,0.1246289186,-150.0025363669,78.284,-2.1233,-156.5033,-1.7787,-56.7146,31.9906,76.2144589282,26.0851050867,80.3764860539,-19.9473069466,-89.1774387092,-42.1982679185,-6.8253130731,-2.6727162895,-7.8347214403,10.6580292295,-2.4977052728,-6.2315123169,9.6747,4.7133,14.7739,-0.0054,0.05806,0.03219,0.00165,0.00158,0.00172,0.00118,0.00125,0.00115,0.029,0.0315,0.033,passive,2
5.1205,rehab,danger_high_force,130.9736574398,-666.4821361379,192.2015630661,-177.3901038752,0.1256571409,-150.001369704,81.0204,-3.7042,-152.5167,-39.8686,13.7411,86.062,76.1569526574,26.0478810189,80.2974489604,-19.7018500113,-89.2407439829,-42.4154347971,-8.1650261641,-2.2175632411,-2.1737051095,7.7070824973,0.8071514772,-6.0204251748,10.6569,5.0145,16.1283,-0.01665,0.06675,0.03917,0.00165,0.00158,0.00172,0.00118,0.00125,0.00115,0.029,0.0315,0.033,passive,2
