t,trajectory_type,trajectory_variant,x,y,z,rx,ry,rz,vx,vy,vz,ax,ay,az,j1,j2,j3,j4,j5,j6,dj1,dj2,dj3,dj4,dj5,dj6,fx,fy,fz,tx,ty,tz,Mx,My,Mz,Bx,By,Bz,Kx,Ky,Kz,mode,comfort
0.0003,rehab,medium,80.22501793527623,-666.6342449553111,262.4773414595283,-177.65174960302306,0.2919343144027117,-149.85151050203498,0.8555,0.1531,-0.7846,-31.232,-5.0269,32.2334,84.42870111748724,30.063658610428913,85.69198608398438,-27.523023817274304,-89.11313374837239,-35.81676907009548,0.05441495687654703,-0.0,-0.024515284170018563,7.62939453125e-05,0.06785074869791667,-0.0,-1.53,-0.3249,0.0315,-0.00497,-0.01811,0.02719,0.0009783424902707338,0.0009997376473620534,0.000828063057269901,0.0004277801199350506,0.0004993709153495729,0.0004697145486716181,0.01151824090629816,0.01122745405882597,0.011699353344738483,passive,0
0.0205,rehab,medium,80.22407287135825,-666.634158557913,262.4778232268847,-177.65173521049044,0.2919135302564555,-149.8515920628017,0.5269,0.0954,-0.4934,-28.5266,-4.4731,27.5598,84.42861953584274,30.06360422266592,85.69199968092512,-27.523006863064236,-89.11314222547743,-35.81676907009548,0.05441495687654703,-0.0,0.016187157961401608,0.028288099500868056,-0.06785074869791667,-0.0,-1.4932,-0.2753,-0.1198,-0.01552,-0.00447,0.02419,0.0009783424902707338,0.0009997376473620534,0.000828063057269901,0.0004277801199350506,0.0004993709153495729,0.0004697145486716181,0.01151824090629816,0.01122745405882597,0.011699353344738483,passive,0
0.0407,rehab,medium,80.22272078769491,-666.6342259805431,262.4785581673777,-177.6516768410482,0.2918617063007229,-149.8517247959688,-0.0947,-0.0062,0.0526,-23.7832,-3.3869,19.5662,84.42850396184637,30.06354303643255,85.69199968092512,-27.523023817274304,-89.11315070258246,-35.816752115885414,-0.0,-0.05441495687654703,-0.007070409189356436,0.009757147894965278,-0.0,-0.0,-1.5449,-0.3708,-0.9259,-0.00156,-0.01208,0.03217,0.0009783424902707338,0.0009997376473620534,0.000828063057269901,0.0004277801199350506,0.0004993709153495729,0.0004697145486716181,0.01151824090629816,0.01122745405882597,0.011699353344738483,passive,0
0.0607,rehab,medium,80.22177584304585,-666.6342898128643,262.47917268837404,-177.65162580253016,0.29182500433795716,-149.85180627217147,-0.6441,-0.08,0.5248,-20.27,-2.3269,14.2134,84.42842238020188,30.06349544713993,85.69199288245476,-27.52303229437934,-89.11315070258246,-35.816752115885414,-0.05441495687654703,-0.05441495687654703,-0.025140743444461634,-0.009816487630208334,-0.0,-0.06785074869791667,-1.4053,-0.2401,-0.1318,0.00378,-0.00586,0.02944,0.0009783424902707338,0.0009997376473620534,0.000828063057269901,0.0004277801199350506,0.0004993709153495729,0.0004697145486716181,0.01151824090629816,0.01122745405882597,0.011699353344738483,passive,0
0.0805,rehab,medium,80.21980204942345,-666.6343217806531,262.48033902453983,-177.65154801347452,0.29175894727643475,-149.85198463726937,-1.1018,-0.1238,0.9073,-17.6188,-1.2631,11.2516,84.42825241844253,30.063393470084314,85.69199288245476,-27.52303229437934,-89.1131591796875,-35.81674363878038,-0.05441495687654703,-0.0,-0.01835587001082921,-0.030110677083333332,-0.06785074869791667,-0.0,-1.4806,-0.4328,-0.7432,0.00558,-0.00831,0.03205,0.0009783424902707338,0.0009997376473620534,0.000828063057269901,0.0004277801199350506,0.0004993709153495729,0.0004697145486716181,0.01151824090629816,0.01122745405882597,0.011699353344738483,passive,0
0.1007,rehab,medium,80.20004509594953,-666.6350075164576,262.4935782518157,-177.65062348479302,0.2911049471959093,-149.8536843772245,-1.3619,-0.1235,1.0429,-15.3291,-0.2012,10.6195,84.42653920390818,30.062312513294785,85.69185691304726,-27.52294752332899,-89.11315070258246,-35.816752115885414,-0.16324487062964108,-0.10882991375309406,-0.04977840008121906,0.0010511610243055555,-0.0,-0.06785074869791667,-1.5631,-0.4071,-0.4663,0.00181,-0.00586,0.03267,0.0009783424902707338,0.0009997376473620534,0.000828063057269901,0.0004277801199350506,0.0004993709153495729,0.0004697145486716181,0.01151824090629816,0.01122745405882597,0.011699353344738483,passive,0
0.1205,rehab,medium,80.16228359423012,-666.63816967811,262.52361603329325,-177.64853846273095,0.2896088703122176,-149.85691157873376,-1.6141,-0.0952,1.1685,-13.9152,1.1566,12.5247,84.42328273659885,30.060164196656483,85.69104109660233,-27.52254909939236,-89.11315070258246,-35.81676907009548,-0.2176666259765625,-0.16324487062964108,-0.09824469538018255,0.028652615017361112,-0.0,-0.06785074869791667,-1.5857,-0.3534,-0.5336,-0.01135,0.00159,0.03243,0.0009783424902707338,0.0009997376473620534,0.000828063057269901,0.0004277801199350506,0.0004993709153495729,0.0004697145486716181,0.01151824090629816,0.01122745405882597,0.011699353344738483,passive,0
0.1407,rehab,medium,80.09815149460259,-666.6453952733584,262.5813368358045,-177.64540467763499,0.2873685375557653,-149.8620453375074,-1.8992,-0.0766,1.3918,-15.3557,2.4535,18.3861,84.41776237865486,30.056404642539448,85.68845767786007,-27.520048353407116,-89.11314222547743,-35.81711663140191,-0.2176666259765625,-0.16324487062964108,-0.09048764068301361,0.1456451416015625,-0.0,-0.06785074869791667,-1.5556,-0.1788,-0.2725,0.00297,0.00977,0.03483,0.0009783424902707338,0.0009997376473620534,0.000828063057269901,0.0004277801199350506,0.0004993709153495729,0.0004697145486716181,0.01151824090629816,0.01122745405882597,0.011699353344738483,passive,0
0.1608,rehab,medium,80.06033656742812,-666.647502221744,262.61154923672217,-177.64487865788928,0.28693584485731916,-149.86345580378446,-2.274,-0.0464,1.8438,-21.283,2.8639,29.2809,84.4144855159344,30.05429711672339,85.68682604497022,-27.516937255859375,-89.11314222547743,-35.81894768608941,-0.2176666259765625,-0.10882991375309406,-0.07575535538172957,0.2452426486545139,-0.0,-0.20355224609375,-1.5409,-0.3852,-0.2872,-0.00185,-0.00787,0.03741,0.0009783424902707338,0.0009997376473620534,0.000828063057269901,0.0004277801199350506,0.0004993709153495729,0.0004697145486716181,0.01151824090629816,0.01122745405882597,0.011699353344738483,passive,0
0.1808,rehab,medium,80.01720063828658,-666.6436323066482,262.63808511883303,-177.64737746526666,0.2886069973428932,-149.86197698310565,-2.6302,0.0228,2.4507,-30.7253,2.6028,43.1902,84.41067837252476,30.05193804750348,85.6848680855024,-27.509468926323784,-89.1131083170573,-35.82416110568576,-0.10882991375309406,-0.05441495687654703,-0.05734509760790532,0.3855726453993055,-0.0,-0.2714114718967014,-1.6117,-0.3309,-0.8454,-0.00851,0.00027,0.03718,0.0009783424902707338,0.0009997376473620534,0.000828063057269901,0.0004277801199350506,0.0004993709153495729,0.0004697145486716181,0.01151824090629816,0.01122745405882597,0.011699353344738483,passive,0
0.2006,rehab,medium,79.9878274853321,-666.6397619335127,262.66024234661234,-177.6498604740597,0.2902979551925554,-149.85988326761642,-3.2335,0.1135,3.394,-43.2816,2.0372,57.8605,84.40806775990099,30.050034475798654,85.68293731991608,-27.50250074598524,-89.11306593153212,-35.828798082139755,-0.16324487062964108,-0.10882991375309406,-0.13433777459777227,0.4544830322265625,-0.0,-0.339262220594618,-1.5904,-0.3478,-0.0062,-0.00128,-0.0015,0.03264,0.0009783424902707338,0.0009997376473620534,0.000828063057269901,0.0004277801199350506,0.0004993709153495729,0.0004697145486716181,0.01151824090629816,0.01122745405882597,0.011699353344738483,passive,0
0.2206,rehab,medium,79.89590560173254,-666.6388126588092,262.76011416021464,-177.6520363697609,0.29174870994424634,-149.85660776518068,-4.4456,0.1793,4.9656,-57.3439,1.4182,71.1734,84.39999797556659,30.04304564825379,85.67573094131923,-27.485376993815102,-89.11287943522136,-35.83996242947048,-0.3809114966062036,-0.3809114966062036,-0.37516678913985146,0.7932874891493056,-0.0,-0.5428229437934028,-1.4853,-0.3051,-0.3235,0.00727,-0.00754,0.0367,0.0009783424902707338,0.0009997376473620534,0.000828063057269901,0.0004277801199350506,0.0004993709153495729,0.0004697145486716181,0.01151824090629816,0.01122745405882597,0.011699353344738483,passive,0
0.2405,rehab,medium,79.81752008119192,-666.6384466840472,262.85256590023073,-177.65229057853148,0.29197900946459365,-149.85500817322438,-5.6442,0.164,6.4642,-68.6963,0.6265,78.8957,84.39311112507735,30.036539512105506,85.66991145067875,-27.472474839952255,-89.11263359917534,-35.848303900824654,-0.489748208829672,-0.489748208829672,-0.405263617487237,0.9222666422526041,-0.0,-0.6106736924913194,-1.4298,-0.2388,0.0121,0.00504,-0.00598,0.03181,0.0009783424902707338,0.0009997376473620534,0.000828063057269901,0.0004277801199350506,0.0004993709153495729,0.0004697145486716181,0.01151824090629816,0.01122745405882597,0.011699353344738483,passive,0
0.2604,rehab,medium,79.66405255655656,-666.6323245814204,263.0366481485268,-177.65229343786882,0.292048523720011,-149.85247819554914,-7.2669,0.122,8.2423,-81.3836,-0.5025,84.7341,84.37958896750271,30.022908579004874,85.65969334970606,-27.448137071397568,-89.1121843126085,-35.86407979329427,-0.6529998779296875,-0.7074148348062346,-0.46339733765857055,1.1221059163411458,-0.0,-0.7463751898871528,-1.5324,-0.2225,0.1019,0.00962,-0.01051,0.03201,0.0009783424902707338,0.0009997376473620534,0.000828063057269901,0.0004277801199350506,0.0004993709153495729,0.0004697145486716181,0.01151824090629816,0.01122745405882597,0.011699353344738483,passive,0
0.2806,rehab,medium,79.5295672539793,-666.6277905733646,263.1924954475569,-177.65189401133264,0.291825735463372,-149.85126077762138,-9.0294,0.1069,9.9536,-95.2754,-1.5565,90.1937,84.36775283058091,30.011344380898052,85.65127004491221,-27.428241305881077,-89.11181131998698,-35.87690565321181,-0.7618297916827815,-0.7618297916827815,-0.5903043841371441,1.3566674126519096,0.06785074869791667,-0.8820851643880208,-1.6058,-0.3371,-0.3263,-0.00362,-0.00726,0.03495,0.0009783424902707338,0.0009997376473620534,0.000828063057269901,0.0004277801199350506,0.0004993709153495729,0.0004697145486716181,0.01151824090629816,0.01122745405882597,0.011699353344738483,passive,0
0.3009,rehab,medium,79.26567741154892,-666.62613552352,263.4766985274954,-177.65091566837017,0.29118358484676565,-149.85053424669687,-11.2802,0.0927,11.9935,-112.6158,-2.0855,98.9048,84.34461083742652,29.990792604956297,85.63514407318418,-27.392069498697914,-89.11117553710938,-35.90036180284288,-1.0883331298828125,-0.9250814607827971,-0.7848902031926825,1.6194831000434027,0.06785074869791667,-1.0177951388888888,-1.6816,-0.2986,-0.2436,-0.00306,0.00603,0.03289,0.0009783424902707338,0.0009997376473620534,0.000828063057269901,0.0004277801199350506,0.0004993709153495729,0.0004697145486716181,0.01151824090629816,0.01122745405882597,0.011699353344738483,passive,0
0.3205,rehab,medium,79.05565671955343,-666.6285869740058,263.69375863600936,-177.6505420284637,0.2909067302057499,-149.85025353777468,-13.1965,0.0664,13.6377,-130.7785,-1.9781,110.705,84.32623457200457,29.975496046613937,85.6220026299505,-27.363577948676216,-89.11072625054253,-35.91869778103298,-1.305999755859375,-1.0339181730062654,-0.8522970369546721,1.944970024956597,-0.0,-1.2892066107855902,-1.4937,-0.2322,0.1975,0.00436,-0.01746,0.03511,0.0009783424902707338,0.0009997376473620534,0.000828063057269901,0.0004277801199350506,0.0004993709153495729,0.0004697145486716181,0.01151824090629816,0.01122745405882597,0.011699353344738483,passive,0
0.3408,rehab,medium,78.8140278956535,-666.6288700077472,263.93470202311755,-177.65074148224213,0.29105065495413246,-149.8502668374941,-15.6047,0.0118,15.5491,-142.6708,-1.6419,119.8734,84.30507093372911,29.958187141040764,85.60767825287168,-27.331110636393227,-89.11020914713542,-35.939483642578125,-1.5236663818359375,-1.1427480867593596,-0.9033943402885211,2.231046888563368,-0.0,-1.2892066107855902,-1.5627,-0.3211,-0.0091,0.01477,-0.01994,0.03256,0.0009783424902707338,0.0009997376473620534,0.000828063057269901,0.0004277801199350506,0.0004993709153495729,0.0004697145486716181,0.01151824090629816,0.01122745405882597,0.011699353344738483,passive,0
0.3609,rehab,medium,78.39504671793367,-666.6237065640115,264.3437000313127,-177.6517842322786,0.2918706733768708,-149.8496743107456,-19.1551,-0.0422,18.511,-149.2458,-1.3955,127.195,84.26831160441483,29.92812430504525,85.58414874690594,-27.27515326605903,-89.10923428005643,-35.97620646158854,-1.5780813387124846,-1.360414712735922,-1.080154570022432,2.4508158365885415,0.06785074869791667,-1.696319580078125,-1.7819,-0.2414,-0.2198,0.00878,-0.008,0.04568,0.0009783424902707338,0.0009997376473620534,0.000828063057269901,0.0004277801199350506,0.0004993709153495729,0.0004697145486716181,0.01151824090629816,0.01122745405882597,0.011699353344738483,passive,0
0.3804,rehab,medium,78.0746460310132,-666.6262458240244,264.6566627434588,-177.65205863434517,0.2920652128559583,-149.84955633866838,-22.0839,-0.0617,20.968,-144.3973,-0.854,126.3746,84.24026791412051,29.905913702332146,85.56508583597618,-27.23275926378038,-89.10854763454861,-36.00389268663194,-1.9589996337890625,-1.4692514249593904,-1.273720618521813,2.7540164523654513,-0.0,-1.832029554578993,-1.5799,-0.2452,0.0805,0.01781,-0.0211,0.03754,0.0009783424902707338,0.0009997376473620534,0.000828063057269901,0.0004277801199350506,0.0004993709153495729,0.0004697145486716181,0.01151824090629816,0.01122745405882597,0.011699353344738483,passive,0
0.4008,rehab,medium,77.5235819321768,-666.6280872536978,265.1887498954258,-177.65193322986906,0.29201348406242283,-149.84985443389473,-25.7423,-0.0653,24.2268,-134.7053,0.0091,121.7064,84.19201237140315,29.867787880472616,85.53354773190942,-27.161890665690102,-89.10733540852864,-36.0510508219401,-2.067836346012531,-1.6325030940594059,-1.3352943647025834,3.097551133897569,-0.0,-2.0355902777777777,-1.6444,-0.3563,0.4081,-0.00468,-0.00329,0.03327,0.0009783424902707338,0.0009997376473620534,0.000828063057269901,0.0004277801199350506,0.0004993709153495729,0.0004697145486716181,0.01151824090629816,0.01122745405882597,0.011699353344738483,passive,0
0.4207,rehab,medium,77.11274614662526,-666.629046036648,265.5675471796914,-177.6526482929232,0.2925591025610698,-149.85034186193997,-28.1943,-0.0563,26.5532,-123.1369,0.793,114.2079,84.15603486618193,29.8405124173306,85.5109428179146,-27.110120985243054,-89.10643683539496,-36.08595954047309,-2.2310880151125465,-1.795747964689047,-1.5385482334854579,3.3959367540147567,0.06785074869791667,-2.2391425238715277,-1.5304,-0.3603,0.0152,0.00834,-0.0075,0.03659,0.0009783424902707338,0.0009997376473620534,0.000828063057269901,0.0004277801199350506,0.0004993709153495729,0.0004697145486716181,0.01151824090629816,0.01122745405882597,0.011699353344738483,passive,0
0.4407,rehab,medium,76.31496486541829,-666.6323948039262,266.2987632774118,-177.65354438861533,0.2932393166463777,-149.85066285074305,-29.8803,-0.0347,28.2354,-104.2876,1.3154,97.6382,84.08618738155553,29.788116606155246,85.46711307941096,-27.010828653971352,-89.10469055175781,-36.154369778103295,-2.61199951171875,-2.0134145906656093,-1.607178791914836,3.6970096164279513,0.13570149739583334,-2.6462639702690973,-1.6222,-0.2719,0.2605,0.00205,-0.01389,0.03335,0.0009783424902707338,0.0009997376473620534,0.000828063057269901,0.0004277801199350506,0.0004993709153495729,0.0004697145486716181,0.01151824090629816,0.01122745405882597,0.011699353344738483,passive,0
0.4606,rehab,medium,75.82008277723578,-666.6337819870298,266.76713928261717,-177.65284638586584,0.29267977855611826,-149.85032538764236,-31.5148,0.0056,29.8753,-89.2356,1.3463,81.3938,84.04286072985961,29.754668131913288,85.43946370039836,-26.949403550889755,-89.10364786783855,-36.19734022352431,-2.8296661376953125,-2.0134145906656093,-1.8301006354907952,3.9437018500434027,0.06785074869791667,-2.714114718967014,-1.6548,-0.3934,0.0395,0.00691,-0.00687,0.03671,0.0009783424902707338,0.0009997376473620534,0.000828063057269901,0.0004277801199350506,0.0004993709153495729,0.0004697145486716181,0.01151824090629816,0.01122745405882597,0.011699353344738483,passive,0
0.4808,rehab,medium,75.0290510672765,-666.6322137264899,267.51810085406333,-177.6522500319882,0.29224345712819855,-149.84954524924387,-33.3702,0.0453,31.5639,-82.293,0.9594,70.8768,83.97355712286317,29.700878634311184,85.39515806896851,-26.850085788302952,-89.10191006130643,-36.26630147298177,-2.992917806795328,-2.3399179288656407,-1.966838270130724,4.276182386610243,0.06785074869791667,-2.985526190863715,-1.6532,-0.4174,-0.3071,0.02278,-0.01866,0.03479,0.0009783424902707338,0.0009997376473620534,0.000828063057269901,0.0004277801199350506,0.0004993709153495729,0.0004697145486716181,0.01151824090629816,0.01122745405882597,0.011699353344738483,passive,0
0.5006,rehab,medium,74.47124441157784,-666.6300460749662,268.0598822531678,-177.65120565409532,0.29151280085848397,-149.84858227479722,-35.2637,0.0533,33.1138,-92.9866,0.3217,77.104,83.92466932240099,29.662208934821706,85.36325964597192,-26.779395209418404,-89.10064697265625,-36.31535000271267,-3.2105844327718907,-2.448754641089109,-2.025284719939279,4.533326890733507,0.06785074869791667,-3.121236165364583,-1.9378,-0.4003,-0.0649,0.00017,-0.00738,0.04119,0.0009783424902707338,0.0009997376473620534,0.000828063057269901,0.0004277801199350506,0.0004993709153495729,0.0004697145486716181,0.01151824090629816,0.01122745405882597,0.011699353344738483,passive,0
0.5206,rehab,medium,73.88438451990974,-666.6249047231698,268.6249820734906,-177.650503184422,0.2909927644248987,-149.84737017840453,-36.9624,0.052,34.4003,-110.7574,-0.3999,91.6467,83.8732117001373,29.621635663627398,85.33021907995243,-26.70517815483941,-89.0993414984809,-36.367179022894966,-3.5370877709719215,-2.557584554842203,-2.1229583438080137,4.749391343858507,0.13570149739583334,-3.324796888563368,-1.7931,-0.3801,0.3083,-0.00603,-0.01315,0.03877,0.0009783424902707338,0.0009997376473620534,0.000828063057269901,0.0004277801199350506,0.0004993709153495729,0.0004697145486716181,0.01151824090629816,0.01122745405882597,0.011699353344738483,passive,0
0.5404,rehab,medium,72.94217779820858,-666.6260511719515,269.50266208230755,-177.6501194267933,0.290769263376738,-149.8470385932723,-38.8509,0.041,35.8093,-116.4342,-0.8451,97.7198,83.79068506826269,29.559715195457535,85.27676950586904,-26.58792283799913,-89.0972391764323,-36.44871181911892,-3.5915027278484684,-2.448754641089109,-2.2983248871151765,5.1996103922526045,0.06785074869791667,-3.2569376627604165,-1.852,-0.2709,0.2653,0.00868,0.00125,0.04104,0.0009783424902707338,0.0009997376473620534,0.000828063057269901,0.0004277801199350506,0.0004993709153495729,0.0004697145486716181,0.01151824090629816,0.01122745405882597,0.011699353344738483,passive,0
0.5604,rehab,medium,72.2726103328142,-666.62756950857,270.10427139033646,-177.65093882466527,0.2913852310442484,-149.84787858418883,-41.2569,0.0069,37.806,-121.4429,-0.9126,106.3738,83.73205505975402,29.517387918906635,85.23945950045444,-26.505635579427082,-89.09579806857639,-36.50557623969184,-3.918006066048499,-2.7752511808187657,-2.273938773882271,5.159818861219618,0.06785074869791667,-3.4604983859592013,-1.8715,-0.4642,-0.403,0.00063,-0.00506,0.04214,0.0009783424902707338,0.0009997376473620534,0.000828063057269901,0.0004277801199350506,0.0004993709153495729,0.0004697145486716181,0.01151824090629816,0.01122745405882597,0.011699353344738483,passive,0
0.5805,rehab,medium,71.22486888179567,-666.6280244288058,271.03898410673,-177.65279210664167,0.29267318548785676,-149.8486588957777,-44.2806,-0.0285,40.6025,-117.948,-0.6998,109.2641,83.64030290358137,29.451714695090114,85.1811150277015,-26.376800537109375,-89.09361097547743,-36.59510294596354,-3.918006066048499,-2.8296661376953125,-2.541696529577274,5.58900621202257,0.13570149739583334,-3.8676198323567705,-1.8496,-0.3429,0.2903,0.00351,-0.00589,0.0392,0.0009783424902707338,0.0009997376473620534,0.000828063057269901,0.0004277801199350506,0.0004993709153495729,0.0004697145486716181,0.01151824090629816,0.01122745405882597,0.011699353344738483,passive,0
0.6007,rehab,medium,70.50452635549463,-666.6291144417762,271.6914771646432,-177.65343824108257,0.29307427683597365,-149.84936251389024,-47.6533,-0.0484,43.8528,-101.9747,-0.4324,101.2542,83.57723349391824,29.4062873160485,85.14003187122911,-26.28777398003472,-89.09213595920139,-36.6564687093099,-3.918006066048499,-3.047339562142249,-2.6917999569732363,5.746731228298611,0.06785074869791667,-3.8676198323567705,-1.7606,-0.3933,0.103,0.0124,-0.0069,0.03287,0.0009783424902707338,0.0009997376473620534,0.000828063057269901,0.0004277801199350506,0.0004993709153495729,0.0004697145486716181,0.01151824090629816,0.01122745405882597,0.011699353344738483,passive,0
0.6204,rehab,medium,69.39158700107981,-666.6288022160559,272.73167936711025,-177.65209897145098,0.29213566405519004,-149.8504646013521,-48.2566,-0.0342,44.5992,-78.397,-0.2033,84.9162,83.47975022721998,29.334203134668936,85.07509288221303,-26.14966498480903,-89.0897199842665,-36.75128512912326,-4.081257735148514,-3.1017545190187965,-2.8050148841178064,5.867529975043403,0.06785074869791667,-4.0033213297526045,-1.8647,-0.3665,-0.4345,0.01654,-0.0048,0.04333,0.0009783424902707338,0.0009997376473620534,0.000828063057269901,0.0004277801199350506,0.0004993709153495729,0.0004697145486716181,0.01151824090629816,0.01122745405882597,0.011699353344738483,passive,0
0.6409,rehab,medium,68.63463761440323,-666.6284381301567,273.44801539610467,-177.65111491934888,0.2914492935446267,-149.85123126941517,-49.7812,-0.0085,46.311,-45.9679,0.0989,57.9504,83.41344474565865,29.284955015276918,85.02978787563815,-26.054458618164062,-89.08807542588976,-36.81574503580729,-4.190087648901609,-3.1017545190187965,-2.8991872957437343,5.88348388671875,0.13570149739583334,-4.274732801649305,-1.7246,-0.47,0.2755,0.02489,-0.01624,0.03462,0.0009783424902707338,0.0009997376473620534,0.000828063057269901,0.0004277801199350506,0.0004993709153495729,0.0004697145486716181,0.01151824090629816,0.01122745405882597,0.011699353344738483,passive,0
0.6604,rehab,medium,67.29279845480457,-666.6304547879087,274.7115155933041,-177.65132245335187,0.29158045090465745,-149.85061852985726,-51.3593,-0.009,48.1323,-17.183,0.2427,30.7519,83.29593318523747,29.199178714563352,84.94725444529315,-25.882559882269966,-89.08520168728299,-36.93193223741319,-4.190087648901609,-2.938502849918781,-3.0138978863706685,6.12961663140191,0.06785074869791667,-4.206882052951388,-1.8098,-0.4729,0.0357,0.01768,-0.01087,0.03956,0.0009783424902707338,0.0009997376473620534,0.000828063057269901,0.0004277801199350506,0.0004993709153495729,0.0004697145486716181,0.01151824090629816,0.01122745405882597,0.011699353344738483,passive,0
0.6809,rehab,medium,66.51711412832191,-666.6301067460881,275.4396498190685,-177.65208474163055,0.29213040064417,-149.8504657243793,-49.8166,-0.0179,47.0303,3.5388,0.0942,9.399,83.22798927231591,29.14995778905283,84.89908728269067,-25.782301161024304,-89.08355712890625,-36.9989013671875,-4.353339318001624,-3.047339562142249,-3.162818379921488,6.36641608344184,0.13570149739583334,-4.206882052951388,-1.7715,-0.2817,0.0486,0.02271,-0.00847,0.0434,0.0009783424902707338,0.0009997376473620534,0.000828063057269901,0.0004277801199350506,0.0004993709153495729,0.0004697145486716181,0.01151824090629816,0.01122745405882597,0.011699353344738483,passive,0
0.7008,rehab,medium,65.3312540660636,-666.6302420215566,276.5351744815029,-177.65450586801862,0.2939831830476901,-149.85108891086674,-50.1394,-0.0279,47.6307,4.9723,-0.1815,7.805,83.1241222419361,29.0764051380724,84.82523549901377,-25.62891642252604,-89.08102247450087,-37.100423177083336,-4.4077542748781715,-3.047339562142249,-3.207926230855507,6.4398193359375,0.06785074869791667,-4.274732801649305,-1.8312,-0.514,-0.1562,0.01127,-0.0156,0.03996,0.0009783424902707338,0.0009997376473620534,0.000828063057269901,0.0004277801199350506,0.0004993709153495729,0.0004697145486716181,0.01151824090629816,0.01122745405882597,0.011699353344738483,passive,0
0.7205,rehab,medium,64.52827165643978,-666.6296386436788,277.2915310733524,-177.65504793955415,0.2943808182781667,-149.85172727579425,-49.6049,-0.0271,47.2816,8.5638,-0.3107,4.7129,83.05379206591313,29.025919697072247,84.77433535132077,-25.524876912434895,-89.079344007704,-37.168943617078995,-4.571005943978187,-3.1017545190187965,-3.1591472059193224,6.462393866644965,0.13570149739583334,-4.274732801649305,-1.8864,-0.4549,0.2925,0.01366,-0.02074,0.04443,0.0009783424902707338,0.0009997376473620534,0.000828063057269901,0.0004277801199350506,0.0004993709153495729,0.0004697145486716181,0.01151824090629816,0.01122745405882597,0.011699353344738483,passive,0
0.7409,rehab,medium,63.30638104353886,-666.6311432366734,278.46318045754725,-177.65330963560865,0.29303368449466494,-149.85353555190727,-49.5805,-0.0222,47.2789,11.8211,-0.0625,-0.8816,82.94681133610187,28.94847832103767,84.69550028885945,-25.36780463324653,-89.07682630750868,-37.2723388671875,-4.298924361125077,-3.2105844327718907,-3.343861645991259,6.643091837565104,0.13570149739583334,-4.274732801649305,-1.8377,-0.4383,0.4499,0.02515,-0.01233,0.04131,0.0009783424902707338,0.0009997376473620534,0.000828063057269901,0.0004277801199350506,0.0004993709153495729,0.0004697145486716181,0.01151824090629816,0.01122745405882597,0.011699353344738483,passive,0
0.7604,rehab,medium,62.50329988880029,-666.6323651454497,279.2580619299541,-177.65113448614625,0.2913799082252236,-149.85361252516344,-49.812,-0.0336,47.5905,-8.8519,0.3156,12.1037,82.87649475701964,28.896504015025524,84.64159521726098,-25.262654622395832,-89.07513088650174,-37.34138488769531,-4.298924361125077,-3.1561694758953434,-3.3776636406926825,6.716851128472222,0.13570149739583334,-4.546152750651042,-1.9559,-0.4333,-0.0013,0.02195,-0.02091,0.04471,0.0009783424902707338,0.0009997376473620534,0.000828063057269901,0.0004277801199350506,0.0004993709153495729,0.0004697145486716181,0.01151824090629816,0.01122745405882597,0.011699353344738483,passive,0
0.7809,rehab,medium,61.70233265198861,-666.6332320837055,280.0390700510308,-177.65021382815965,0.2907234903721148,-149.85391769878117,-50.28,-0.033,48.2631,-24.0044,0.5653,16.6173,82.80635493816716,28.84570584438815,84.58764935484027,-25.157046847873264,-89.07341003417969,-37.41002400716146,-4.353339318001624,-3.047339562142249,-3.3336979327815595,6.645033094618055,0.06785074869791667,-4.342592027452257,-1.9552,-0.3856,0.1186,0.01711,-0.00745,0.04319,0.0009783424902707338,0.0009997376473620534,0.000828063057269901,0.0004277801199350506,0.0004993709153495729,0.0004697145486716181,0.01151824090629816,0.01122745405882597,0.011699353344738483,passive,0
0.8005,rehab,medium,60.30170671842782,-666.6326664580563,281.3639120925705,-177.6512316075449,0.29151700139711173,-149.85347526286802,-50.5039,-0.0198,48.6775,-18.5532,0.5706,2.3317,82.7011758030051,28.77194923929649,84.50778772335241,-24.99932183159722,-89.07082451714409,-37.51369900173611,-4.462176030225093,-2.884087893042234,-3.3113717560720914,6.686409844292535,0.20355224609375,-4.410442776150173,-2.0131,-0.5339,-0.0787,0.0042,-0.00995,0.04323,0.0009783424902707338,0.0009997376473620534,0.000828063057269901,0.0004277801199350506,0.0004993709153495729,0.0004697145486716181,0.01151824090629816,0.01122745405882597,0.011699353344738483,passive,0
0.8205,rehab,medium,59.49262870000976,-666.6326573602558,282.102197396346,-177.6530489672387,0.29287949648699046,-149.8539076477271,-49.8149,0.0045,47.6136,-9.1362,0.381,-15.3553,82.63063487440053,28.723877255279238,84.45496360854347,-24.894595675998264,-89.06917148166232,-37.58286370171441,-4.4077542748781715,-2.938502849918781,-3.2869448520169398,6.629231770833333,0.13570149739583334,-4.410442776150173,-1.8988,-0.5379,-0.2768,0.01728,-0.02533,0.04467,0.0009783424902707338,0.0009997376473620534,0.000828063057269901,0.0004277801199350506,0.0004993709153495729,0.0004697145486716181,0.01151824090629816,0.01122745405882597,0.011699353344738483,passive,0
0.8408,rehab,medium,58.29816169258931,-666.6342451461351,283.2393105473823,-177.65229918977013,0.2922301968511169,-149.85293489575247,-51.7639,0.03,48.3891,-1.9818,0.1258,-33.4073,82.50828960154315,28.639705393574026,84.36068242139156,-24.712939792209202,-89.06624688042534,-37.70406934950087,-4.4077542748781715,-3.047339562142249,-3.365045679677831,6.529447767469618,0.06785074869791667,-4.206882052951388,-1.8565,-0.4699,0.178,0.03028,-0.00326,0.04286,0.0009783424902707338,0.0009997376473620534,0.000828063057269901,0.0004277801199350506,0.0004993709153495729,0.0004697145486716181,0.01151824090629816,0.01122745405882597,0.011699353344738483,passive,0
0.8609,rehab,medium,57.51202469775867,-666.633716526991,284.00216096066794,-177.65046797056874,0.29086678993036713,-149.85222173446476,-52.4649,0.0275,48.0549,3.0616,-0.1982,-51.1748,82.43944829053218,28.59119150898244,84.30676375285233,-24.610790676540798,-89.0645260281033,-37.772462632921005,-4.244502605778156,-2.938502849918781,-3.422315994111618,6.492072211371528,0.06785074869791667,-4.274732801649305,-1.9041,-0.6558,0.1633,0.01129,-0.01211,0.03789,0.0009783424902707338,0.0009997376473620534,0.000828063057269901,0.0004277801199350506,0.0004993709153495729,0.0004697145486716181,0.01151824090629816,0.01122745405882597,0.011699353344738483,passive,0
0.8807,rehab,medium,56.33396756568913,-666.6307151455444,285.11114026138057,-177.64906280625024,0.28978982242629325,-149.85050349310856,-50.6261,0.0089,45.3494,9.5584,-0.3502,-67.2909,82.33627470413057,28.520677774259358,84.22781311639464,-24.46007622612847,-89.06196594238281,-37.87564595540365,-4.462176030225093,-2.8296661376953125,-3.232244359384669,6.192135281032986,0.06785074869791667,-4.342592027452257,-2.0242,-0.6545,0.3287,0.00143,-0.011,0.03663,0.0009783424902707338,0.0009997376473620534,0.000828063057269901,0.0004277801199350506,0.0004993709153495729,0.0004697145486716181,0.01151824090629816,0.01122745405882597,0.011699353344738483,passive,0
0.9006,rehab,medium,55.52885381127086,-666.6318114228178,285.81270038299226,-177.64971088198683,0.2902710208368534,-149.85090381662107,-49.4714,-0.0151,43.3941,19.8993,-0.1844,-80.0483,82.26582215564086,28.476351747418395,84.17670901459043,-24.361818101671005,-89.06027052137587,-37.94459025065104,-4.353339318001624,-2.7752511808187657,-3.189964672126392,6.172595553927951,0.20355224609375,-4.274732801649305,-2.0042,-0.6725,0.3382,0.0045,-0.01174,0.03878,0.0009783424902707338,0.0009997376473620534,0.000828063057269901,0.0004277801199350506,0.0004993709153495729,0.0004697145486716181,0.01151824090629816,0.01122745405882597,0.011699353344738483,passive,0
0.9209,rehab,medium,54.123809492523925,-666.6296435676127,286.97416229621194,-177.6531920004556,0.2929310189614234,-149.85081643207116,-49.9206,-0.029,42.4721,35.5216,0.054,-96.6606,82.1428378265683,28.40264953008973,84.0915037853883,-24.194971720377602,-89.05728658040364,-38.065787421332466,-4.244502605778156,-2.61199951171875,-3.0353402619314664,5.893113878038195,0.13570149739583334,-4.410442776150173,-2.0091,-0.6013,0.5021,0.01085,-0.01068,0.03688,0.0009783424902707338,0.0009997376473620534,0.000828063057269901,0.0004277801199350506,0.0004993709153495729,0.0004697145486716181,0.01151824090629816,0.01122745405882597,0.011699353344738483,passive,0
0.9405,rehab,medium,53.32040869179504,-666.6327139438702,287.624286415818,-177.65398104205175,0.29360828197994254,-149.85194519863336,-50.1108,-0.029,41.1125,33.0173,0.2434,-99.9064,82.07257563524907,28.36193349101756,84.04347939066368,-24.103190104166664,-89.0555402967665,-38.133884006076386,-4.353339318001624,-2.448754641089109,-2.915320065942141,5.655610826280382,0.13570149739583334,-4.342592027452257,-1.9167,-0.6152,0.3649,0.02374,-0.02069,0.04185,0.0009783424902707338,0.0009997376473620534,0.000828063057269901,0.0004277801199350506,0.0004993709153495729,0.0004697145486716181,0.01151824090629816,0.01122745405882597,0.011699353344738483,passive,0
0.9604,rehab,medium,52.52535352032685,-666.6344725760979,288.2792646905858,-177.65279709649377,0.29277220609196875,-149.8517132271914,-49.2765,-0.0053,38.8424,5.2318,0.2597,-84.5145,82.00302728331916,28.320843536074797,83.99612804450611,-24.014172024197048,-89.05374315049913,-38.20265028211806,-4.298924361125077,-2.557584554842203,-2.9767102534228034,5.4769134521484375,0.06785074869791667,-4.342592027452257,-1.9769,-0.4984,0.0421,0.03052,-0.01048,0.04545,0.0009783424902707338,0.0009997376473620534,0.000828063057269901,0.0004277801199350506,0.0004993709153495729,0.0004697145486716181,0.01151824090629816,0.01122745405882597,0.011699353344738483,passive,0
0.9804,rehab,medium,51.346291977222236,-666.6356716715165,289.22916098441186,-177.64990879009068,0.29053996789339787,-149.85008546852396,-48.5173,0.0378,36.7462,-14.5814,-0.0391,-76.9939,81.89989448773979,28.261078183013613,83.92829290711053,-23.887176513671875,-89.0510982937283,-38.305960761176216,-4.4077542748781715,-2.448754641089109,-2.7130927661857984,5.168202718098958,0.13570149739583334,-4.342592027452257,-2.0735,-0.654,-0.3642,0.02202,-0.02734,0.04702,0.0009783424902707338,0.0009997376473620534,0.000828063057269901,0.0004277801199350506,0.0004993709153495729,0.0004697145486716181,0.01151824090629816,0.01122745405882597,0.011699353344738483,passive,0
1.0006,rehab,medium,50.55529849455199,-666.6350822614519,289.8310792754356,-177.64853477543596,0.28938906160173344,-149.84918657124055,-47.9556,0.0368,34.707,-16.1249,-0.5379,-77.8814,81.83071325321009,28.22294556268371,83.88552372998531,-23.80602518717448,-89.04938591851128,-38.37511698404948,-4.462176030225093,-2.3399179288656407,-2.5586111238687343,4.9973805745442705,0.06785074869791667,-4.206882052951388,-1.9754,-0.5966,0.2503,0.02567,-0.00949,0.04273,0.0009783424902707338,0.0009997376473620534,0.000828063057269901,0.0004277801199350506,0.0004993709153495729,0.0004697145486716181,0.01151824090629816,0.01122745405882597,0.011699353344738483,passive,0
1.0208,rehab,medium,49.35263462529297,-666.6318739693328,290.6706428980522,-177.6488386677351,0.28959432129198454,-149.84934949699635,-49.2065,-0.0005,33.8031,-22.6946,-0.9194,-69.1668,81.7255137226369,28.16922404978535,83.82564960139813,-23.68899875217014,-89.04674953884549,-38.47882588704427,-4.353339318001624,-2.2310880151125465,-2.4343554808361696,4.71893310546875,0.13570149739583334,-4.274732801649305,-2.182,-0.6496,-0.5007,0.0078,-0.01474,0.04819,0.0009783424902707338,0.0009997376473620534,0.000828063057269901,0.0004277801199350506,0.0004993709153495729,0.0004697145486716181,0.01151824090629816,0.01122745405882597,0.011699353344738483,passive,0
1.0404,rehab,medium,48.549162224008874,-666.6285272065585,291.1926320369149,-177.6500697817468,0.2906594836767261,-149.850159767906,-50.9163,-0.0361,33.2642,-30.193,-0.8902,-52.3429,81.65521753896581,28.13553762908029,83.78835319292428,-23.61435784233941,-89.04491000705295,-38.547465006510414,-4.353339318001624,-2.0134145906656093,-2.3570976635017016,4.5759836832682295,0.13570149739583334,-4.206882052951388,-2.1942,-0.7791,0.0184,0.00235,-0.01335,0.04096,0.0009783424902707338,0.0009997376473620534,0.000828063057269901,0.0004277801199350506,0.0004993709153495729,0.0004697145486716181,0.01151824090629816,0.01122745405882597,0.011699353344738483,passive,0
1.0607,rehab,medium,47.34068899862947,-666.6277358740085,291.9525117029785,-177.65123864902463,0.2915675680558165,-149.85037015965847,-51.958,-0.0709,31.9992,-24.9539,-0.3281,-40.2153,81.5495761078183,28.08693536437384,83.733652700292,-23.506486680772568,-89.04223124186198,-38.651674058702255,-4.462176030225093,-1.9045846769125154,-2.2116035990195697,4.4425710042317705,0.06785074869791667,-4.274732801649305,-2.2138,-0.7257,0.4582,0.00315,-0.00823,0.04272,0.0009783424902707338,0.0009997376473620534,0.000828063057269901,0.0004277801199350506,0.0004993709153495729,0.0004697145486716181,0.01151824090629816,0.01122745405882597,0.011699353344738483,passive,0
1.0805,rehab,medium,46.529361138570344,-666.6332159729199,292.4381843688646,-177.65234291340008,0.2924117660936733,-149.85137682624924,-51.2189,-0.0833,30.6447,-13.0777,0.7147,-33.3717,81.478749643458,28.05658019415223,83.69738286084468,-23.43642340766059,-89.0404764811198,-38.720703125,-4.4077542748781715,-1.8501697200359684,-2.235398245329904,4.3605295817057295,0.13570149739583334,-4.206882052951388,-2.2221,-0.746,0.1315,0.02168,-0.0249,0.05145,0.0009783424902707338,0.0009997376473620534,0.000828063057269901,0.0004277801199350506,0.0004993709153495729,0.0004697145486716181,0.01151824090629816,0.01122745405882597,0.011699353344738483,passive,0
1.1012,rehab,medium,45.31072792346535,-666.6410491451596,293.1565933445257,-177.65295759490056,0.2929614195548763,-149.85257870408537,-51.0614,-0.0566,30.1799,7.825,1.77,-32.9707,81.37236717903968,28.011689894270187,83.64415763628365,-23.334392971462673,-89.03773837619357,-38.82472568088107,-4.462176030225093,-1.795747964689047,-2.171601399336711,4.205474853515625,0.13570149739583334,-4.274732801649305,-2.2292,-0.7614,0.4286,0.01705,-0.0169,0.04642,0.0009783424902707338,0.0009997376473620534,0.000828063057269901,0.0004277801199350506,0.0004993709153495729,0.0004697145486716181,0.01151824090629816,0.01122745405882597,0.011699353344738483,passive,0
1.1207,rehab,medium,44.49852596115347,-666.6416644444888,293.63187542982615,-177.65279898056318,0.2928808984173578,-149.85390450525523,-51.4293,0.0114,30.2355,26.8281,1.9738,-35.5533,81.30141834221264,27.981504685807938,83.60999532265238,-23.268169826931423,-89.03591579861111,-38.89359368218316,-4.190087648901609,-1.9045846769125154,-2.1471473014000617,4.1206614176432295,0.13570149739583334,-4.206882052951388,-2.2607,-0.7243,0.785,0.01251,-0.01167,0.04203,0.0009783424902707338,0.0009997376473620534,0.000828063057269901,0.0004277801199350506,0.0004993709153495729,0.0004697145486716181,0.01151824090629816,0.01122745405882597,0.011699353344738483,passive,0
1.1406,rehab,medium,43.08362927265746,-666.6387517101547,294.4564608219975,-177.65193081644958,0.2921196838558429,-149.85498587924326,-50.0127,0.077,29.2269,31.2112,1.3035,-31.4819,81.17780175539527,27.928932114402848,83.55135851567334,-23.154500325520832,-89.0328131781684,-39.014833238389755,-4.298924361125077,-1.8501697200359684,-2.113583253161742,4.037280612521701,0.13570149739583334,-4.410442776150173,-2.3767,-0.7545,0.2831,0.00123,-0.0092,0.04478,0.0009783424902707338,0.0009997376473620534,0.000828063057269901,0.0004277801199350506,0.0004993709153495729,0.0004697145486716181,0.01151824090629816,0.01122745405882597,0.011699353344738483,passive,0
1.1608,rehab,medium,42.29326603342949,-666.634160136077,294.9286713849748,-177.650904654359,0.29127882366906727,-149.85422246080896,-49.7204,0.1257,28.6581,21.9478,0.1222,-25.4788,81.10870890098043,27.89878769676284,83.5180936001315,-23.09035407172309,-89.03102450900607,-39.08395555284288,-4.135672692025062,-1.795747964689047,-2.0195196170618037,3.9678276909722223,0.13570149739583334,-4.410442776150173,-2.2538,-0.8089,-0.2914,0.02402,-0.01321,0.0522,0.0009783424902707338,0.0009997376473620534,0.000828063057269901,0.0004277801199350506,0.0004993709153495729,0.0004697145486716181,0.01151824090629816,0.01122745405882597,0.011699353344738483,passive,0
1.1806,rehab,medium,41.514448055111544,-666.6295188163748,295.39534234729877,-177.64990678049594,0.2905183659157713,-149.85203212188563,-49.5786,0.1217,28.1798,13.0195,-1.0898,-22.1942,81.04061542171063,27.869187156752783,83.48488987082303,-23.026724921332466,-89.0291765001085,-39.15351019965278,-4.353339318001624,-1.8501697200359684,-2.0566664591874226,4.044435289171007,0.06785074869791667,-4.47829352484809,-2.3391,-0.7021,0.0793,0.01466,-0.01733,0.04598,0.0009783424902707338,0.0009997376473620534,0.000828063057269901,0.0004277801199350506,0.0004993709153495729,0.0004697145486716181,0.01151824090629816,0.01122745405882597,0.011699353344738483,passive,0
1.2006,rehab,medium,40.32053812293377,-666.6240932213082,296.0679277825998,-177.6505276565462,0.29107970032049324,-149.8521591165873,-48.718,0.0443,27.2827,9.7427,-1.8172,-18.3101,80.93628609534538,27.82677150008702,83.43568254225325,-22.93117947048611,-89.02645534939236,-39.256625705295136,-4.462176030225093,-1.795747964689047,-2.0711472010848544,3.948516845703125,0.06785074869791667,-4.47829352484809,-2.3928,-0.8241,0.1122,0.00074,-0.00828,0.04486,0.0009783424902707338,0.0009997376473620534,0.000828063057269901,0.0004277801199350506,0.0004993709153495729,0.0004697145486716181,0.01151824090629816,0.01122745405882597,0.011699353344738483,passive,0
1.2208,rehab,medium,39.51089035337126,-666.626136186714,296.51584404404264,-177.65061372733066,0.29115680447066367,-149.85321946950617,-48.8642,-0.0391,27.1103,-5.0449,-1.6483,-4.2502,80.8656363912148,27.799312478244893,83.40181936131846,-22.867677476671005,-89.02466668023003,-39.32549370659722,-4.353339318001624,-1.6325030940594059,-2.1043237365118346,4.001210530598958,0.13570149739583334,-4.47829352484809,-2.4563,-0.9157,0.5644,-0.00333,-0.02513,0.04728,0.0009783424902707338,0.0009997376473620534,0.000828063057269901,0.0004277801199350506,0.0004993709153495729,0.0004697145486716181,0.01151824090629816,0.01122745405882597,0.011699353344738483,passive,0
1.2404,rehab,medium,38.2937139147782,-666.6322985501441,297.16165831308115,-177.65242413066602,0.29255564082319807,-149.85477344589734,-49.4264,-0.0918,27.3262,-21.46,-0.6947,12.1163,80.75949867172997,27.760364041470066,83.35118435397007,-22.77269999186198,-89.02205573187933,-39.429007636176216,-4.462176030225093,-1.7413330078125,-2.1403080402034345,3.920711941189236,0.13570149739583334,-4.546152750651042,-2.5656,-0.9551,-0.2326,-0.00224,-0.0066,0.0513,0.0009783424902707338,0.0009997376473620534,0.000828063057269901,0.0004277801199350506,0.0004993709153495729,0.0004697145486716181,0.01151824090629816,0.01122745405882597,0.011699353344738483,passive,0
1.2604,rehab,medium,37.49269193083669,-666.6340278272644,297.5990564819756,-177.6531164247471,0.29311206473203016,-149.854552883688,-50.0954,-0.0889,27.7711,-27.9582,0.5299,20.8277,80.6896171947517,27.733985976417465,83.31714441280553,-22.709308200412327,-89.02027553982205,-39.498392740885414,-4.298924361125077,-1.7413330078125,-2.1020394504660427,3.9188724093967013,0.06785074869791667,-4.546152750651042,-2.3605,-0.868,0.136,0.0176,-0.01638,0.04966,0.0009783424902707338,0.0009997376473620534,0.000828063057269901,0.0004277801199350506,0.0004993709153495729,0.0004697145486716181,0.01151824090629816,0.01122745405882597,0.011699353344738483,passive,0
1.2807,rehab,medium,36.30250661640008,-666.6382219624214,298.2678880116115,-177.6528570544988,0.2929850077910883,-149.85373120146878,-50.0836,-0.0335,28.0222,-28.7622,1.4996,22.1435,80.58581135060527,27.694228521668084,83.26480298939317,-22.61437310112847,-89.01754591200087,-39.601940578884545,-4.298924361125077,-1.686918050935953,-2.1469637426999535,3.889677259657118,0.06785074869791667,-4.546152750651042,-2.5977,-0.8617,-0.1259,0.01723,-0.01384,0.05679,0.0009783424902707338,0.0009997376473620534,0.000828063057269901,0.0004277801199350506,0.0004993709153495729,0.0004697145486716181,0.01151824090629816,0.01122745405882597,0.011699353344738483,passive,0
1.3006,rehab,medium,35.51573589319467,-666.6357298357063,298.7234130282778,-177.65224042185068,0.2924504755978203,-149.85264888493296,-50.5235,0.0431,28.548,-16.4832,1.6567,12.2177,80.51713320288327,27.666776298296334,83.23000161954673,-22.550854153103298,-89.01579115125868,-39.67097812228732,-4.190087648901609,-1.7413330078125,-2.159296167959081,3.8781314425998263,0.06785074869791667,-4.410442776150173,-2.6177,-1.1213,-0.7205,-0.00558,-0.00732,0.05459,0.0009783424902707338,0.0009997376473620534,0.000828063057269901,0.0004277801199350506,0.0004993709153495729,0.0004697145486716181,0.01151824090629816,0.01122745405882597,0.011699353344738483,passive,0
1.3209,rehab,medium,34.328380975688425,-666.6334291288982,299.40547391519533,-177.65095083728835,0.2912765051896937,-149.85139090637566,-52.1677,0.1058,29.5747,-0.6863,0.8801,-2.4568,80.41353811131846,27.626067057694538,83.1774630404935,-22.45621575249566,-89.01320563422308,-39.7747548421224,-4.190087648901609,-1.795747964689047,-2.19990343150526,3.9660220675998263,0.13570149739583334,-4.342592027452257,-2.6793,-0.8692,-0.2761,0.01186,-0.00423,0.05628,0.0009783424902707338,0.0009997376473620534,0.000828063057269901,0.0004277801199350506,0.0004993709153495729,0.0004697145486716181,0.01151824090629816,0.01122745405882597,0.011699353344738483,passive,0
1.3405,rehab,medium,33.53898806321417,-666.6305363201648,299.8487800217801,-177.65093164334476,0.29122018555527435,-149.85006910997333,-51.7467,0.1036,29.1869,10.8472,-0.4283,-14.6728,80.34464921101485,27.599668597230817,83.14282483393603,-22.393129136827255,-89.0114508734809,-39.844250149197045,-4.353339318001624,-1.5780813387124846,-2.191221784837175,3.879547119140625,0.06785074869791667,-4.410442776150173,-2.6824,-0.7517,0.128,0.01113,0.00674,0.05399,0.0009783424902707338,0.0009997376473620534,0.000828063057269901,0.0004277801199350506,0.0004993709153495729,0.0004697145486716181,0.01151824090629816,0.01122745405882597,0.011699353344738483,passive,0
1.3606,rehab,medium,32.153533569292655,-666.624938762152,300.6261005843528,-177.65087086337687,0.2912389309844949,-149.8487448875808,-50.9151,0.0507,28.2925,25.2462,-1.7543,-27.4147,80.22374521387685,27.553731332911124,83.08154342198135,-22.28228251139323,-89.00829739040799,-39.965218438042534,-4.244502605778156,-1.5780813387124846,-2.1768702138768563,4.018597073025173,0.13570149739583334,-4.410442776150173,-2.7345,-0.7964,0.3907,0.00808,-0.0051,0.05595,0.0009783424902707338,0.0009997376473620534,0.000828063057269901,0.0004277801199350506,0.0004993709153495729,0.0004697145486716181,0.01151824090629816,0.01122745405882597,0.011699353344738483,passive,0
1.3804,rehab,medium,31.355849294184473,-666.6256981220553,301.0673542991532,-177.6509260320037,0.2912825941385697,-149.8487708429811,-49.6408,-0.0145,27.1546,37.7224,-2.2455,-35.8538,80.15421725735806,27.528352643003558,83.0456271029935,-22.218831380208332,-89.0065426296658,-40.03400166829427,-4.516590987101639,-1.5780813387124846,-2.2390082330987005,3.9358350965711804,0.06785074869791667,-4.206882052951388,-2.7527,-0.9705,-0.567,-0.01168,-0.01327,0.05839,0.0009783424902707338,0.0009997376473620534,0.000828063057269901,0.0004277801199350506,0.0004993709153495729,0.0004697145486716181,0.01151824090629816,0.01122745405882597,0.011699353344738483,passive,0
1.4011,rehab,medium,30.14622476673241,-666.6282602423441,301.7227507313692,-177.65103399629987,0.29129144386586436,-149.84933624915243,-48.9086,-0.0784,26.4135,40.1324,-1.7674,-34.8988,80.04884096655515,27.49103583911858,82.99168803904315,-22.124337090386284,-89.0039571126302,-40.1377444797092,-4.4077542748781715,-1.4692514249593904,-2.196286645266089,4.030558268229167,0.13570149739583334,-4.206882052951388,-2.796,-1.0068,-0.8674,-0.00091,-0.00698,0.05853,0.0009783424902707338,0.0009997376473620534,0.000828063057269901,0.0004277801199350506,0.0004993709153495729,0.0004697145486716181,0.01151824090629816,0.01122745405882597,0.011699353344738483,passive,0
1.4209,rehab,medium,29.339068721269225,-666.6318689576306,302.1464691240999,-177.65189812401624,0.29200678650912165,-149.8499595117881,-49.0288,-0.1172,26.3344,21.7144,-0.6065,-19.9442,79.97856517829517,27.467377162215733,82.95569013841082,-22.06146240234375,-89.00221082899306,-40.206688774956596,-4.4077542748781715,-1.4692514249593904,-2.2704103677579672,3.8261244032118054,0.06785074869791667,-4.47829352484809,-2.866,-0.897,-0.3568,0.00152,-0.01344,0.0606,0.0009783424902707338,0.0009997376473620534,0.000828063057269901,0.0004277801199350506,0.0004993709153495729,0.0004697145486716181,0.01151824090629816,0.01122745405882597,0.011699353344738483,passive,0
1.4408,rehab,medium,28.53169480392102,-666.6350436853809,302.5800960285885,-177.65207409521034,0.29217423132648684,-149.84978349420047,-48.0414,-0.1221,25.7552,-8.8481,0.8094,2.9098,79.90826899462407,27.44326978626818,82.91902598768178,-21.99832492404514,-89.00042215983073,-40.27644687228732,-4.244502605778156,-1.4148296696124691,-2.2379204778387995,3.876461452907986,0.06785074869791667,-4.410442776150173,-2.9039,-1.046,-0.8347,-0.00888,-0.01441,0.06032,0.0009783424902707338,0.0009997376473620534,0.000828063057269901,0.0004277801199350506,0.0004993709153495729,0.0004697145486716181,0.01151824090629816,0.01122745405882597,0.011699353344738483,passive,0
1.4607,rehab,medium,27.330186377946283,-666.638325965424,303.2164709907875,-177.65312044568182,0.2931003212928576,-149.8508576979051,-47.722,-0.0674,25.6002,-35.5245,1.7596,22.2262,79.80366093097346,27.408087702080756,82.86455664304223,-21.90415276421441,-88.99779425726996,-40.378918117947045,-4.298924361125077,-1.5236663818359375,-2.2116579867825648,3.8697136773003473,0.13570149739583334,-4.206882052951388,-2.8422,-0.951,-0.9117,-0.0001,-0.01888,0.06578,0.0009783424902707338,0.0009997376473620534,0.000828063057269901,0.0004277801199350506,0.0004993709153495729,0.0004697145486716181,0.01151824090629816,0.01122745405882597,0.011699353344738483,passive,0
1.4807,rehab,medium,26.538505362152186,-666.6357996864447,303.65172134601505,-177.65323911451574,0.29322401845528706,-149.8504950754096,-48.9609,0.0094,26.4049,-47.4181,1.9936,30.9314,79.73467005361425,27.383687991907102,82.82814403571705,-21.841074625651043,-88.99603949652777,-40.44755723741319,-4.190087648901609,-1.4692514249593904,-2.3466756084177756,4.086761474609375,0.13570149739583334,-4.139031304253472,-2.7996,-0.8456,-0.4939,0.01057,-0.01528,0.05969,0.0009783424902707338,0.0009997376473620534,0.000828063057269901,0.0004277801199350506,0.0004993709153495729,0.0004697145486716181,0.01151824090629816,0.01122745405882597,0.011699353344738483,passive,0
1.5005,rehab,medium,25.346112623867267,-666.6374951333545,304.2979429954077,-177.653432609569,0.2933715229878153,-149.85031096576188,-50.8881,0.062,27.5892,-41.2745,1.6733,27.4187,79.63087780640856,27.348417527604813,82.77258013734723,-21.746851603190105,-88.99345397949219,-40.55046929253472,-4.353339318001624,-1.5236663818359375,-2.4299092812113243,3.8370768229166665,0.13570149739583334,-4.274732801649305,-2.8879,-1.1485,-0.5091,-0.00488,-0.01641,0.06097,0.0009783424902707338,0.0009997376473620534,0.000828063057269901,0.0004277801199350506,0.0004993709153495729,0.0004697145486716181,0.01151824090629816,0.01122745405882597,0.011699353344738483,passive,0
1.5204,rehab,medium,24.545971988958243,-666.6343734639128,304.73823510100124,-177.65301423633355,0.2930372914549197,-149.85016151928863,-52.231,0.0849,28.3972,-32.5314,0.976,20.934,79.56117308966004,27.324024615901532,82.73556926462909,-21.683866712782116,-88.99169074164496,-40.619608561197914,-4.353339318001624,-1.5236663818359375,-2.2667459922261757,3.870756361219618,0.13570149739583334,-4.206882052951388,-2.812,-1.1023,-0.4413,-0.00135,-0.01999,0.06103,0.0009783424902707338,0.0009997376473620534,0.000828063057269901,0.0004277801199350506,0.0004993709153495729,0.0004697145486716181,0.01151824090629816,0.01122745405882597,0.011699353344738483,passive,0
1.5406,rehab,medium,23.32918446439987,-666.6318466008316,305.39270719218837,-177.6524662972663,0.29255863987416075,-149.8515432379158,-52.9954,0.0787,28.8715,-16.9991,0.032,9.9215,79.4552461227568,27.288264661732285,82.67975382285543,-21.589847140842014,-88.98908827039931,-40.72308858235677,-4.353339318001624,-1.5236663818359375,-2.304484301274366,3.9106072319878473,0.06785074869791667,-4.410442776150173,-2.9081,-1.1114,-0.7745,-0.00452,-0.00511,0.06096,0.0009783424902707338,0.0009997376473620534,0.000828063057269901,0.0004277801199350506,0.0004993709153495729,0.0004697145486716181,0.01151824090629816,0.01122745405882597,0.011699353344738483,passive,0
1.5604,rehab,medium,22.514602979357548,-666.6284336848098,305.83633883973675,-177.65174912607242,0.29192943020517903,-149.85300015720787,-52.6186,0.0443,28.6553,13.2026,-0.7553,-9.6637,79.38432447981126,27.264021316377242,82.64211749086286,-21.526811387803818,-88.98736741807726,-40.79183790418837,-4.353339318001624,-1.4692514249593904,-2.401280922464805,3.9507632785373263,0.06785074869791667,-4.342592027452257,-2.9412,-1.1359,0.1562,-0.01206,-0.01554,0.06132,0.0009783424902707338,0.0009997376473620534,0.000828063057269901,0.0004277801199350506,0.0004993709153495729,0.0004697145486716181,0.01151824090629816,0.01122745405882597,0.011699353344738483,passive,0
1.5804,rehab,medium,21.105353132179612,-666.6299989535717,306.6024024339357,-177.65068644353227,0.29102754409153686,-149.85395113644395,-50.8213,0.016,27.5662,46.43,-1.1063,-30.5195,79.26176845437229,27.223597611531172,82.57477184333423,-21.416736178927952,-88.98433261447482,-40.91219584147135,-4.190087648901609,-1.4692514249593904,-2.4322683504312343,3.94394768608941,0.06785074869791667,-4.206882052951388,-2.9527,-1.0477,-0.3895,-0.01122,-0.00568,0.05983,0.0009783424902707338,0.0009997376473620534,0.000828063057269901,0.0004277801199350506,0.0004993709153495729,0.0004697145486716181,0.01151824090629816,0.01122745405882597,0.011699353344738483,passive,0
1.601,rehab,medium,20.300349652577594,-666.6294894582687,307.0401583303178,-177.65015526370448,0.29060284621621735,-149.85407999288338,-49.9887,0.0136,26.9774,61.0749,-1.1705,-40.2829,79.19175100798654,27.200584789313893,82.53612253925589,-21.353624131944443,-88.98256937662761,-40.98136901855469,-4.298924361125077,-1.4148296696124691,-2.464812628113397,3.976101345486111,0.06785074869791667,-4.546152750651042,-3.0292,-1.2214,-0.5191,-0.02071,-0.00811,0.05772,0.0009783424902707338,0.0009997376473620534,0.000828063057269901,0.0004277801199350506,0.0004993709153495729,0.0004697145486716181,0.01151824090629816,0.01122745405882597,0.011699353344738483,passive,0
1.6208,rehab,medium,19.092878455869425,-666.6322210952527,307.69411131537606,-177.64905003514497,0.28967049518426496,-149.85431558418878,-49.6864,-0.0048,26.6457,48.4798,-1.0844,-34.1768,79.08681661775796,27.166932360960704,82.47741094910272,-21.259511311848957,-88.97994995117188,-41.085001627604164,-4.462176030225093,-1.4148296696124691,-2.5286978542214573,3.91738043891059,0.13570149739583334,-4.342592027452257,-3.0243,-1.0406,-0.363,-0.00863,-0.00505,0.06198,0.0009783424902707338,0.0009997376473620534,0.000828063057269901,0.0004277801199350506,0.0004993709153495729,0.0004697145486716181,0.01151824090629816,0.01122745405882597,0.011699353344738483,passive,0
1.6407,rehab,medium,18.289486924712424,-666.6313555576489,308.1276729618399,-177.6488505066284,0.2894120366026249,-149.85453495327494,-48.276,-0.025,25.7127,22.3705,-0.8452,-19.0408,79.01698273007233,27.14457899036974,82.43834013986115,-21.196280585394966,-88.97828843858507,-41.153903537326386,-4.244502605778156,-1.360414712735922,-2.373040076529626,3.8491651746961804,0.06785074869791667,-4.274732801649305,-2.9781,-1.0405,-0.4082,-0.00559,-0.01849,0.06391,0.0009783424902707338,0.0009997376473620534,0.000828063057269901,0.0004277801199350506,0.0004993709153495729,0.0004697145486716181,0.01151824090629816,0.01122745405882597,0.011699353344738483,passive,0
1.6608,rehab,medium,17.495070690814572,-666.6327738209525,308.541145246662,-177.6499731969887,0.29034873917674614,-149.8540300206035,-47.0849,-0.0407,24.9116,-10.3421,-0.632,0.9342,78.94797145730197,27.123870849609375,82.39947328473082,-21.13311767578125,-88.97660149468315,-41.22271219889323,-4.462176030225093,-1.305999755859375,-2.4340563481396966,3.9426761203342013,0.06785074869791667,-4.274732801649305,-3.1311,-1.0826,-0.5114,-0.00672,-0.00049,0.063,0.0009783424902707338,0.0009997376473620534,0.000828063057269901,0.0004277801199350506,0.0004993709153495729,0.0004697145486716181,0.01151824090629816,0.01122745405882597,0.011699353344738483,passive,0
1.6806,rehab,medium,16.320181024917456,-666.6293959841735,309.158912094221,-177.65175150968162,0.29192790587051687,-149.85211157856182,-47.0053,-0.0577,24.8079,-33.6246,-0.4752,15.9752,78.8458244399269,27.092604684357596,82.34186984524868,-21.038682725694443,-88.97401597764757,-41.325717502170136,-4.244502605778156,-1.305999755859375,-2.4359599198445236,3.9550187852647567,0.13570149739583334,-4.342592027452257,-3.2963,-1.1446,-0.9943,-0.02157,0.00838,0.06885,0.0009783424902707338,0.0009997376473620534,0.000828063057269901,0.0004277801199350506,0.0004993709153495729,0.0004697145486716181,0.01151824090629816,0.01122745405882597,0.011699353344738483,passive,0
1.7011,rehab,medium,15.534939329002038,-666.6299943167533,309.5708198512239,-177.6528232728215,0.29291206241160844,-149.8503200709314,-49.7368,-0.0693,26.2724,-46.0848,-0.061,25.2161,78.77761538666074,27.072324847230817,82.30262227577738,-20.975553724500866,-88.97226121690538,-41.39500935872396,-4.4077542748781715,-1.251584798982828,-2.54454508866414,4.014316134982638,0.13570149739583334,-4.342592027452257,-3.1939,-1.2494,-0.7397,-0.0125,-0.00603,0.06098,0.0009783424902707338,0.0009997376473620534,0.000828063057269901,0.0004277801199350506,0.0004993709153495729,0.0004697145486716181,0.01151824090629816,0.01122745405882597,0.011699353344738483,passive,0
1.7204,rehab,medium,14.328645429227501,-666.635522755573,310.2082496880482,-177.65290573490012,0.2930281942197937,-149.85167363487508,-51.1769,-0.0645,27.109,-48.8606,0.5065,28.8029,78.67296653218789,27.041616156549736,82.24164679498956,-20.88055928548177,-88.96970113118489,-41.49723476833767,-4.244502605778156,-1.360414712735922,-2.6131688486231437,3.902308146158854,0.13570149739583334,-4.206882052951388,-3.154,-1.3239,-1.1823,-0.01857,-0.01391,0.06529,0.0009783424902707338,0.0009997376473620534,0.000828063057269901,0.0004277801199350506,0.0004993709153495729,0.0004697145486716181,0.01151824090629816,0.01122745405882597,0.011699353344738483,passive,0
1.7409,rehab,medium,13.523192535785634,-666.6370668139393,310.6413304214236,-177.6523972875021,0.2925653771380982,-149.85217399499555,-51.8325,-0.0459,27.5805,-32.2333,1.0256,21.5337,78.60307825673925,27.02062927850402,82.20071320486541,-20.81719292534722,-88.96801418728299,-41.56590779622396,-4.4077542748781715,-1.305999755859375,-2.4843990212619893,3.911802503797743,0.06785074869791667,-4.342592027452257,-3.1133,-1.278,-1.719,-0.0044,-0.00534,0.06779,0.0009783424902707338,0.0009997376473620534,0.000828063057269901,0.0004277801199350506,0.0004993709153495729,0.0004697145486716181,0.01151824090629816,0.01122745405882597,0.011699353344738483,passive,0
1.7609,rehab,medium,12.31752136213116,-666.6396699426151,311.28369213850806,-177.6519808064842,0.2921855661216403,-149.8529943943182,-52.763,-0.0273,28.1416,-6.0613,1.337,8.2121,78.49849738697014,26.989920587822944,82.13919384644763,-20.72233412000868,-88.96548800998264,-41.668599446614586,-4.353339318001624,-1.305999755859375,-2.530581030515161,4.02542961968316,0.06785074869791667,-4.206882052951388,-3.1905,-1.1694,-0.7089,-0.00624,-0.00183,0.07018,0.0009783424902707338,0.0009997376473620534,0.000828063057269901,0.0004277801199350506,0.0004993709153495729,0.0004697145486716181,0.01151824090629816,0.01122745405882597,0.011699353344738483,passive,0
1.7809,rehab,medium,11.321548778230035,-666.63757470837,311.82105206952826,-177.65166168591207,0.291898957861445,-149.85191356299387,-51.8201,0.0042,27.7109,24.1346,1.3391,-8.1354,78.41204803768952,26.964025214166924,82.08805575229154,-20.643030802408855,-88.96335177951389,-41.75523546006944,-4.353339318001624,-1.251584798982828,-2.4987233983408106,3.8590749104817705,0.13570149739583334,-4.342592027452257,-3.186,-1.1867,-0.6201,-0.01652,-0.00871,0.06837,0.0009783424902707338,0.0009997376473620534,0.000828063057269901,0.0004277801199350506,0.0004993709153495729,0.0004697145486716181,0.01151824090629816,0.01122745405882597,0.011699353344738483,passive,0
1.8008,rehab,medium,10.136759459773986,-666.6362329043552,312.44935430545394,-177.65244060109274,0.2926408861493128,-149.85096086653036,-51.0663,0.0489,27.4015,43.6825,1.0283,-19.5364,78.30925516562887,26.934431472627242,82.02664516939976,-20.547748141818577,-88.9607916937934,-41.85791015625,-4.353339318001624,-1.251584798982828,-2.5318047551825495,4.065093994140625,0.13570149739583334,-4.342592027452257,-3.2137,-1.2387,-1.2426,-0.01599,-0.00523,0.06771,0.0009783424902707338,0.0009997376473620534,0.000828063057269901,0.0004277801199350506,0.0004993709153495729,0.0004697145486716181,0.01151824090629816,0.01122745405882597,0.011699353344738483,passive,0
1.8205,rehab,medium,9.346524066747751,-666.6328118899005,312.87593429387084,-177.65258776759978,0.2928113607525562,-149.84992064095638,-49.2356,0.0692,26.5089,47.572,0.5029,-23.1863,78.24066539802173,26.91419242632271,81.98538525269763,-20.483873155381943,-88.95907084147136,-41.926820543077255,-4.190087648901609,-1.251584798982828,-2.5497323215597927,3.970938788519965,0.20355224609375,-4.274732801649305,-3.166,-1.3298,-1.389,-0.01581,-0.01434,0.06722,0.0009783424902707338,0.0009997376473620534,0.000828063057269901,0.0004277801199350506,0.0004993709153495729,0.0004697145486716181,0.01151824090629816,0.01122745405882597,0.011699353344738483,passive,0
1.8411,rehab,medium,8.14240701631149,-666.6334199283492,313.51371491027686,-177.6527114180214,0.2929522730707172,-149.85019205511477,-48.4644,0.0697,26.1632,36.975,-0.0436,-18.528,78.13630207930461,26.884965802183245,81.92215267974551,-20.38800557454427,-88.95652770996094,-42.0298343234592,-4.298924361125077,-1.251584798982828,-2.653463382532101,4.112006293402778,0.13570149739583334,-4.614003499348958,-3.1925,-1.2899,-1.2195,-0.00787,-0.01254,0.06704,0.0009783424902707338,0.0009997376473620534,0.000828063057269901,0.0004277801199350506,0.0004993709153495729,0.0004697145486716181,0.01151824090629816,0.01122745405882597,0.011699353344738483,passive,0
1.8607,rehab,medium,7.342196129888241,-666.6326498817486,313.9538549970325,-177.65192109797331,0.292190999791979,-149.8496530425136,-48.7705,0.0508,26.3377,6.2634,-0.5194,-2.3547,78.06695088301555,26.86475394976021,81.87905037757194,-20.323621961805554,-88.95487467447917,-42.0989990234375,-4.244502605778156,-1.251584798982828,-2.8105148466506806,3.987291124131944,0.13570149739583334,-4.546152750651042,-3.2727,-1.3411,-1.6003,-0.00791,-0.01044,0.06827,0.0009783424902707338,0.0009997376473620534,0.000828063057269901,0.0004277801199350506,0.0004993709153495729,0.0004697145486716181,0.01151824090629816,0.01122745405882597,0.011699353344738483,passive,0
1.8804,rehab,medium,6.533970147805145,-666.6330279774833,314.3980900857648,-177.65073761117333,0.29114561337896877,-149.85013485265753,-48.0855,0.0285,25.9581,-17.1924,-0.9734,10.2822,77.99694023510017,26.844623678981666,81.83531581765354,-20.259179009331596,-88.95317925347221,-42.16779920789931,-4.462176030225093,-1.251584798982828,-2.7415919539952043,3.9180755615234375,0.13570149739583334,-4.342592027452257,-3.2862,-1.3861,-1.3239,-0.01451,-0.00971,0.06946,0.0009783424902707338,0.0009997376473620534,0.000828063057269901,0.0004277801199350506,0.0004993709153495729,0.0004697145486716181,0.01151824090629816,0.01122745405882597,0.011699353344738483,passive,0
1.9008,rehab,medium,5.319983057651639,-666.6313625668815,315.05432268630796,-177.6500045909342,0.2904563296776644,-149.85147421080006,-48.2949,0.005,26.0127,-25.686,-1.2318,15.5614,77.89178149534924,26.81511151908648,81.76990773418161,-20.162039862738716,-88.95069546169705,-42.27052476671007,-4.4077542748781715,-1.251584798982828,-2.7735787571066677,4.017232259114583,0.06785074869791667,-4.342592027452257,-3.2461,-1.362,-1.0455,-0.0201,-0.00398,0.0718,0.0009783424902707338,0.0009997376473620534,0.000828063057269901,0.0004277801199350506,0.0004993709153495729,0.0004697145486716181,0.01151824090629816,0.01122745405882597,0.011699353344738483,passive,0
1.9207,rehab,medium,4.5066844892661795,-666.6302125039738,315.49394248669597,-177.6496937466858,0.29014311759629724,-149.85287995536856,-49.0583,-0.0135,26.4557,-23.6166,-1.1119,15.3091,77.82135614074103,26.79560670758238,81.72561569969253,-20.096537272135418,-88.94905938042534,-42.338807847764755,-4.4077542748781715,-1.1971630436359066,-2.8239010348178373,4.127714369032118,0.13570149739583334,-4.274732801649305,-3.2274,-1.2884,-0.9204,-0.02514,-0.00618,0.06647,0.0009783424902707338,0.0009997376473620534,0.000828063057269901,0.0004277801199350506,0.0004993709153495729,0.0004697145486716181,0.01151824090629816,0.01122745405882597,0.011699353344738483,passive,0
1.9408,rehab,medium,3.2928196305946,-666.6310999153326,316.13702479001716,-177.65073180051414,0.29111309791972356,-149.85428951843812,-51.5783,-0.0219,27.9344,-9.771,-0.6824,8.4243,77.71631297498647,26.768038910214262,81.65858958027151,-19.997295803493923,-88.94655863444011,-42.44132995605469,-4.244502605778156,-1.1427480867593596,-2.781002686755492,4.0981801350911455,0.20355224609375,-4.274732801649305,-3.4255,-1.3324,-1.4602,-0.02655,0.00583,0.07197,0.0009783424902707338,0.0009997376473620534,0.000828063057269901,0.0004277801199350506,0.0004993709153495729,0.0004697145486716181,0.01151824090629816,0.01122745405882597,0.011699353344738483,passive,0
1.9604,rehab,medium,2.492057866731909,-666.6323801245964,316.56857047630376,-177.6512595152657,0.2915363079999056,-149.85397802041737,-51.4124,-0.044,27.9362,1.2031,-0.2703,2.1329,77.64705695728264,26.749839405022044,81.61325737981512,-19.930920071072048,-88.94493950737846,-42.510155571831596,-4.244502605778156,-1.1971630436359066,-2.8101205353689664,4.153255886501736,0.06785074869791667,-4.342592027452257,-3.3594,-1.2442,-1.6219,-0.0064,0.00944,0.07377,0.0009783424902707338,0.0009997376473620534,0.000828063057269901,0.0004277801199350506,0.0004993709153495729,0.0004697145486716181,0.01151824090629816,0.01122745405882597,0.011699353344738483,passive,0
1.9809,rehab,medium,1.3135238935684943,-666.632756906135,317.2057186128833,-177.65245071199953,0.29266939946911164,-149.85453143646305,-49.2409,-0.0625,26.8619,20.9843,0.0864,-9.9383,77.54512069248916,26.723196199624844,81.54578935981976,-19.832000732421875,-88.94249810112846,-42.61043124728732,-4.026835979801594,-1.0339181730062654,-2.7912547800800587,4.178212483723958,0.06785074869791667,-4.139031304253472,-3.2486,-1.4793,-1.3488,-0.0312,-0.01117,0.06206,0.0009783424902707338,0.0009997376473620534,0.000828063057269901,0.0004277801199350506,0.0004993709153495729,0.0004697145486716181,0.01151824090629816,0.01122745405882597,0.011699353344738483,passive,0
2.0008,rehab,medium,0.5492639714566872,-666.6363659283707,317.6279843638696,-177.652976631116,0.293193326120892,-149.85348404231394,-48.9129,-0.0516,26.6892,50.9703,0.444,-28.7157,77.47909394821318,26.706159232866646,81.50024640678178,-19.766582912868923,-88.94087897406683,-42.67677307128906,-4.081257735148514,-1.0883331298828125,-2.861856894918007,4.050335354275173,0.06785074869791667,-4.0033213297526045,-3.3223,-1.4147,-1.3426,-0.024,-0.01091,0.07259,0.0009783424902707338,0.0009997376473620534,0.000828063057269901,0.0004277801199350506,0.0004993709153495729,0.0004697145486716181,0.01151824090629816,0.01122745405882597,0.011699353344738483,passive,0
2.0208,rehab,medium,-0.7809879985887819,-666.6351186146056,318.3730069718432,-177.65237781370737,0.2926986703855625,-149.8529105559572,-47.5894,-0.0163,25.8865,77.9243,0.7242,-46.6235,77.3640774264194,26.675212595722464,81.42207759441716,-19.654625786675346,-88.93809848361545,-42.79110378689236,-4.298924361125077,-1.1427480867593596,-2.743495525700031,3.933469984266493,0.06785074869791667,-4.139031304253472,-3.3411,-1.534,-1.2575,-0.02076,2e-05,0.06367,0.0009783424902707338,0.0009997376473620534,0.000828063057269901,0.0004277801199350506,0.0004993709153495729,0.0004697145486716181,0.01151824090629816,0.01122745405882597,0.011699353344738483,passive,0
2.0408,rehab,medium,-1.547636526078235,-666.636234333469,318.7874767427095,-177.65189970260107,0.29218500246063855,-149.85423686570664,-46.7319,0.0027,25.2726,84.0159,0.9439,-52.5049,77.29787392191368,26.658440769308864,81.37800311098005,-19.59244622124566,-88.93661499023438,-42.855283949110245,-4.190087648901609,-1.0339181730062654,-2.6580523500348083,3.7452189127604165,0.06785074869791667,-4.0033213297526045,-3.311,-1.3482,-1.0645,-0.01743,-0.00097,0.06466,0.0009783424902707338,0.0009997376473620534,0.000828063057269901,0.0004277801199350506,0.0004993709153495729,0.0004697145486716181,0.01151824090629816,0.01122745405882597,0.011699353344738483,passive,0
2.0604,rehab,medium,-2.2970307652455078,-666.6370661721536,319.1838637758393,-177.65184480390346,0.29206353704142574,-149.85552356769088,-45.2117,0.0036,24.2411,74.7317,0.8741,-49.8739,77.2331728793607,26.64262072874768,81.3353155154993,-19.532072279188366,-88.93516540527344,-42.91802300347222,-3.918006066048499,-0.979496417659344,-2.647473930132271,3.7342071533203125,0.06785074869791667,-3.9354705810546875,-3.2592,-1.2562,-1.5793,-0.01539,0.00489,0.07076,0.0009783424902707338,0.0009997376473620534,0.000828063057269901,0.0004277801199350506,0.0004993709153495729,0.0004697145486716181,0.01151824090629816,0.01122745405882597,0.011699353344738483,passive,0
2.0804,rehab,medium,-3.373615331431742,-666.6344057960213,319.7474161110267,-177.652449173575,0.2925316491773928,-149.85613657375308,-42.5982,0.0259,22.612,79.9697,0.3441,-55.73,77.14016980463916,26.620049807104735,81.27442161635597,-19.44494459364149,-88.93304612901476,-43.009440104166664,-3.754754396948484,-0.87066650390625,-2.532151477171643,3.575346204969618,0.13570149739583334,-3.799769083658854,-3.3082,-1.3279,-1.5358,-0.02616,0.00321,0.06576,0.0009783424902707338,0.0009997376473620534,0.000828063057269901,0.0004277801199350506,0.0004993709153495729,0.0004697145486716181,0.01151824090629816,0.01122745405882597,0.011699353344738483,passive,0
2.1008,rehab,medium,-4.054413515743671,-666.6323895624308,320.09994002949315,-177.6530463518057,0.29311399652611864,-149.8559179186975,-40.7352,0.0373,21.2805,90.7299,-0.1797,-67.9005,77.08135623743038,26.606112942837253,81.23592187862585,-19.389817979600693,-88.93163045247395,-43.06785583496094,-3.7003394400719367,-0.8162515470297029,-2.369837996983292,3.325229220920139,0.13570149739583334,-3.664059109157986,-3.3964,-1.5596,-1.7701,-0.02997,0.00451,0.06883,0.0009783424902707338,0.0009997376473620534,0.000828063057269901,0.0004277801199350506,0.0004993709153495729,0.0004697145486716181,0.01151824090629816,0.01122745405882597,0.011699353344738483,passive,0
2.1205,rehab,medium,-5.034379694522363,-666.6336587602333,320.61437764646683,-177.65241229887764,0.2925796565955055,-149.8548580327448,-39.382,0.0328,20.2538,88.9577,-0.2438,-76.0366,76.9968036613842,26.586261409344058,81.17971892404084,-19.31189643012153,-88.92956203884549,-43.15259297688802,-3.428251058748453,-0.8162515470297029,-2.2384915493502473,3.130823771158854,0.06785074869791667,-3.596208360460069,-3.253,-1.358,-1.9189,-0.02198,0.0056,0.07147,0.0009783424902707338,0.0009997376473620534,0.000828063057269901,0.0004277801199350506,0.0004993709153495729,0.0004697145486716181,0.01151824090629816,0.01122745405882597,0.011699353344738483,passive,0
2.1409,rehab,medium,-5.660981988077453,-666.6353973228463,320.94183646823126,-177.6512586471574,0.2914846706192061,-149.85411637482855,-38.545,0.0232,19.3269,86.4377,-0.1392,-84.1767,76.94278301578937,26.573745425384825,81.14413573010133,-19.263661702473957,-88.9282735188802,-43.2068125406901,-3.373836101871906,-0.8162515470297029,-2.085940672619508,2.9476250542534723,0.06785074869791667,-3.4604983859592013,-3.2053,-1.2777,-1.3747,-0.01532,0.00575,0.06884,0.0009783424902707338,0.0009997376473620534,0.000828063057269901,0.0004277801199350506,0.0004993709153495729,0.0004697145486716181,0.01151824090629816,0.01122745405882597,0.011699353344738483,passive,0
2.1604,rehab,medium,-6.551367781609123,-666.6336969911426,321.38762296604637,-177.6497771626706,0.2900448007782414,-149.85334795448063,-36.2534,-0.0123,17.2813,89.0625,-0.3201,-91.7644,76.86596709902923,26.5564229228709,81.0960841414952,-19.197904798719616,-88.92645941840277,-43.28365749782986,-3.1561694758953434,-0.7074148348062346,-1.8060952365988552,2.525507609049479,0.06785074869791667,-3.0533854166666665,-3.2064,-1.2032,-0.6859,-0.02656,0.00739,0.06301,0.0009783424902707338,0.0009997376473620534,0.000828063057269901,0.0004277801199350506,0.0004993709153495729,0.0004697145486716181,0.01151824090629816,0.01122745405882597,0.011699353344738483,passive,0
2.1804,rehab,medium,-7.103184610737094,-666.6304492892176,321.6430998448793,-177.6496775523282,0.28996438717677653,-149.8525879989166,-33.4532,-0.021,14.7338,97.4918,-0.4028,-97.5214,76.81832341864558,26.546517551535427,81.06810843590462,-19.158621893988716,-88.92528957790799,-43.33162095811632,-2.992917806795328,-0.544163165706219,-1.660111682249768,2.4289703369140625,0.06785074869791667,-2.9176754421657987,-3.3195,-1.3437,-1.4613,-0.0274,0.0016,0.06361,0.0009783424902707338,0.0009997376473620534,0.000828063057269901,0.0004277801199350506,0.0004993709153495729,0.0004697145486716181,0.01151824090629816,0.01122745405882597,0.011699353344738483,passive,0
2.2012,rehab,medium,-7.877754187345811,-666.6335687551888,321.9734734716846,-177.64931728586402,0.2895869827765376,-149.85122400028715,-32.1923,0.0094,12.7366,116.9047,-0.0924,-107.5852,76.75163042427289,26.534864973313738,81.03020016509707,-19.10742865668403,-88.92367892795139,-43.399107191297745,-2.7208362239422184,-0.435333251953125,-1.4633707480855507,1.9299231635199652,0.06785074869791667,-2.714114718967014,-3.3116,-1.3775,-1.6521,-0.037,0.00925,0.06742,0.0009783424902707338,0.0009997376473620534,0.000828063057269901,0.0004277801199350506,0.0004993709153495729,0.0004697145486716181,0.01151824090629816,0.01122745405882597,0.011699353344738483,passive,0
2.2207,rehab,medium,-8.365146374186262,-666.6332157333244,322.148315222037,-177.65000071031372,0.2902729206456748,-149.85174616978503,-30.3186,0.026,10.8568,136.6854,0.1845,-112.3506,76.70962947429997,26.528821133150913,81.00945803198483,-19.078360663519966,-88.92264472113715,-43.44026353624132,-2.503169597965656,-0.3809114966062036,-1.2161919622137995,1.7038387722439237,0.06785074869791667,-2.510553995768229,-3.2149,-1.3892,-2.3472,-0.0229,-0.0048,0.06939,0.0009783424902707338,0.0009997376473620534,0.000828063057269901,0.0004277801199350506,0.0004993709153495729,0.0004697145486716181,0.01151824090629816,0.01122745405882597,0.011699353344738483,passive,0
2.2405,rehab,medium,-9.039607554525507,-666.6356298171844,322.3695942514658,-177.65041986580982,0.2907091281598035,-149.8531271822505,-26.8739,-0.0027,8.6024,150.81,0.2526,-104.3821,76.65159093271387,26.52166234384669,80.98261767094678,-19.041959974500866,-88.92123752170139,-43.49651760525173,-2.3399179288656407,-0.2720815828531095,-0.9750094272122525,1.3865915934244792,-0.0,-2.171291775173611,-3.1173,-1.4453,-2.0152,-0.00806,0.00582,0.06975,0.0009783424902707338,0.0009997376473620534,0.000828063057269901,0.0004277801199350506,0.0004993709153495729,0.0004697145486716181,0.01151824090629816,0.01122745405882597,0.011699353344738483,passive,0
2.2606,rehab,medium,-9.5455803725935,-666.6342779596786,322.51099677067486,-177.6509915406663,0.29131659168146606,-149.8547707592566,-23.4366,-0.0192,6.5056,166.1181,0.0483,-92.4083,76.60799914067334,26.516984996229116,80.96541074242923,-19.01791042751736,-88.92016092936198,-43.538199530707466,-2.067836346012531,-0.2176666259765625,-0.7452279270285427,1.0323842366536458,0.06785074869791667,-1.8998803032769096,-3.3291,-1.4241,-1.6124,-0.03037,0.00634,0.06813,0.0009783424902707338,0.0009997376473620534,0.000828063057269901,0.0004277801199350506,0.0004993709153495729,0.0004697145486716181,0.01151824090629816,0.01122745405882597,0.011699353344738483,passive,0
2.2808,rehab,medium,-10.057137986352476,-666.6307437269445,322.64469020824964,-177.6510133660089,0.2913452072780257,-149.8555594822629,-20.1106,0.0168,4.6547,188.3966,-0.1815,-84.5293,76.56389746335473,26.512287253200416,80.94979465597928,-18.996183607313366,-88.91908433702257,-43.581271701388886,-1.6325030940594059,-0.16324487062964108,-0.5224556498008199,0.7669915093315972,0.06785074869791667,-1.5606180826822915,-3.2678,-1.5936,-2.1935,-0.02932,-0.00151,0.06822,0.0009783424902707338,0.0009997376473620534,0.000828063057269901,0.0004277801199350506,0.0004993709153495729,0.0004697145486716181,0.01151824090629816,0.01122745405882597,0.011699353344738483,passive,0
2.3007,rehab,medium,-10.334013229346072,-666.631148527537,322.71175188104115,-177.65068237000852,0.29099440970926227,-149.85513307074976,-16.4344,0.0254,3.0393,199.0628,-0.059,-76.2563,76.54008242163327,26.510220518206605,80.94165688694113,-18.98568895128038,-88.9185078938802,-43.60539754231771,-1.4148296696124691,-0.10882991375309406,-0.4536959204343286,0.5199940999348959,-0.0,-1.4249081081814237,-3.2804,-1.5656,-2.4904,-0.03038,0.00033,0.07046,0.0009783424902707338,0.0009997376473620534,0.000828063057269901,0.0004277801199350506,0.0004993709153495729,0.0004697145486716181,0.01151824090629816,0.01122745405882597,0.011699353344738483,passive,0
2.3208,rehab,medium,-10.565994569196478,-666.6334249322962,322.7513087263127,-177.65087662523808,0.29123426834625754,-149.85494737876974,-12.1205,0.0037,1.6835,193.9904,0.2749,-64.7697,76.52016290343634,26.50952707422842,80.93576941159692,-18.978161282009548,-88.91796535915799,-43.62542046440972,-1.1971630436359066,-0.0,-0.3248581083694307,0.3615061442057292,0.06785074869791667,-1.153496636284722,-3.3133,-1.3646,-1.4512,-0.03507,0.0016,0.0687,0.0009783424902707338,0.0009997376473620534,0.000828063057269901,0.0004277801199350506,0.0004993709153495729,0.0004697145486716181,0.01151824090629816,0.01122745405882597,0.011699353344738483,passive,0
2.3408,rehab,medium,-10.834239821418763,-666.6355287038645,322.76881900090035,-177.65184225903388,0.2922019647351826,-149.8555986966418,-7.8675,-0.0085,0.5646,189.2384,0.3933,-56.226,76.49712968580793,26.50994857939163,80.93145238290919,-18.972184922960068,-88.91736348470052,-43.64774068196615,-0.7074148348062346,0.05441495687654703,0.05923507237198329,0.1424068874782986,-0.0,-0.7463751898871528,-3.2937,-1.5311,-2.1153,-0.04746,0.00227,0.06864,0.0009783424902707338,0.0009997376473620534,0.000828063057269901,0.0004277801199350506,0.0004993709153495729,0.0004697145486716181,0.01151824090629816,0.01122745405882597,0.011699353344738483,passive,0
2.3606,rehab,medium,-10.94875677955373,-666.6302268298434,322.7493191578873,-177.65356848679573,0.2938010856431766,-149.8555812959535,-4.2213,0.0009,-0.4012,181.8956,0.1992,-51.414,76.48717672517984,26.510655620310565,80.9326965029877,-18.971464369032116,-88.91713460286458,-43.65770975748698,-0.544163165706219,0.05441495687654703,0.08133010108872216,-0.027177598741319444,-0.0,-0.5428229437934028,-3.3553,-1.5572,-1.5469,-0.04494,0.00656,0.06198,0.0009783424902707338,0.0009997376473620534,0.000828063057269901,0.0004277801199350506,0.0004993709153495729,0.0004697145486716181,0.01151824090629816,0.01122745405882597,0.011699353344738483,passive,0
2.3804,rehab,medium,-11.032655726638676,-666.6313525029125,322.73664167142886,-177.65299383732398,0.29329412143022404,-149.85503505200668,-0.8414,0.0322,-1.5171,167.1813,0.1976,-50.0664,76.47998394352375,26.511410250522122,80.93383184754022,-18.97387186686198,-88.91689724392361,-43.665474785698784,0.05441495687654703,0.05441495687654703,0.10595416078473081,-0.2444881863064236,0.06785074869791667,-0.20355224609375,-3.4306,-1.5049,-2.2124,-0.0358,0.00259,0.07117,0.0009783424902707338,0.0009997376473620534,0.000828063057269901,0.0004277801199350506,0.0004993709153495729,0.0004697145486716181,0.01151824090629816,0.01122745405882597,0.011699353344738483,passive,0
2.4007,rehab,medium,-10.982668357494193,-666.6340096761129,322.72279950752755,-177.6512078296938,0.29161968107635167,-149.8500402734335,1.8239,0.0428,-2.3344,150.0819,0.4241,-52.1343,76.4843213676226,26.511852151096456,80.93631328922687,-18.97922092013889,-88.9168463812934,-43.6661868625217,0.2720815828531095,0.10882991375309406,0.192689045821086,-0.4486931694878472,-0.0,0.06785074869791667,-3.2701,-1.4403,-2.2798,-0.0353,0.01221,0.07212,0.0009783424902707338,0.0009997376473620534,0.000828063057269901,0.0004277801199350506,0.0004993709153495729,0.0004697145486716181,0.01151824090629816,0.01122745405882597,0.011699353344738483,passive,0
2.4209,rehab,medium,-10.877770802103214,-666.6323126366395,322.6701785607624,-177.648614511945,0.28919731064593435,-149.84420541345554,5.1715,0.0391,-3.4691,140.4213,0.3136,-55.5124,76.49329534851678,26.512980697178605,80.94466181084661,-18.99234347873264,-88.91685485839844,-43.66318596733941,0.489748208829672,0.05441495687654703,0.46453948068146655,-0.6189219156901041,-0.06785074869791667,0.339262220594618,-3.5164,-1.6692,-2.5372,-0.06534,0.00329,0.06819,0.0009783424902707338,0.0009997376473620534,0.000828063057269901,0.0004277801199350506,0.0004993709153495729,0.0004697145486716181,0.01151824090629816,0.01122745405882597,0.011699353344738483,passive,0
2.4404,rehab,medium,-10.77266821235205,-666.6285210200444,322.60645616242033,-177.6478838872654,0.288673675793927,-149.84394266997853,7.8191,0.0321,-4.5487,137.2274,-0.1054,-55.846,76.50224893399985,26.51464632242033,80.95317349575534,-19.003685845269096,-88.91692267523871,-43.65461561414931,0.5985781225827661,0.16324487062964108,0.5984897424678991,-0.7802157931857638,-0.0,0.678524441189236,-3.4069,-1.616,-2.5079,-0.05262,0.00607,0.06471,0.0009783424902707338,0.0009997376473620534,0.000828063057269901,0.0004277801199350506,0.0004993709153495729,0.0004697145486716181,0.01151824090629816,0.01122745405882597,0.011699353344738483,passive,0
2.4608,rehab,medium,-10.551267100282132,-666.626956884412,322.448787243065,-177.64750568630015,0.2888575677174599,-149.84989794616243,10.4383,0.0269,-5.7841,140.5342,-0.4714,-54.3096,76.52125065869625,26.52018707577545,80.97134580706606,-19.028337266710068,-88.91710917154948,-43.62992180718316,0.87066650390625,0.2720815828531095,0.7040359950301671,-0.9902869330512153,-0.0,1.0177951388888888,-3.4088,-1.5235,-2.4227,-0.04106,0.0143,0.06912,0.0009783424902707338,0.0009997376473620534,0.000828063057269901,0.0004277801199350506,0.0004993709153495729,0.0004697145486716181,0.01151824090629816,0.01122745405882597,0.011699353344738483,passive,0
2.4807,rehab,medium,-10.368541047789408,-666.6295549922698,322.3395695286951,-177.64738477839694,0.28906159381617896,-149.8528771276257,13.231,0.0377,-7.1279,147.6683,-0.5663,-53.8063,76.53701631149443,26.524483709052056,80.98318194398786,-19.045011732313366,-88.91732109917534,-43.61135694715712,1.1427480867593596,0.2720815828531095,0.7726665534595452,-1.1195288764105902,-0.06785074869791667,1.2892066107855902,-3.357,-1.4176,-2.2239,-0.04391,0.00697,0.06936,0.0009783424902707338,0.0009997376473620534,0.000828063057269901,0.0004277801199350506,0.0004993709153495729,0.0004697145486716181,0.01151824090629816,0.01122745405882597,0.011699353344738483,passive,0
2.5004,rehab,medium,-10.13177673673609,-666.6305835831467,322.21489431834334,-177.64764808644406,0.2896041723854341,-149.85462727842315,15.9165,0.0166,-8.0619,146.964,-0.6101,-50.342,76.55739812567683,26.529161056669633,80.99688086179223,-19.063525729709202,-88.91763475206163,-43.58942667643229,1.4148296696124691,0.32649653972965653,0.9572178302424968,-1.2007904052734375,-0.0,1.4927588568793402,-3.3308,-1.4268,-2.2915,-0.04369,0.01354,0.06452,0.0009783424902707338,0.0009997376473620534,0.000828063057269901,0.0004277801199350506,0.0004993709153495729,0.0004697145486716181,0.01151824090629816,0.01122745405882597,0.011699353344738483,passive,0
2.5207,rehab,medium,-9.691615459089887,-666.6270390366798,322.0022185864219,-177.64881752796387,0.29101572043897456,-149.8562308188169,19.0906,-0.0169,-8.8184,146.2566,-0.7259,-45.7603,76.59519762095839,26.536530598555462,81.02092025303604,-19.09436543782552,-88.91835530598958,-43.55036417643229,1.795747964689047,0.32649653972965653,1.0344824460473392,-1.356141832139757,-0.06785074869791667,1.7641703287760415,-3.2812,-1.4321,-2.3486,-0.0384,0.01578,0.06924,0.0009783424902707338,0.0009997376473620534,0.000828063057269901,0.0004277801199350506,0.0004993709153495729,0.0004697145486716181,0.01151824090629816,0.01122745405882597,0.011699353344738483,passive,0
2.5408,rehab,medium,-9.348847489916194,-666.6279563899852,321.85466205657406,-177.64893076496716,0.29118020491850716,-149.85672339354335,22.7073,-0.0258,-9.7037,155.5268,-0.7297,-44.7593,76.62473017626469,26.541894591680848,81.03761049780515,-19.117177327473957,-88.91903347439236,-43.520592583550346,1.795747964689047,0.32649653972965653,1.0721391734510366,-1.4960055881076388,-0.06785074869791667,1.8998803032769096,-3.3574,-1.5179,-2.0641,-0.0417,0.01725,0.06889,0.0009783424902707338,0.0009997376473620534,0.000828063057269901,0.0004277801199350506,0.0004993709153495729,0.0004697145486716181,0.01151824090629816,0.01122745405882597,0.011699353344738483,passive,0
2.5605,rehab,medium,-8.768275639068273,-666.6303049111331,321.6142306793728,-177.6490674213386,0.291163087288476,-149.8568940354194,25.6371,-0.0231,-10.5834,162.6476,-0.6528,-44.2436,76.67480091057202,26.550746200108293,81.06472959612856,-19.154654608832466,-88.92034742567274,-43.470772637261284,2.3399179288656407,0.3809114966062036,1.2303939668258819,-1.6665818956163194,-0.06785074869791667,2.307001749674479,-3.3491,-1.3116,-2.0358,-0.03682,0.01778,0.06845,0.0009783424902707338,0.0009997376473620534,0.000828063057269901,0.0004277801199350506,0.0004993709153495729,0.0004697145486716181,0.01151824090629816,0.01122745405882597,0.011699353344738483,passive,0
2.5804,rehab,medium,-8.332495380009192,-666.6279017961242,321.43731221498996,-177.6496621871794,0.2914953718656052,-149.85616387196072,28.2151,-0.0396,-11.432,153.8119,-0.4897,-40.5771,76.71231487009784,26.55684442803411,81.0851250072517,-19.181654188368054,-88.92139858669705,-43.434295654296875,2.448754641089109,0.435333251953125,1.2867668831702506,-1.766908433702257,-0.13570149739583334,2.374852498372396,-3.2849,-1.4543,-2.3722,-0.0413,0.01731,0.0713,0.0009783424902707338,0.0009997376473620534,0.000828063057269901,0.0004277801199350506,0.0004993709153495729,0.0004697145486716181,0.01151824090629816,0.01122745405882597,0.011699353344738483,passive,0
2.6007,rehab,medium,-7.609767312550353,-666.6320093442305,321.1618924554728,-177.64946028661151,0.2909371887655342,-149.8542964860932,31.0827,-0.0643,-12.2188,135.1076,-0.2878,-34.8263,76.77470443272354,26.567171304532796,81.11616002451075,-19.2254638671875,-88.92312791612413,-43.374269273546005,2.884087893042234,0.435333251953125,1.3572738194229579,-1.9029320610894096,-0.13570149739583334,2.5784132215711804,-3.3431,-1.5086,-2.4723,-0.05126,0.02815,0.06831,0.0009783424902707338,0.0009997376473620534,0.000828063057269901,0.0004277801199350506,0.0004993709153495729,0.0004697145486716181,0.01151824090629816,0.01122745405882597,0.011699353344738483,passive,0
2.6206,rehab,medium,-7.093127707464918,-666.6312576224864,320.9550017208745,-177.65048817519263,0.29169435917430264,-149.85383219799695,34.2608,-0.0586,-13.0849,122.158,-0.2382,-30.2283,76.81923441367574,26.574785591352104,81.13910486202428,-19.256150987413193,-88.92434861924913,-43.33055284288194,2.7208362239422184,0.489748208829672,1.4787896788946473,-1.9993506537543402,-0.06785074869791667,2.8498246934678817,-3.2312,-1.4258,-2.0424,-0.03911,0.01153,0.06663,0.0009783424902707338,0.0009997376473620534,0.000828063057269901,0.0004277801199350506,0.0004993709153495729,0.0004697145486716181,0.01151824090629816,0.01122745405882597,0.011699353344738483,passive,0
2.6405,rehab,medium,-6.281309455730792,-666.6343500562245,320.636131337429,-177.65140760862508,0.29237343996739285,-149.85459546590016,37.5785,-0.0486,-13.9108,111.013,-0.1444,-25.4782,76.88929944935411,26.587063628848234,81.17394702269299,-19.30437723795573,-88.92620510525174,-43.26026916503906,2.938502849918781,0.544163165706219,1.4507255931892018,-2.089106241861979,-0.06785074869791667,3.0533854166666665,-3.2556,-1.3643,-1.8481,-0.04378,0.01123,0.06531,0.0009783424902707338,0.0009997376473620534,0.000828063057269901,0.0004277801199350506,0.0004993709153495729,0.0004697145486716181,0.01151824090629816,0.01122745405882597,0.011699353344738483,passive,0
2.6604,rehab,medium,-5.708220172686056,-666.634048560632,320.412321510492,-177.65246525180652,0.2933274885672136,-149.85521589932074,38.9035,-0.0605,-14.0178,90.6259,0.1895,-19.1481,76.93871073203512,26.595534522934717,81.19842151604077,-19.337480333116318,-88.92745123969183,-43.21061028374566,3.1561694758953434,0.489748208829672,1.5444289103592976,-2.0735931396484375,-0.06785074869791667,3.2569376627604165,-3.1695,-1.4772,-1.8901,-0.02936,-0.00134,0.0644,0.0009783424902707338,0.0009997376473620534,0.000828063057269901,0.0004277801199350506,0.0004993709153495729,0.0004697145486716181,0.01151824090629816,0.01122745405882597,0.011699353344738483,passive,0
2.6804,rehab,medium,-4.638412566138989,-666.6367176223318,320.0421882257482,-177.65172623180604,0.2925264531299612,-149.85687942073668,39.2425,-0.0595,-13.9156,64.9113,0.548,-14.5005,77.03104755665996,26.609498581083695,81.24030009354695,-19.397379557291668,-88.92983330620659,-43.11727735731337,3.373836101871906,0.489748208829672,1.623263972820622,-2.1430375840928817,-0.13570149739583334,3.324796888563368,-3.3095,-1.5984,-2.164,-0.05395,0.01081,0.06214,0.0009783424902707338,0.0009997376473620534,0.000828063057269901,0.0004277801199350506,0.0004993709153495729,0.0004697145486716181,0.01151824090629816,0.01122745405882597,0.011699353344738483,passive,0
2.7012,rehab,medium,-3.9893062742582948,-666.634033877829,319.8228860985049,-177.65137172819698,0.2920901398933216,-149.85722525699686,41.107,-0.0478,-14.4581,47.5342,0.8179,-14.7979,77.08700576631149,26.617337217425355,81.26577396203976,-19.433025783962673,-88.93129136827257,-43.061370849609375,3.5915027278484684,0.544163165706219,1.5787203949276762,-2.2807820638020835,-0.06785074869791667,3.528349134657118,-3.1397,-1.4838,-2.4424,-0.03762,0.00714,0.06561,0.0009783424902707338,0.0009997376473620534,0.000828063057269901,0.0004277801199350506,0.0004993709153495729,0.0004697145486716181,0.01151824090629816,0.01122745405882597,0.011699353344738483,passive,0
2.7206,rehab,medium,-2.965227588548095,-666.6376232662711,319.4787336999954,-177.65035427456507,0.2910350968289398,-149.85682824431953,43.123,-0.0314,-15.1494,51.8171,1.0868,-22.2909,77.17546066435257,26.630784591825883,81.30417172271426,-19.489110310872395,-88.93353780110677,-42.97393798828125,3.64592448319539,0.5985781225827661,1.667195688379873,-2.470109727647569,-0.06785074869791667,3.664059109157986,-3.3073,-1.413,-2.2492,-0.03967,0.01727,0.07049,0.0009783424902707338,0.0009997376473620534,0.000828063057269901,0.0004277801199350506,0.0004993709153495729,0.0004697145486716181,0.01151824090629816,0.01122745405882597,0.011699353344738483,passive,0
2.7404,rehab,medium,-2.2524204272214345,-666.6377780759746,319.22387130867594,-177.65046138913098,0.29112283299821407,-149.85627386492044,43.0359,0.0019,-15.2403,74.1238,1.2493,-34.4202,77.23699361971109,26.64077834327622,81.33208624207147,-19.528800116644966,-88.93504672580295,-42.913402981228295,3.8635911091719524,0.6529998779296875,1.7598180487604425,-2.548675537109375,-0.06785074869791667,3.8676198323567705,-3.1419,-1.3644,-1.9471,-0.03838,0.00711,0.06784,0.0009783424902707338,0.0009997376473620534,0.000828063057269901,0.0004277801199350506,0.0004993709153495729,0.0004697145486716181,0.01151824090629816,0.01122745405882597,0.011699353344738483,passive,0
2.7605,rehab,medium,-1.535153920876285,-666.6397003892691,318.960321397156,-177.65045056830647,0.2910929503209166,-149.85669202454545,43.511,0.0308,-15.7127,91.0126,1.0478,-41.1564,77.29896847564395,26.651458740234375,81.36046985588452,-19.569854736328125,-88.93659803602431,-42.85146925184462,4.026835979801594,0.7618297916827815,1.852657960192992,-2.635769314236111,-0.13570149739583334,3.9354705810546875,-3.1698,-1.3053,-2.2171,-0.05324,0.02503,0.06409,0.0009783424902707338,0.0009997376473620534,0.000828063057269901,0.0004277801199350506,0.0004993709153495729,0.0004697145486716181,0.01151824090629816,0.01122745405882597,0.011699353344738483,passive,0
2.7807,rehab,medium,-0.4252455841123079,-666.6371883382504,318.5442547404185,-177.65104927583954,0.2915665285252839,-149.85758910650958,45.6511,0.0502,-16.7654,85.2097,0.5653,-37.1536,77.39479971404123,26.667965426303372,81.40554371446666,-19.633712768554688,-88.93903944227431,-42.75545756022135,4.081257735148514,0.6529998779296875,1.848415714679378,-2.7576616075303817,-0.06785074869791667,4.0033213297526045,-3.2063,-1.3496,-2.5209,-0.03479,0.00746,0.06957,0.0009783424902707338,0.0009997376473620534,0.000828063057269901,0.0004277801199350506,0.0004993709153495729,0.0004697145486716181,0.01151824090629816,0.01122745405882597,0.011699353344738483,passive,0
2.8009,rehab,medium,0.33364586958315595,-666.6356217536036,318.2649347828253,-177.65075488191687,0.2912083407199379,-149.8575607497048,48.3035,0.0687,-17.8681,69.0417,0.0254,-28.3987,77.46035056539101,26.679094522306233,81.43608244338839,-19.67789543999566,-88.94071790907118,-42.6904296875,4.135672692025062,0.7074148348062346,1.9717331688002784,-2.79282463921441,-0.13570149739583334,4.206882052951388,-2.9929,-1.1352,-1.7735,-0.01117,-0.00103,0.06539,0.0009783424902707338,0.0009997376473620534,0.000828063057269901,0.0004277801199350506,0.0004993709153495729,0.0004697145486716181,0.01151824090629816,0.01122745405882597,0.011699353344738483,passive,0
2.8208,rehab,medium,1.5153805743827073,-666.6328264449699,317.8366745975241,-177.65068225002815,0.29108324485663206,-149.85498757947724,51.5473,0.065,-19.0326,57.7226,-0.4648,-21.1616,77.56242959806235,26.696464614112777,81.48223046028968,-19.744669596354168,-88.94321865505643,-42.59167141384548,4.298924361125077,0.7074148348062346,1.9447432414139851,-2.7562374538845487,-0.06785074869791667,4.274732801649305,-3.0121,-1.2063,-1.8147,-0.02491,0.01226,0.06665,0.0009783424902707338,0.0009997376473620534,0.000828063057269901,0.0004277801199350506,0.0004993709153495729,0.0004697145486716181,0.01151824090629816,0.01122745405882597,0.011699353344738483,passive,0
2.8406,rehab,medium,2.3125602397610243,-666.6314138530497,317.5429062879841,-177.65111090162816,0.29141397215398224,-149.85339454968312,52.0099,0.0307,-19.0395,34.1772,-0.7396,-10.1677,77.63132529683632,26.70872905466816,81.5131159112005,-19.789386325412327,-88.94493103027344,-42.524871826171875,4.353339318001624,0.7618297916827815,1.9107916803643255,-2.801946004231771,-0.06785074869791667,4.274732801649305,-3.1215,-1.2303,-1.8118,-0.04049,0.0018,0.05973,0.0009783424902707338,0.0009997376473620534,0.000828063057269901,0.0004277801199350506,0.0004993709153495729,0.0004697145486716181,0.01151824090629816,0.01122745405882597,0.011699353344738483,passive,0
2.8607,rehab,medium,3.689879087880821,-666.6316303602681,317.0331691685754,-177.65134790765666,0.291612655290052,-149.85474798823878,50.9903,0.0032,-18.5656,-4.874,-0.7316,3.6437,77.75046169167697,26.73062012927367,81.5660284061243,-19.86764695909288,-88.94794040256076,-42.40525987413194,4.298924361125077,0.7618297916827815,1.8558736366800743,-2.812686496310764,-0.13570149739583334,4.342592027452257,-3.052,-1.2112,-1.5653,-0.02787,0.0024,0.06333,0.0009783424902707338,0.0009997376473620534,0.000828063057269901,0.0004277801199350506,0.0004993709153495729,0.0004697145486716181,0.01151824090629816,0.01122745405882597,0.011699353344738483,passive,0
2.8804,rehab,medium,4.4717674492950135,-666.6322122642296,316.74795510409194,-177.65110178414542,0.29135329398649157,-149.85635788061887,49.8662,-0.009,-18.1596,-30.6854,-0.4699,7.7765,77.81813366578356,26.743061330058786,81.59554736448986,-19.912126329210068,-88.94969516330295,-42.33647664388021,4.298924361125077,0.8162515470297029,1.8542963915532178,-2.8275214301215277,-0.13570149739583334,4.071180555555555,-3.041,-1.2541,-1.8072,-0.01388,0.00679,0.0625,0.0009783424902707338,0.0009997376473620534,0.000828063057269901,0.0004277801199350506,0.0004993709153495729,0.0004697145486716181,0.01151824090629816,0.01122745405882597,0.011699353344738483,passive,0
2.901,rehab,medium,5.677214305344233,-666.6336362823149,316.30676744047327,-177.6511235873064,0.2913233539588897,-149.85544512938398,49.4307,-0.012,-18.2142,-38.1101,-0.0508,-0.6408,77.92249018603032,26.762749700262994,81.64029489649404,-19.97979058159722,-88.95231458875868,-42.23379347059462,4.516590987101639,0.87066650390625,1.8751065093691985,-2.901789347330729,-0.06785074869791667,4.206882052951388,-3.0295,-1.2972,-1.425,-0.03115,0.0059,0.05791,0.0009783424902707338,0.0009997376473620534,0.000828063057269901,0.0004277801199350506,0.0004993709153495729,0.0004697145486716181,0.01151824090629816,0.01122745405882597,0.011699353344738483,passive,0
2.9205,rehab,medium,6.4901537129115265,-666.6354322369324,316.0098383251067,-177.6506926421202,0.29097717475417084,-149.8545006950762,49.2411,-0.0046,-18.4427,-23.2064,0.2055,-18.6602,77.99289514522741,26.77623106701539,81.67024895696356,-20.02593994140625,-88.95401848687065,-42.16484917534722,4.516590987101639,0.87066650390625,1.9483328337716583,-2.9769473605685763,-0.0,4.274732801649305,-2.9781,-1.1743,-1.3652,-0.03327,0.00822,0.06201,0.0009783424902707338,0.0009997376473620534,0.000828063057269901,0.0004277801199350506,0.0004993709153495729,0.0004697145486716181,0.01151824090629816,0.01122745405882597,0.011699353344738483,passive,0
2.9408,rehab,medium,7.296962096830398,-666.6341015704131,315.7085664136463,-177.65040457614012,0.2906686339545422,-149.85377471047653,48.1126,0.0076,-18.6006,8.0412,0.0862,-44.5691,78.0627426298538,26.789658046004796,81.70097804305577,-20.07266574435764,-88.95578172471788,-42.09625244140625,4.4077542748781715,0.9250814607827971,1.872543486038057,-2.996393839518229,-0.20355224609375,4.342592027452257,-2.8705,-1.3077,-1.6157,-0.02533,0.01306,0.059,0.0009783424902707338,0.0009997376473620534,0.000828063057269901,0.0004277801199350506,0.0004993709153495729,0.0004697145486716181,0.01151824090629816,0.01122745405882597,0.011699353344738483,passive,0
2.9604,rehab,medium,8.51310748262603,-666.6313187113905,315.2308693850769,-177.65037411886388,0.29064858548388434,-149.85356068192246,48.7409,0.0192,-19.7573,29.9702,-0.3085,-64.9449,78.1680441374826,26.811175204739712,81.74909081789527,-20.145594278971355,-88.95840115017361,-41.991984049479164,4.462176030225093,0.87066650390625,1.9894227887144182,-3.0994584825303817,-0.06785074869791667,4.274732801649305,-3.0449,-1.2205,-1.419,-0.04205,0.01327,0.05861,0.0009783424902707338,0.0009997376473620534,0.000828063057269901,0.0004277801199350506,0.0004993709153495729,0.0004697145486716181,0.01151824090629816,0.01122745405882597,0.011699353344738483,passive,0
2.9805,rehab,medium,9.324118517678011,-666.6315114564845,314.8942523995969,-177.6506374863043,0.29083195517878385,-149.85306541922992,49.962,0.0222,-21.5618,40.9072,-0.6487,-76.5517,78.23833352268332,26.826818485071165,81.78208379462214,-20.196075439453125,-88.9601813422309,-41.922760009765625,4.298924361125077,0.979496417659344,2.139458231406637,-3.2897525363498263,-0.06785074869791667,4.342592027452257,-3.1374,-1.0261,-1.4824,-0.04924,0.00938,0.06213,0.0009783424902707338,0.0009997376473620534,0.000828063057269901,0.0004277801199350506,0.0004993709153495729,0.0004697145486716181,0.01151824090629816,0.01122745405882597,0.011699353344738483,passive,0
3.0005,rehab,medium,10.544765448974344,-666.6321096205855,314.3613311464678,-177.6511287568124,0.2913361012086317,-149.8511602901088,50.7791,-0.0083,-23.2305,36.9164,-0.7597,-76.4418,78.34414491559019,26.851870848400758,81.83374537099706,-20.27530246310764,-88.96271599663628,-41.81974622938368,4.4077542748781715,1.0883331298828125,2.2355478116781407,-3.380788167317708,-0.06785074869791667,4.410442776150173,-2.9454,-1.2042,-1.9306,-0.02363,0.00854,0.06438,0.0009783424902707338,0.0009997376473620534,0.000828063057269901,0.0004277801199350506,0.0004993709153495729,0.0004697145486716181,0.01151824090629816,0.01122745405882597,0.011699353344738483,passive,0
3.0209,rehab,medium,11.350652633865645,-666.6320949182864,313.9830295638052,-177.65154107242842,0.2917323625329223,-149.85064205347075,51.9573,-0.0464,-24.9841,21.1242,-0.5671,-65.761,78.41402639256846,26.86971683313351,81.87025995537786,-20.331234402126736,-88.96441141764323,-41.751013861762154,4.462176030225093,1.0883331298828125,2.26268730541267,-3.632261488172743,-0.06785074869791667,4.206882052951388,-3.0063,-0.9741,-1.455,-0.02638,0.01227,0.06542,0.0009783424902707338,0.0009997376473620534,0.000828063057269901,0.0004277801199350506,0.0004993709153495729,0.0004697145486716181,0.01151824090629816,0.01122745405882597,0.011699353344738483,passive,0
3.041,rehab,medium,12.536425805709827,-666.6340957009016,313.38905411232105,-177.65198009347634,0.2921442673884506,-149.85211157352856,52.685,-0.0705,-26.5756,3.2067,-0.0513,-51.6883,78.51693483862546,26.898127640828047,81.92705437688544,-20.419057210286457,-88.96697150336371,-41.64762708875868,4.244502605778156,1.251584798982828,2.3899410738803373,-3.7712944878472223,-0.06785074869791667,4.342592027452257,-2.6621,-1.1434,-1.5832,-0.02339,-0.00554,0.06304,0.0009783424902707338,0.0009997376473620534,0.000828063057269901,0.0004277801199350506,0.0004993709153495729,0.0004697145486716181,0.01151824090629816,0.01122745405882597,0.011699353344738483,passive,0
3.0609,rehab,medium,13.518916846247006,-666.6333257612474,312.87601285420504,-177.65226640248136,0.2923182295936501,-149.8533578284131,52.1283,-0.0622,-27.1155,-21.7954,0.6359,-31.1315,78.60220125406096,26.9225273510017,81.97637727945158,-20.495113796657986,-88.96915859646268,-41.561974419487846,4.190087648901609,1.305999755859375,2.537182345248685,-3.910819159613715,-0.06785074869791667,4.206882052951388,-2.6585,-1.0205,-1.6036,-0.03724,0.00603,0.05676,0.0009783424902707338,0.0009997376473620534,0.000828063057269901,0.0004277801199350506,0.0004993709153495729,0.0004697145486716181,0.01151824090629816,0.01122745405882597,0.011699353344738483,passive,0
3.0806,rehab,medium,14.713485503999426,-666.6375256535725,312.2374812838185,-177.65239832647958,0.2924859200413693,-149.85361233194834,51.2422,-0.0271,-27.317,-48.8744,1.2989,-7.0935,78.7059731058555,26.953847904016477,82.03632619121286,-20.589370727539062,-88.97167629665799,-41.45901150173611,4.298924361125077,1.305999755859375,2.430922253297107,-3.9767879909939237,-0.06785074869791667,4.274732801649305,-2.7508,-1.0461,-1.7732,-0.02647,0.00239,0.05732,0.0009783424902707338,0.0009997376473620534,0.000828063057269901,0.0004277801199350506,0.0004993709153495729,0.0004697145486716181,0.01151824090629816,0.01122745405882597,0.011699353344738483,passive,0
3.1004,rehab,medium,15.513198353375257,-666.6388662818773,311.8141766039108,-177.65152628323833,0.2917181931480013,-149.85291437448305,48.934,0.0118,-26.6423,-61.698,1.5316,9.9926,78.77543987614094,26.974494858543473,82.07672270217745,-20.6536865234375,-88.97336324055989,-41.3909657796224,4.4077542748781715,1.305999755859375,2.645114860912361,-3.9443461100260415,-0.13570149739583334,4.410442776150173,-2.6344,-1.0698,-1.6591,-0.01509,0.00281,0.05431,0.0009783424902707338,0.0009997376473620534,0.000828063057269901,0.0004277801199350506,0.0004993709153495729,0.0004697145486716181,0.01151824090629816,0.01122745405882597,0.011699353344738483,passive,0
3.1212,rehab,medium,16.72323732530954,-666.636071364031,311.15746896533255,-177.65116528750409,0.29141965446533996,-149.85265376530944,48.6738,0.0585,-26.8972,-46.9219,1.2042,12.2298,78.88049663883625,27.0063320953067,82.13923463726988,-20.75171576605903,-88.97592332628038,-41.28727383083767,4.353339318001624,1.360414712735922,2.668678359229966,-4.128977457682292,-0.13570149739583334,4.342592027452257,-2.7742,-1.0175,-1.2757,-0.02691,0.01415,0.05512,0.0009783424902707338,0.0009997376473620534,0.000828063057269901,0.0004277801199350506,0.0004993709153495729,0.0004697145486716181,0.01151824090629816,0.01122745405882597,0.011699353344738483,passive,0
3.1404,rehab,medium,17.526845359197225,-666.6355544579454,310.71735997845803,-177.6507008232344,0.29101779041959874,-149.85229778931358,48.4974,0.0827,-27.0455,-12.8209,0.5486,2.2631,78.95031013111077,27.028019215800974,82.18069170961286,-20.81759982638889,-88.97762722439236,-41.218558417426216,4.298924361125077,1.360414712735922,2.589741319713026,-4.192945692274305,-0.13570149739583334,4.274732801649305,-2.6906,-1.1656,-1.5197,-0.03246,-0.00747,0.05582,0.0009783424902707338,0.0009997376473620534,0.000828063057269901,0.0004277801199350506,0.0004993709153495729,0.0004697145486716181,0.01151824090629816,0.01122745405882597,0.011699353344738483,passive,0
3.1604,rehab,medium,18.329259917387393,-666.6317532964881,310.2674510810117,-177.6509904618328,0.29125676497319786,-149.8518851102141,46.5081,0.0807,-25.9364,21.3901,-0.287,-7.7928,79.01998085550743,27.050025864402848,82.22297139687113,-20.88362799750434,-88.97933959960938,-41.15004645453559,4.244502605778156,1.4148296696124691,2.6495814559483293,-4.088677300347222,-0.06785074869791667,4.342592027452257,-2.6302,-0.9766,-0.6694,-0.01993,-0.00343,0.05115,0.0009783424902707338,0.0009997376473620534,0.000828063057269901,0.0004277801199350506,0.0004993709153495729,0.0004697145486716181,0.01151824090629816,0.01122745405882597,0.011699353344738483,passive,0
3.1808,rehab,medium,19.51082480670033,-666.6298034133263,309.59156150575717,-177.6515703115637,0.2918111766395459,-149.8538614836752,46.8444,0.0592,-25.9458,42.0843,-0.9197,-11.3095,79.12266495204207,27.083868649926515,82.28520459467822,-20.982098049587673,-88.9818827311198,-41.04649861653646,4.244502605778156,1.4148296696124691,2.5713990466429455,-4.048309326171875,-0.13570149739583334,4.139031304253472,-2.5318,-0.9487,-1.5958,-0.0132,-0.00235,0.05211,0.0009783424902707338,0.0009997376473620534,0.000828063057269901,0.0004277801199350506,0.0004993709153495729,0.0004697145486716181,0.01151824090629816,0.01122745405882597,0.011699353344738483,passive,0
3.2012,rehab,medium,20.293715249935,-666.6284229124255,309.15398047352926,-177.6513142308853,0.2915691014652071,-149.85515690373515,49.5074,0.0136,-27.0849,43.3926,-1.2889,-6.6375,79.19072443896,27.105936484761756,82.32558750870204,-21.047015719943577,-88.98361206054688,-40.97787645128038,4.353339318001624,1.360414712735922,2.5589986366800743,-4.238620334201388,-0.13570149739583334,4.206882052951388,-2.6761,-0.8874,-1.3561,-0.03608,0.01198,0.05876,0.0009783424902707338,0.0009997376473620534,0.000828063057269901,0.0004277801199350506,0.0004993709153495729,0.0004697145486716181,0.01151824090629816,0.01122745405882597,0.011699353344738483,passive,0
3.2207,rehab,medium,21.48471622578973,-666.6295002579085,308.50396710685385,-177.65098756709799,0.2913184814788271,-149.85654971629,52.3899,-0.0164,-28.255,36.7471,-1.3784,-1.4756,79.2943263289952,27.13958211464457,82.3842175172107,-21.142900254991318,-88.98619757758246,-40.873964097764755,4.244502605778156,1.360414712735922,2.404292644840656,-3.894220987955729,-0.06785074869791667,4.342592027452257,-2.5259,-0.9633,-1.0181,-0.03138,-0.00207,0.05437,0.0009783424902707338,0.0009997376473620534,0.000828063057269901,0.0004277801199350506,0.0004993709153495729,0.0004697145486716181,0.01151824090629816,0.01122745405882597,0.011699353344738483,passive,0
3.2407,rehab,medium,22.292131763395655,-666.6317176347452,308.0904764596856,-177.64978916827351,0.29027165551777784,-149.85548117355216,52.4455,-0.0357,-27.8795,29.498,-1.2334,0.1062,79.36459531878481,27.16143239842783,82.4213167700437,-21.205546061197918,-88.98793538411458,-40.8054690890842,4.462176030225093,1.4148296696124691,2.277827498936417,-3.9042070176866317,-0.06785074869791667,4.206882052951388,-2.691,-1.0085,-1.2844,-0.03769,0.00382,0.05763,0.0009783424902707338,0.0009997376473620534,0.000828063057269901,0.0004277801199350506,0.0004993709153495729,0.0004697145486716181,0.01151824090629816,0.01122745405882597,0.011699353344738483,passive,0
3.2607,rehab,medium,23.500861018113536,-666.634007186211,307.4574174796879,-177.65000652203705,0.29051058333302054,-149.85460494647145,51.6634,-0.0512,-27.0744,3.8169,-1.003,9.6794,79.4697880508876,27.195329571714495,82.47644556630956,-21.297420925564236,-88.99051242404514,-40.70219251844618,4.4077542748781715,1.4148296696124691,2.219163498075882,-3.8061947292751737,-0.13570149739583334,4.139031304253472,-2.5242,-0.9878,-1.0658,-0.02573,-0.00273,0.05521,0.0009783424902707338,0.0009997376473620534,0.000828063057269901,0.0004277801199350506,0.0004993709153495729,0.0004697145486716181,0.01151824090629816,0.01122745405882597,0.011699353344738483,passive,0
3.2804,rehab,medium,24.50852599048654,-666.6328565033249,306.9344635575204,-177.6506659443529,0.29099176105124325,-149.85371261381454,50.5829,-0.0549,-26.3196,-32.3307,-0.6989,24.3767,79.557467923306,27.22335966506807,82.52177096829556,-21.372595893012154,-88.99275885687933,-40.6162601047092,4.353339318001624,1.4692514249593904,2.2467041015625,-3.8042958577473955,-0.13570149739583334,4.139031304253472,-2.5173,-0.8474,-0.7618,-0.01852,-0.00691,0.05513,0.0009783424902707338,0.0009997376473620534,0.000828063057269901,0.0004277801199350506,0.0004993709153495729,0.0004697145486716181,0.01151824090629816,0.01122745405882597,0.011699353344738483,passive,0
3.3009,rehab,medium,25.712774555680447,-666.6343153702369,306.29383576318395,-177.6526633605728,0.29269868500545165,-149.85347620960232,49.8446,-0.0665,-25.9469,-54.6319,-0.2822,31.6996,79.66231393341971,27.258514555373996,82.57543129496055,-21.46195305718316,-88.99539523654514,-40.5126698811849,4.516590987101639,1.4148296696124691,2.1879313251759744,-3.717990451388889,-0.13570149739583334,4.139031304253472,-2.7879,-0.8519,-0.8789,-0.04193,0.01453,0.05442,0.0009783424902707338,0.0009997376473620534,0.000828063057269901,0.0004277801199350506,0.0004993709153495729,0.0004697145486716181,0.01151824090629816,0.01122745405882597,0.011699353344738483,passive,0
3.3206,rehab,medium,26.521406852372447,-666.6335070464175,305.8765808076737,-177.65336379076072,0.29329458760873495,-149.8523375064818,49.9157,-0.0832,-26.0878,-41.427,0.3292,20.0378,79.73269849720567,27.281418602065283,82.61067456538134,-21.521275838216145,-88.9971415201823,-40.44409857855903,4.353339318001624,1.4692514249593904,2.2418431952448175,-3.752797444661458,-0.13570149739583334,4.206882052951388,-2.563,-0.8356,-0.7828,-0.01724,0.00282,0.05331,0.0009783424902707338,0.0009997376473620534,0.000828063057269901,0.0004277801199350506,0.0004993709153495729,0.0004697145486716181,0.01151824090629816,0.01122745405882597,0.011699353344738483,passive,0
3.3404,rehab,medium,27.323165706282886,-666.6360393344613,305.45075928629217,-177.65395532051207,0.2938660880465173,-149.851839910521,48.7339,-0.0827,-25.6422,-7.1186,1.0757,-5.8676,79.80254598183207,27.30527443460899,82.64591783580214,-21.581649780273438,-88.99883694118924,-40.37543402777778,4.353339318001624,1.4692514249593904,2.1534562819074874,-3.7914869520399304,-0.0,4.342592027452257,-2.4265,-0.9654,-1.4017,-0.00719,-0.00639,0.05384,0.0009783424902707338,0.0009997376473620534,0.000828063057269901,0.0004277801199350506,0.0004993709153495729,0.0004697145486716181,0.01151824090629816,0.01122745405882597,0.011699353344738483,passive,0
3.3605,rehab,medium,28.517860776455315,-666.63802767318,304.8288251871458,-177.65318830353723,0.2931677002869806,-149.85176479809078,48.0365,-0.064,-25.429,17.511,1.6337,-28.81,79.90664416020459,27.34005540904432,82.69832724391824,-21.673016018337673,-89.00149875217014,-40.27244567871094,4.298924361125077,1.4148296696124691,2.1854158911374535,-3.8207583957248263,-0.13570149739583334,4.410442776150173,-2.5146,-0.9222,-0.6704,-0.01725,-0.00309,0.04893,0.0009783424902707338,0.0009997376473620534,0.000828063057269901,0.0004277801199350506,0.0004993709153495729,0.0004697145486716181,0.01151824090629816,0.01122745405882597,0.011699353344738483,passive,0
3.3804,rehab,medium,29.303544459232633,-666.6411931324914,304.40491571101256,-177.65278663280046,0.29276244223159015,-149.85304897662127,47.9506,-0.0211,-25.6712,29.7382,1.838,-45.8919,79.9751591446376,27.364081203347386,82.73349573116491,-21.734881930881077,-89.00331285264757,-40.203348795572914,4.462176030225093,1.4692514249593904,2.1844641052850404,-4.021674262152778,-0.20355224609375,4.274732801649305,-2.4544,-0.906,-1.4133,-0.014,0.00153,0.05654,0.0009783424902707338,0.0009997376473620534,0.000828063057269901,0.0004277801199350506,0.0004993709153495729,0.0004697145486716181,0.01151824090629816,0.01122745405882597,0.011699353344738483,passive,0
3.4007,rehab,medium,30.505774703097508,-666.6426219054274,303.7596090618958,-177.65159875175775,0.2917475544553009,-149.8535087227059,49.4155,0.0479,-27.0203,33.4217,1.6099,-61.341,80.07995076698832,27.40049381067257,82.78754357064125,-21.83007134331597,-89.0059831407335,-40.099173651801216,4.462176030225093,1.4692514249593904,2.2659029818997523,-3.979398939344618,-0.06785074869791667,4.47829352484809,-2.4541,-0.9056,-1.5147,-0.02018,-4e-05,0.05672,0.0009783424902707338,0.0009997376473620534,0.000828063057269901,0.0004277801199350506,0.0004993709153495729,0.0004697145486716181,0.01151824090629816,0.01122745405882597,0.011699353344738483,passive,0
3.4206,rehab,medium,31.314084784153444,-666.640774487184,303.30424135131915,-177.65164223612473,0.2918608614669899,-149.85248512927498,52.063,0.0992,-29.5588,29.9121,0.836,-74.8578,80.15036252465579,27.425981276106125,82.82554702003404,-21.89554002549913,-89.00767008463542,-40.030526055230034,4.353339318001624,1.686918050935953,2.316476803014774,-4.13543701171875,-0.06785074869791667,4.342592027452257,-2.5114,-0.8687,-1.2191,-0.02138,-0.00259,0.05686,0.0009783424902707338,0.0009997376473620534,0.000828063057269901,0.0004277801199350506,0.0004993709153495729,0.0004697145486716181,0.01151824090629816,0.01122745405882597,0.011699353344738483,passive,0
3.4404,rehab,medium,32.52972602369613,-666.6349709950694,302.61375107054505,-177.6503482706793,0.29078298321662294,-149.85137536043302,52.5153,0.1034,-31.4067,17.2693,-0.2464,-82.3103,80.25625549920714,27.464304253606514,82.88436058724281,-21.99750264485677,-89.01029798719618,-39.92689344618056,4.244502605778156,1.7413330078125,2.4221046372215347,-4.387342664930555,-0.13570149739583334,4.546152750651042,-2.2966,-0.8714,-1.1892,-0.02673,-0.00259,0.04806,0.0009783424902707338,0.0009997376473620534,0.000828063057269901,0.0004277801199350506,0.0004993709153495729,0.0004697145486716181,0.01151824090629816,0.01122745405882597,0.011699353344738483,passive,0
3.4605,rehab,medium,33.334097229447806,-666.6325212938614,302.1234989596143,-177.65014115589818,0.2905325186938763,-149.8510301428106,51.4683,0.0709,-32.2651,-2.7076,-1.1876,-82.4307,80.32637492264851,27.49173608156714,82.92542334830407,-22.068405151367188,-89.01210361056857,-39.85792371961806,4.353339318001624,1.7413330078125,2.563886736879254,-4.5635732014973955,-0.20355224609375,4.410442776150173,-2.361,-0.8054,-0.8393,-0.01796,-0.01287,0.04891,0.0009783424902707338,0.0009997376473620534,0.000828063057269901,0.0004277801199350506,0.0004993709153495729,0.0004697145486716181,0.01151824090629816,0.01122745405882597,0.011699353344738483,passive,0
3.4806,rehab,medium,34.540560912095344,-666.6292654520835,301.3604315514851,-177.6492177278096,0.28977441084731254,-149.85114130476998,51.0886,0.0249,-33.8645,-25.2725,-1.6983,-75.5669,80.43156765475132,27.534505258692374,82.98946493923074,-22.179556952582466,-89.01472303602431,-39.753875732421875,4.298924361125077,1.9589996337890625,2.7567525429300743,-4.772143893771701,-0.06785074869791667,4.342592027452257,-2.5149,-0.6654,-1.3854,-0.01857,0.00426,0.05394,0.0009783424902707338,0.0009997376473620534,0.000828063057269901,0.0004277801199350506,0.0004993709153495729,0.0004697145486716181,0.01151824090629816,0.01122745405882597,0.011699353344738483,passive,0
3.5004,rehab,medium,35.52750646792318,-666.6296171465486,300.6789649182243,-177.6492874554765,0.2898937924084252,-149.85267822981885,49.9087,-0.0313,-35.0395,-43.6919,-1.4621,-60.9175,80.51769067745397,27.57304578724474,83.04564749840462,-22.276763916015625,-89.01685078938802,-39.66731601291232,4.244502605778156,1.9045846769125154,2.927761266727259,-5.101208157009548,-0.06785074869791667,4.342592027452257,-2.4072,-0.7133,-1.1392,-0.01695,0.01008,0.05374,0.0009783424902707338,0.0009997376473620534,0.000828063057269901,0.0004277801199350506,0.0004993709153495729,0.0004697145486716181,0.01151824090629816,0.01122745405882597,0.011699353344738483,passive,0
3.5208,rehab,medium,36.71720443364377,-666.6353737353691,299.8098257106685,-177.64934342114432,0.28991883074014396,-149.8534014069353,49.0069,-0.0706,-36.3966,-41.8414,-0.5537,-53.0028,80.62161889406714,27.62287177661858,83.11623601630183,-22.400232950846355,-89.01944478352864,-39.56406487358941,4.4077542748781715,2.122251302889078,2.919657490040996,-5.213894314236111,-0.06785074869791667,4.342592027452257,-2.3765,-0.7053,-1.2176,-0.01839,-0.00084,0.05217,0.0009783424902707338,0.0009997376473620534,0.000828063057269901,0.0004277801199350506,0.0004993709153495729,0.0004697145486716181,0.01151824090629816,0.01122745405882597,0.011699353344738483,passive,0
3.5407,rehab,medium,37.5064189219007,-666.6388861593989,299.2017117735691,-177.6496280401393,0.29013141972249834,-149.85408327960556,48.7877,-0.0648,-37.83,-23.7784,0.3421,-56.6802,80.69057577907449,27.65769354187616,83.16556571733834,-22.486097547743054,-89.02116563585069,-39.49540032280816,4.298924361125077,2.2310880151125465,3.2580377559850713,-5.519019232855903,-0.13570149739583334,4.410442776150173,-2.3362,-0.6178,-0.6386,-0.024,0.0023,0.04992,0.0009783424902707338,0.0009997376473620534,0.000828063057269901,0.0004277801199350506,0.0004993709153495729,0.0004697145486716181,0.01151824090629816,0.01122745405882597,0.011699353344738483,passive,0
3.5608,rehab,medium,38.30191109946798,-666.6386894013428,298.5657544445427,-177.65084964516547,0.2911272710098384,-149.85470635468812,48.7373,-0.0307,-39.085,-1.2892,0.8474,-66.3334,80.76003575088954,27.69378662109375,83.21723409218363,-22.574361165364582,-89.0228780110677,-39.42632039388021,4.353339318001624,2.2310880151125465,3.412696158531869,-5.629119873046875,-0.13570149739583334,4.342592027452257,-2.5633,-0.6561,-0.8247,-0.03526,0.00947,0.05049,0.0009783424902707338,0.0009997376473620534,0.000828063057269901,0.0004277801199350506,0.0004993709153495729,0.0004697145486716181,0.01151824090629816,0.01122745405882597,0.011699353344738483,passive,0
3.5804,rehab,medium,39.49298458103705,-666.6374015928188,297.5826616792255,-177.65210137126238,0.29214954852661434,-149.85547284476337,48.1992,0.0113,-39.6696,20.7739,0.8734,-77.0824,80.86404554914719,27.749534078163677,83.29748323648283,-22.711842854817707,-89.02541266547308,-39.32310316297743,4.4077542748781715,2.2855029719890934,3.4053810044090347,-5.800179375542535,-0.13570149739583334,4.274732801649305,-2.3835,-0.5081,-0.5175,-0.01804,0.00999,0.05373,0.0009783424902707338,0.0009997376473620534,0.000828063057269901,0.0004277801199350506,0.0004993709153495729,0.0004697145486716181,0.01151824090629816,0.01122745405882597,0.011699353344738483,passive,0
3.6007,rehab,medium,40.290169737039776,-666.6360409985173,296.9189830479839,-177.65196240072137,0.2920787708563542,-149.85590113071717,48.2957,0.0527,-40.6379,33.1978,0.5272,-81.3915,80.93366188578086,27.787211200978497,83.35206135664836,-22.806320190429688,-89.02706570095486,-39.2541249593099,4.353339318001624,2.448754641089109,3.4560636010500465,-5.916553073459201,-0.13570149739583334,4.410442776150173,-2.3897,-0.7366,-0.9618,-0.03361,0.0082,0.04844,0.0009783424902707338,0.0009997376473620534,0.000828063057269901,0.0004277801199350506,0.0004993709153495729,0.0004697145486716181,0.01151824090629816,0.01122745405882597,0.011699353344738483,passive,0
3.6204,rehab,medium,41.49814016577157,-666.6332897812734,295.91109626631254,-177.6508219291899,0.2910339345384069,-149.85418453185292,49.6715,0.0527,-42.8765,32.0645,0.1571,-77.9105,81.03917414599125,27.84465147717164,83.43508427686031,-22.95138888888889,-89.02964274088542,-39.15196736653646,4.244502605778156,2.448754641089109,3.5167739414932706,-6.013225979275173,-0.13570149739583334,4.274732801649305,-2.3154,-0.6315,-1.3626,-0.02787,-0.00409,0.05126,0.0009783424902707338,0.0009997376473620534,0.000828063057269901,0.0004277801199350506,0.0004993709153495729,0.0004697145486716181,0.01151824090629816,0.01122745405882597,0.011699353344738483,passive,0
