t,trajectory_type,trajectory_variant,x,y,z,rx,ry,rz,vx,vy,vz,ax,ay,az,j1,j2,j3,j4,j5,j6,dj1,dj2,dj3,dj4,dj5,dj6,fx,fy,fz,tx,ty,tz,Mx,My,Mz,Bx,By,Bz,Kx,Ky,Kz,mode,comfort
0.0003,rehab,large_slow,80.22152774622671,-666.633691899332,262.48155750352214,-177.38946998702946,0.1330438868926625,-149.98555755499876,0.6066,0.113,-0.7559,-19.2274,-4.2834,29.4977,84.42615169109685,30.03393569795212,85.85564566130685,-27.96629163953993,-89.09211052788628,-35.68873087565104,-0.0,-0.05441495687654703,0.00360318929842203,0.030568440755208332,-0.0,-0.0,1.6639,0.6665,0.98,0.0006,-0.01517,-0.03368,0.0009192346478812397,0.0009999030735343695,0.0009066357742995024,0.0004652103816624731,0.0004999310476705432,0.00047221267595887184,0.011169335804879665,0.011333159171044827,0.011565974913537502,passive,1
0.0206,rehab,large_slow,80.22128917908017,-666.6337273717838,262.48206898282274,-177.38942442223225,0.13301204579917592,-149.98559494180685,0.3993,0.0702,-0.4823,-18.3477,-3.6269,25.9439,84.42613129568572,30.033901705600247,85.8556320643661,-27.966300116644966,-89.09211052788628,-35.68871392144097,-0.0,-0.0,0.0008294133856745049,-0.006764729817708333,-0.0,-0.0,1.4905,0.6188,1.3203,0.00112,-0.02913,-0.03473,0.0009192346478812397,0.0009999030735343695,0.0009066357742995024,0.0004652103816624731,0.0004999310476705432,0.00047221267595887184,0.011169335804879665,0.011333159171044827,0.011565974913537502,passive,1
0.0405,rehab,large_slow,80.22128308990887,-666.6336275526321,262.48240506905796,-177.3894072645042,0.13298932724433823,-149.98559521638293,-0.005,-0.0035,0.0315,-16.8016,-2.3777,19.652,84.42613129568572,30.033867713248377,85.85563886283647,-27.966300116644966,-89.09211900499132,-35.68871392144097,0.05441495687654703,-0.0,0.047766052850402224,-0.0,-0.06785074869791667,-0.0,1.4149,0.7929,1.4161,-0.00247,-0.02164,-0.03178,0.0009192346478812397,0.0009999030735343695,0.0009066357742995024,0.0004652103816624731,0.0004999310476705432,0.00047221267595887184,0.011169335804879665,0.011333159171044827,0.011565974913537502,passive,1
0.0604,rehab,large_slow,80.22115055737761,-666.6335457841121,262.4824384529338,-177.38940924151015,0.1330015094871868,-149.98561685055927,-0.3856,-0.0541,0.476,-15.5957,-1.2508,14.879,84.42611769874497,30.033854116307626,85.85565245977723,-27.96629163953993,-89.09211052788628,-35.68870544433594,-0.0,-0.0,0.006145817218440594,0.03251817491319444,-0.06785074869791667,-0.0,1.3687,0.8035,1.8058,-0.00085,-0.01429,-0.02808,0.0009192346478812397,0.0009999030735343695,0.0009066357742995024,0.0004652103816624731,0.0004999310476705432,0.00047221267595887184,0.011169335804879665,0.011333159171044827,0.011565974913537502,passive,1
0.0809,rehab,large_slow,80.21945875061009,-666.6335635634283,262.48432542439457,-177.38925423799475,0.13291183752747976,-149.98577416506785,-0.7683,-0.0837,0.88,-15.4496,-0.2847,12.3035,84.42596813239673,30.03370454995939,85.8556320643661,-27.966300116644966,-89.09209357367621,-35.688696967230904,-0.0,-0.0,0.010456047435798267,0.009824964735243056,-0.0,-0.06785074869791667,1.4726,0.7919,1.0425,0.0061,-0.01935,-0.02803,0.0009192346478812397,0.0009999030735343695,0.0009066357742995024,0.0004652103816624731,0.0004999310476705432,0.00047221267595887184,0.011169335804879665,0.011333159171044827,0.011565974913537502,passive,1
0.1006,rehab,large_slow,80.2130339063131,-666.6335247026101,262.492109378749,-177.3887238303076,0.13252247926582011,-149.98633043998464,-1.0249,-0.0752,1.0816,-15.8335,0.4564,11.8514,84.42541065782603,30.033092687625697,85.85550969189937,-27.966223822699654,-89.09210205078125,-35.688696967230904,-0.05441495687654703,-0.05441495687654703,-0.010748381661896659,0.0003306070963541667,-0.0,0.06785074869791667,1.3959,0.7954,1.163,0.00132,-0.02334,-0.03057,0.0009192346478812397,0.0009999030735343695,0.0009066357742995024,0.0004652103816624731,0.0004999310476705432,0.00047221267595887184,0.011169335804879665,0.011333159171044827,0.011565974913537502,passive,1
0.1208,rehab,large_slow,80.17103135819674,-666.6369062695096,262.5351477177981,-177.38581641822782,0.13044310271763224,-149.98982429830485,-1.3349,-0.0404,1.2619,-15.5404,1.2235,11.8718,84.42178707311649,30.03006056983872,85.8542247809986,-27.965477837456596,-89.09210205078125,-35.688815646701386,-0.2176666259765625,-0.2176666259765625,-0.08873363532642327,0.07692972819010417,-0.0,-0.06785074869791667,1.3414,0.7196,1.3385,-0.00781,-0.01042,-0.02634,0.0009192346478812397,0.0009999030735343695,0.0009066357742995024,0.0004652103816624731,0.0004999310476705432,0.00047221267595887184,0.011169335804879665,0.011333159171044827,0.011565974913537502,passive,1
0.1404,rehab,large_slow,80.13638941321695,-666.6406113243235,262.57394826123505,-177.38368629557553,0.12892380865186548,-149.9924328762827,-1.6462,-0.0104,1.4249,-16.8967,1.6362,14.8824,84.41880254462214,30.02751114344833,85.85253196187539,-27.963841756184895,-89.09209357367621,-35.689171685112846,-0.2176666259765625,-0.16324487062964108,-0.1087415336382271,0.1016659206814236,-0.06785074869791667,-0.0,1.3108,0.8089,1.2119,-0.00129,-0.01262,-0.02234,0.0009192346478812397,0.0009999030735343695,0.0009066357742995024,0.0004652103816624731,0.0004999310476705432,0.00047221267595887184,0.011169335804879665,0.011333159171044827,0.011565974913537502,passive,1
0.1607,rehab,large_slow,80.08640150408219,-666.6406045173444,262.620304498641,-177.3828997925456,0.12826357036776515,-149.99384104015985,-2.0892,0.0189,1.7948,-22.9273,1.5165,24.2539,84.41444472511216,30.0239895357944,85.85049242076308,-27.95922173394097,-89.09208509657118,-35.69207085503472,-0.16324487062964108,-0.10882991375309406,-0.10560064032526299,0.2667066786024305,-0.0,-0.20355224609375,1.3942,0.7247,1.1409,-0.00337,-0.01586,-0.02498,0.0009192346478812397,0.0009999030735343695,0.0009066357742995024,0.0004652103816624731,0.0004999310476705432,0.00047221267595887184,0.011169335804879665,0.011333159171044827,0.011565974913537502,passive,1
0.1804,rehab,large_slow,80.05581083997266,-666.6378782215933,262.6423187420032,-177.38423488398323,0.12912074101621604,-149.99312196599726,-2.5327,0.0516,2.3241,-31.6321,1.0607,36.75,84.41174573237353,30.022072367148823,85.84913952515856,-27.954271104600693,-89.09205966525607,-35.695436265733505,-0.10882991375309406,-0.10882991375309406,-0.08448459134243502,0.39276123046875,-0.0,-0.20355224609375,1.2807,0.7361,0.5397,0.00499,-0.01848,-0.02121,0.0009192346478812397,0.0009999030735343695,0.0009066357742995024,0.0004652103816624731,0.0004999310476705432,0.00047221267595887184,0.011169335804879665,0.011333159171044827,0.011565974913537502,passive,1
0.2005,rehab,large_slow,80.0136123116481,-666.6333583765366,262.67095266087637,-177.38715573448385,0.13107717824519313,-149.99109979249494,-3.1724,0.0799,3.1507,-44.0169,0.3699,52.6154,84.40800657366762,30.0195569331103,85.84686203758315,-27.945802476671005,-89.0919918484158,-35.70110744900173,-0.2720815828531095,-0.16324487062964108,-0.15613367061803837,0.5317942301432291,0.06785074869791667,-0.339262220594618,1.4631,0.7779,1.703,0.02379,-0.03381,-0.02582,0.0009192346478812397,0.0009999030735343695,0.0009066357742995024,0.0004652103816624731,0.0004999310476705432,0.00047221267595887184,0.011169335804879665,0.011333159171044827,0.011565974913537502,passive,1
0.2204,rehab,large_slow,79.93014118350239,-666.6321212891712,262.7492242904824,-177.3893771465462,0.132632915581654,-149.9890270394784,-4.0942,0.0736,4.3103,-59.9539,-0.1427,69.9145,84.40066422566329,30.013880210347693,85.84127369493541,-27.931560940212673,-89.09173753526476,-35.710364447699654,-0.435333251953125,-0.32649653972965653,-0.27841775724203277,0.658721923828125,0.06785074869791667,-0.4749637179904514,1.4754,0.8617,1.4297,0.0256,-0.0271,-0.02494,0.0009192346478812397,0.0009999030735343695,0.0009066357742995024,0.0004652103816624731,0.0004999310476705432,0.00047221267595887184,0.011169335804879665,0.011333159171044827,0.011565974913537502,passive,1
0.2406,rehab,large_slow,79.85097546767494,-666.6322808704186,262.83426661568393,-177.38987701057715,0.1330393459872809,-149.9878985734392,-5.572,0.051,6.0299,-77.4235,-0.5138,85.5067,84.39370939047029,30.007856765595992,85.83584171710628,-27.919235229492188,-89.09145779079861,-35.71830749511719,-0.489748208829672,-0.435333251953125,-0.3862550943204672,0.844573974609375,-0.0,-0.5428229437934028,1.4194,0.8018,1.7221,0.00853,-0.00513,-0.0241,0.0009192346478812397,0.0009999030735343695,0.0009066357742995024,0.0004652103816624731,0.0004999310476705432,0.00047221267595887184,0.011169335804879665,0.011333159171044827,0.011565974913537502,passive,1
0.2604,rehab,large_slow,79.70125139874477,-666.6320596459111,263.01065763906394,-177.3895854764019,0.1328946556853936,-149.98545345318925,-7.2731,0.0363,7.8708,-92.3053,-0.8702,95.0634,84.38055435029587,29.995367975518256,85.8251953125,-27.895982530381943,-89.0909406873915,-35.733642578125,-0.6529998779296875,-0.5985781225827661,-0.5147053935740253,1.1116451687282987,-0.06785074869791667,-0.7463751898871528,1.3867,0.9413,1.9496,0.03026,-0.01695,-0.025,0.0009192346478812397,0.0009999030735343695,0.0009066357742995024,0.0004652103816624731,0.0004999310476705432,0.00047221267595887184,0.011169335804879665,0.011333159171044827,0.011565974913537502,passive,1
0.2807,rehab,large_slow,79.57203012512157,-666.6314018233818,263.1592062632263,-177.3891581871456,0.13265069752797767,-149.98399887528217,-9.1836,0.0101,9.8301,-104.6351,-1.0791,99.8559,84.36920090477065,29.984735167852723,85.81650686736154,-27.876790364583332,-89.09050835503471,-35.74623107910156,-0.8162515470297029,-0.6529998779296875,-0.5706364093440593,1.3120693630642362,0.06785074869791667,-0.8820851643880208,1.3608,0.6965,1.3241,0.00818,-0.01624,-0.0296,0.0009192346478812397,0.0009999030735343695,0.0009066357742995024,0.0004652103816624731,0.0004999310476705432,0.00047221267595887184,0.011169335804879665,0.011333159171044827,0.011565974913537502,passive,1
0.3006,rehab,large_slow,79.32106789357942,-666.6332320563345,263.4209886415547,-177.38907773604865,0.13264251993848358,-149.98308613703446,-11.7119,-0.0031,12.2142,-112.87,-0.9944,101.1943,84.34720105463916,29.966120955967668,85.80069362527072,-27.841788397894966,-89.08978780110677,-35.768746270073784,-1.0339181730062654,-0.87066650390625,-0.7237107682936262,1.6198306613498263,0.06785074869791667,-1.0856458875868056,1.3762,0.7116,1.8294,0.00681,-0.02224,-0.02931,0.0009192346478812397,0.0009999030735343695,0.0009066357742995024,0.0004652103816624731,0.0004999310476705432,0.00047221267595887184,0.011169335804879665,0.011333159171044827,0.011565974913537502,passive,1
0.3208,rehab,large_slow,79.11828426127387,-666.6325871399148,263.62956873056663,-177.38912446632565,0.13266040269280446,-149.98275397106536,-14.0527,-0.0056,14.2197,-117.8357,-0.8029,100.8854,84.32941625613978,29.951021553266166,85.78850396788947,-27.813941107855904,-89.08926222059462,-35.7865481906467,-1.1971630436359066,-1.0339181730062654,-0.773448377552599,1.8740081787109375,0.06785074869791667,-1.153496636284722,1.3423,0.5784,0.9864,0.00761,-0.02053,-0.0206,0.0009192346478812397,0.0009999030735343695,0.0009066357742995024,0.0004652103816624731,0.0004999310476705432,0.00047221267595887184,0.011169335804879665,0.011333159171044827,0.011565974913537502,passive,1
0.3405,rehab,large_slow,78.75562320002777,-666.6287186334724,263.9828144784606,-177.38995566103574,0.1332629598995902,-149.98267248354426,-16.288,-0.0283,15.984,-116.1692,-0.4731,97.8612,84.29758581784692,29.924956217850788,85.76831930934793,-27.765765719943577,-89.08830430772569,-35.81791347927517,-1.4692514249593904,-1.1427480867593596,-0.9310097269492574,2.2017754448784723,0.06785074869791667,-1.357057359483507,1.2459,0.7107,1.7905,-0.00776,-0.022,-0.02727,0.0009192346478812397,0.0009999030735343695,0.0009066357742995024,0.0004652103816624731,0.0004999310476705432,0.00047221267595887184,0.011169335804879665,0.011333159171044827,0.011565974913537502,passive,1
0.3608,rehab,large_slow,78.47779062407363,-666.6305254315023,264.2527654412138,-177.38995078429156,0.1333024626933052,-149.9828883818965,-18.5055,-0.0455,17.7064,-108.7278,0.3271,93.2239,84.27324049543626,29.905580577283803,85.75228171773476,-27.72965325249566,-89.08754984537761,-35.84163241916232,-1.5780813387124846,-1.251584798982828,-1.0908961532139543,2.3647647433810763,0.06785074869791667,-1.5606180826822915,1.4158,0.6289,1.9241,0.01988,-0.03245,-0.03043,0.0009192346478812397,0.0009999030735343695,0.0009066357742995024,0.0004652103816624731,0.0004999310476705432,0.00047221267595887184,0.011169335804879665,0.011333159171044827,0.011565974913537502,passive,1
0.3808,rehab,large_slow,78.00409947691672,-666.634439606442,264.716418399401,-177.38902955018008,0.13267997828203054,-149.98372222671088,-20.7413,-0.0366,19.6443,-100.4786,1.1788,90.4215,84.23174943074142,29.872424437267945,85.72497226224087,-27.669152153862846,-89.0863037109375,-35.88160196940104,-1.9589996337890625,-1.4692514249593904,-1.164462401135133,2.6220703125,0.06785074869791667,-1.696319580078125,1.1527,0.6933,1.5198,0.00541,-0.02038,-0.02702,0.0009192346478812397,0.0009999030735343695,0.0009066357742995024,0.0004652103816624731,0.0004999310476705432,0.00047221267595887184,0.011169335804879665,0.011333159171044827,0.011565974913537502,passive,1
0.4009,rehab,large_slow,77.56517370376278,-666.6337919087553,265.12455046276517,-177.39004963935443,0.1334319100340785,-149.98394204185843,-22.8603,-0.0198,21.6262,-96.5815,1.6328,92.9451,84.19326328995204,29.842708323261526,85.70096006487856,-27.61307610405816,-89.08514234754774,-35.91923183865017,-2.0134145906656093,-1.5236663818359375,-1.2947890782120204,2.9290008544921875,-0.0,-2.0355902777777777,1.2612,0.8183,1.2115,0.02635,-0.02706,-0.02023,0.0009192346478812397,0.0009999030735343695,0.0009066357742995024,0.0004652103816624731,0.0004999310476705432,0.00047221267595887184,0.011169335804879665,0.011333159171044827,0.011565974913537502,passive,1
0.4208,rehab,large_slow,77.1780896532444,-666.6357324437618,265.4880914731106,-177.39000516618285,0.1334026815563227,-149.98479265593318,-24.7745,0.0147,23.5834,-97.428,1.6884,98.5586,84.15935251972464,29.816561406201654,85.67949049543626,-27.564578586154514,-89.08415052625868,-35.951741536458336,-2.176666259765625,-1.7413330078125,-1.4155707028832767,3.08945549858941,0.06785074869791667,-2.171291775173611,1.3782,0.7564,1.6598,0.01431,-0.02295,-0.02583,0.0009192346478812397,0.0009999030735343695,0.0009066357742995024,0.0004652103816624731,0.0004999310476705432,0.00047221267595887184,0.011169335804879665,0.011333159171044827,0.011565974913537502,passive,1
0.4408,rehab,large_slow,76.55705232701801,-666.6355242408509,266.06430371018945,-177.39138277323494,0.1343792063385074,-149.98520265737466,-26.1129,0.0931,25.1354,-96.8209,1.177,99.4658,84.10491036896659,29.774900379747447,85.64515822004563,-27.485368516710068,-89.08254835340712,-36.00487603081597,-2.3943328857421875,-1.8501697200359684,-1.459060517868193,3.4531063503689237,-0.0,-2.374852498372396,1.3368,0.7889,1.3271,0.01499,-0.03161,-0.02152,0.0009192346478812397,0.0009999030735343695,0.0009066357742995024,0.0004652103816624731,0.0004999310476705432,0.00047221267595887184,0.011169335804879665,0.011333159171044827,0.011565974913537502,passive,1
0.4608,rehab,large_slow,76.1175387402014,-666.6315524014651,266.49075912990696,-177.3913628899098,0.13436525954583484,-149.9852417564722,-28.1123,0.1486,27.2629,-103.4485,0.1397,102.9969,84.06634264653272,29.743858564018023,85.62058854811262,-27.428690592447914,-89.08139546712239,-36.04276021321615,-2.448754641089109,-1.9589996337890625,-1.6302731957766088,3.5161505805121527,0.06785074869791667,-2.4427032470703125,1.5302,0.8277,1.8861,0.03676,-0.03691,-0.02297,0.0009192346478812397,0.0009999030735343695,0.0009066357742995024,0.0004652103816624731,0.0004999310476705432,0.00047221267595887184,0.011169335804879665,0.011333159171044827,0.011565974913537502,passive,1
0.4804,rehab,large_slow,75.4206189712181,-666.6281507030798,267.17595160323503,-177.39043915340773,0.13369233122931246,-149.98481631091963,-30.1975,0.1194,29.3254,-109.1704,-0.8374,103.1597,84.00521080092628,29.694549258392637,85.58059994537051,-27.338790893554688,-89.07955593532986,-36.103295220269096,-2.557584554842203,-2.122251302889078,-1.6905892249381187,3.8107130262586804,0.06785074869791667,-2.5784132215711804,1.2801,0.7731,2.1332,0.02084,-0.02289,-0.02524,0.0009192346478812397,0.0009999030735343695,0.0009066357742995024,0.0004652103816624731,0.0004999310476705432,0.00047221267595887184,0.011169335804879665,0.011333159171044827,0.011565974913537502,passive,1
0.5007,rehab,large_slow,74.93041831970032,-666.6245413516923,267.66127176925005,-177.3898142018714,0.13322445067539473,-149.98389765826536,-32.9193,0.0632,31.7963,-112.3256,-1.5326,99.867,83.96219687886757,29.659652709960938,85.55222313002784,-27.27505154079861,-89.07825046115451,-36.14650302463107,-2.7752511808187657,-2.2310880151125465,-1.8795527089940438,3.9333258734809027,0.06785074869791667,-2.714114718967014,1.1413,0.7359,1.6949,0.004,-0.01125,-0.02907,0.0009192346478812397,0.0009999030735343695,0.0009066357742995024,0.0004652103816624731,0.0004999310476705432,0.00047221267595887184,0.011169335804879665,0.011333159171044827,0.011565974913537502,passive,1
0.5204,rehab,large_slow,74.16035464403014,-666.6208905617301,268.4168213908752,-177.3893210842166,0.13289184127090337,-149.98203580050395,-34.7332,0.0041,33.2521,-107.1569,-1.8141,89.6393,83.89463368028697,29.605740839892093,85.50713567450495,-27.174674140082466,-89.0761481391059,-36.21478610568576,-2.8296661376953125,-2.2855029719890934,-1.9106081216642172,4.351687961154513,0.06785074869791667,-2.9176754421657987,1.3117,0.759,1.7062,0.02532,-0.02849,-0.02256,0.0009192346478812397,0.0009999030735343695,0.0009066357742995024,0.0004652103816624731,0.0004999310476705432,0.00047221267595887184,0.011169335804879665,0.011333159171044827,0.011565974913537502,passive,1
0.5408,rehab,large_slow,73.6118780500442,-666.6218802609465,268.94157981661766,-177.389127899362,0.13275584930950735,-149.98179417720002,-37.0009,-0.0566,35.0252,-85.8087,-1.4473,66.1969,83.84655489779935,29.568716370233215,85.47507408821937,-27.104449801974827,-89.07469855414496,-36.262308756510414,-3.1561694758953434,-2.2310880151125465,-2.0644779016475865,4.492136637369792,0.13570149739583334,-3.0533854166666665,1.1492,0.7072,1.8488,0.003,-0.01887,-0.02196,0.0009192346478812397,0.0009999030735343695,0.0009066357742995024,0.0004652103816624731,0.0004999310476705432,0.00047221267595887184,0.011169335804879665,0.011333159171044827,0.011565974913537502,passive,1
0.5604,rehab,large_slow,72.5903540758664,-666.6287643349071,269.885985907504,-177.3899075890734,0.13331988857444205,-149.98213468071427,-39.4446,-0.0682,36.9659,-62.6508,-0.5724,43.7759,83.75706663226137,29.502710021368348,85.41583221737702,-26.975699530707466,-89.07203674316406,-36.349995930989586,-3.428251058748453,-2.3399179288656407,-2.15463921575263,4.6500905354817705,0.06785074869791667,-3.121236165364583,1.258,0.7144,1.3937,0.01829,-0.03944,-0.02678,0.0009192346478812397,0.0009999030735343695,0.0009066357742995024,0.0004652103816624731,0.0004999310476705432,0.00047221267595887184,0.011169335804879665,0.011333159171044827,0.011565974913537502,passive,1
0.5808,rehab,large_slow,71.9692535773472,-666.6324153404527,270.45092660701636,-177.3901506431214,0.13350496396264738,-149.98319071813566,-40.0072,-0.0417,37.2398,-43.404,0.1875,26.0853,83.7026584738552,29.463210908493192,85.38053455919322,-26.89907497829861,-89.0704345703125,-36.402477688259545,-3.64592448319539,-2.557584554842203,-2.2897724113842046,4.786470201280382,0.06785074869791667,-3.324796888563368,1.1756,0.7602,1.9946,0.02749,-0.01244,-0.01818,0.0009192346478812397,0.0009999030735343695,0.0009066357742995024,0.0004652103816624731,0.0004999310476705432,0.00047221267595887184,0.011169335804879665,0.011333159171044827,0.011565974913537502,passive,1
0.6005,rehab,large_slow,71.01173941111571,-666.6317709731869,271.338055596942,-177.389836141845,0.13327272529095321,-149.98416184861696,-40.9066,-0.0146,37.8105,-37.7622,0.4894,20.912,83.61871776014272,29.40085533821937,85.32600402832031,-26.780209011501736,-89.06795077853732,-36.48409525553385,-3.7003394400719367,-2.7752511808187657,-2.3810826669825187,5.06379869249132,0.13570149739583334,-3.528349134657118,1.3907,0.7661,2.9114,0.03294,-0.02211,-0.02846,0.0009192346478812397,0.0009999030735343695,0.0009066357742995024,0.0004652103816624731,0.0004999310476705432,0.00047221267595887184,0.011169335804879665,0.011333159171044827,0.011565974913537502,passive,1
0.6205,rehab,large_slow,70.35339478702025,-666.6309137650599,271.95386695783765,-177.38926786569044,0.13283792315680634,-149.98430383830913,-40.2323,0.005,36.9637,-40.7602,0.5533,24.1568,83.56099874666421,29.35778022992729,85.28798698198678,-26.698184543185764,-89.06623840332031,-36.54073927137587,-3.64592448319539,-2.7208362239422184,-2.4178419962967976,5.101437038845486,0.20355224609375,-3.596208360460069,1.4017,0.779,2.6162,0.04832,-0.02857,-0.02862,0.0009192346478812397,0.0009999030735343695,0.0009066357742995024,0.0004652103816624731,0.0004999310476705432,0.00047221267595887184,0.011169335804879665,0.011333159171044827,0.011565974913537502,passive,1
0.6408,rehab,large_slow,69.33442209340856,-666.6261790167725,272.90349323431093,-177.3882565580013,0.13208931957060663,-149.98440780271315,-40.913,0.0132,37.3946,-53.7707,0.3427,36.3424,83.4716260551226,29.291216406491724,85.22966970311533,-26.572002834743923,-89.06355963812933,-36.628570556640625,-3.7003394400719367,-2.7752511808187657,-2.4807482426709466,5.202119615342882,0.13570149739583334,-3.664059109157986,1.2168,0.641,1.8854,0.02485,-0.02648,-0.0233,0.0009192346478812397,0.0009999030735343695,0.0009066357742995024,0.0004652103816624731,0.0004999310476705432,0.00047221267595887184,0.011169335804879665,0.011333159171044827,0.011565974913537502,passive,1
0.6604,rehab,large_slow,68.6381251568866,-666.6245169635735,273.5401345423977,-177.3885460811298,0.13229020096181573,-149.9840899118122,-42.6214,-0.0076,38.6719,-77.3928,0.0462,58.4567,83.41056899269029,29.24697196129525,85.18951113861387,-26.485485500759548,-89.06172858344183,-36.68896145290798,-3.754754396948484,-2.8296661376953125,-2.588830324682859,5.514009263780382,0.13570149739583334,-3.9354705810546875,1.3377,0.6037,1.9054,0.02882,-0.03201,-0.02205,0.0009192346478812397,0.0009999030735343695,0.0009066357742995024,0.0004652103816624731,0.0004999310476705432,0.00047221267595887184,0.011169335804879665,0.011333159171044827,0.011565974913537502,passive,1
0.6808,rehab,large_slow,67.92072128375301,-666.6256054880439,274.1797299026001,-177.3893033431207,0.13282201420056772,-149.98425800780927,-44.6316,-0.0285,40.1633,-96.1298,-0.0999,76.2467,83.347696738668,29.202897477858137,85.14834640049698,-26.397518581814236,-89.05987209743924,-36.75066630045573,-3.918006066048499,-2.7208362239422184,-2.6896040510423114,5.422473483615451,0.13570149739583334,-3.8676198323567705,1.3132,0.5564,1.9454,0.01951,-0.03412,-0.03006,0.0009192346478812397,0.0009999030735343695,0.0009066357742995024,0.0004652103816624731,0.0004999310476705432,0.00047221267595887184,0.011169335804879665,0.011333159171044827,0.011565974913537502,passive,1
0.7007,rehab,large_slow,66.82385273836725,-666.631153451079,275.1525733866819,-177.39096707207145,0.13403018947549783,-149.98429267548642,-47.1241,-0.0181,42.2016,-96.6291,-0.0816,77.2713,83.25160715839651,29.13673476417466,85.08408725851834,-26.26227484809028,-89.05702379014757,-36.84518602159288,-3.9724210229250465,-2.7752511808187657,-2.7470579241762065,5.604587131076388,0.13570149739583334,-4.139031304253472,1.2304,0.4873,2.0489,0.01309,-0.02749,-0.0283,0.0009192346478812397,0.0009999030735343695,0.0009066357742995024,0.0004652103816624731,0.0004999310476705432,0.00047221267595887184,0.011169335804879665,0.011333159171044827,0.011565974913537502,passive,1
0.7206,rehab,large_slow,66.0767441400551,-666.6341251364138,275.8198020255605,-177.39144206718777,0.13440398988562235,-149.98371760689957,-48.9947,-0.0073,43.7821,-73.2097,0.0229,57.4275,83.18614468716159,29.091511339244274,85.04008075978496,-26.170535617404514,-89.0550316704644,-36.910179985894096,-3.9724210229250465,-2.8296661376953125,-2.8338471969755568,5.926276312934028,0.13570149739583334,-3.8676198323567705,1.0783,0.5669,1.9064,0.01474,-0.02131,-0.02375,0.0009192346478812397,0.0009999030735343695,0.0009066357742995024,0.0004652103816624731,0.0004999310476705432,0.00047221267595887184,0.011169335804879665,0.011333159171044827,0.011565974913537502,passive,1
0.7404,rehab,large_slow,64.7245138968294,-666.6337629500331,277.02683101831315,-177.39136553662956,0.1343841944415765,-149.9847369613457,-50.9471,0.0001,45.4514,-36.2586,0.1798,27.0143,83.06762015465462,29.009419809473624,84.96142925602375,-26.0064697265625,-89.05148824055989,-37.025816175672745,-4.353339318001624,-3.047339562142249,-2.918202617380879,5.962371826171875,0.13570149739583334,-4.071180555555555,1.0563,0.4656,1.3449,0.02558,-0.02085,-0.01998,0.0009192346478812397,0.0009999030735343695,0.0009066357742995024,0.0004652103816624731,0.0004999310476705432,0.00047221267595887184,0.011169335804879665,0.011333159171044827,0.011565974913537502,passive,1
0.7607,rehab,large_slow,63.92909164869008,-666.6295912486721,277.7392176236892,-177.39052315874787,0.1337896497869925,-149.98659365451365,-51.389,0.0047,45.7286,-1.1066,0.2352,-0.7628,82.99786784861347,28.960742761593053,84.91578432593015,-25.911212497287327,-89.04942830403645,-37.092624240451386,-4.571005943978187,-3.047339562142249,-2.846811879979502,5.8728281656901045,0.13570149739583334,-4.071180555555555,1.1429,0.5792,1.8971,0.03752,-0.01932,-0.01788,0.0009192346478812397,0.0009999030735343695,0.0009066357742995024,0.0004652103816624731,0.0004999310476705432,0.00047221267595887184,0.011169335804879665,0.011333159171044827,0.011565974913537502,passive,1
0.7805,rehab,large_slow,62.73608674342111,-666.6249738621958,278.81550905356755,-177.38896226049062,0.1326580047090194,-149.98735063921913,-50.3644,-0.0018,44.6747,26.1994,-0.0269,-22.9739,82.89325978496286,28.88795833776493,84.84574648413327,-25.76730516221788,-89.04628329806857,-37.194832695855034,-4.4077542748781715,-3.047339562142249,-3.000443713499768,6.041971842447916,0.20355224609375,-4.139031304253472,1.1049,0.6297,2.2722,0.03002,-0.02664,-0.02056,0.0009192346478812397,0.0009999030735343695,0.0009066357742995024,0.0004652103816624731,0.0004999310476705432,0.00047221267595887184,0.011169335804879665,0.011333159171044827,0.011565974913537502,passive,1
0.8005,rehab,large_slow,61.94716532404855,-666.6256704439563,279.52147900180165,-177.38919147426122,0.13283960670338757,-149.98662779538452,-48.567,-0.0045,43.069,39.3368,-0.3713,-33.7834,82.82411934125541,28.841089683003943,84.79782406646426,-25.670191446940102,-89.044189453125,-37.263590494791664,-4.298924361125077,-2.938502849918781,-2.9757720645111387,5.958404541015625,0.13570149739583334,-4.342592027452257,1.2372,0.5928,3.1093,0.03597,-0.02997,-0.02556,0.0009192346478812397,0.0009999030735343695,0.0009066357742995024,0.0004652103816624731,0.0004999310476705432,0.00047221267595887184,0.011169335804879665,0.011333159171044827,0.011565974913537502,passive,1
0.821,rehab,large_slow,60.744151805128936,-666.629822960287,280.5741593630024,-177.3903932581094,0.13377387640848593,-149.9868193519547,-47.7432,-0.0096,42.475,31.9858,-0.5328,-25.9272,82.71873625198214,28.77187445612237,84.72491047169902,-25.523478190104164,-89.04103597005208,-37.36711290147569,-4.516590987101639,-2.7752511808187657,-3.024034405698871,6.178631252712673,0.13570149739583334,-4.342592027452257,1.1062,0.5101,2.4935,0.04123,-0.04362,-0.02089,0.0009192346478812397,0.0009999030735343695,0.0009066357742995024,0.0004652103816624731,0.0004999310476705432,0.00047221267595887184,0.011169335804879665,0.011333159171044827,0.011565974913537502,passive,1
0.8406,rehab,large_slow,59.931512215689985,-666.6335584829859,281.2775332281504,-177.3908000801816,0.134124912890952,-149.98791384626728,-47.6513,-0.0118,42.5861,5.632,-0.4659,-1.0285,82.6475698641031,28.72591679639155,84.67592749265161,-25.42595757378472,-89.0389166937934,-37.43607415093316,-4.516590987101639,-2.7208362239422184,-3.159514323319539,6.001349555121528,0.13570149739583334,-4.206882052951388,1.068,0.4597,2.1627,0.03897,-0.03523,-0.02507,0.0009192346478812397,0.0009999030735343695,0.0009066357742995024,0.0004652103816624731,0.0004999310476705432,0.00047221267595887184,0.011169335804879665,0.011333159171044827,0.011565974913537502,passive,1
0.8605,rehab,large_slow,59.12549909841725,-666.635411584842,281.989192128923,-177.39072228199305,0.1339986865566171,-149.98808911018227,-47.6851,-0.0281,42.6533,-26.988,-0.1915,27.5476,82.57697454773553,28.679551228438275,84.62642782985574,-25.328174167209202,-89.03687371148003,-37.505382961697045,-4.4077542748781715,-3.047339562142249,-3.0146321211711014,5.992999606662326,0.13570149739583334,-4.071180555555555,1.1482,0.3012,2.604,0.03526,-0.02946,-0.02612,0.0009192346478812397,0.0009999030735343695,0.0009066357742995024,0.0004652103816624731,0.0004999310476705432,0.00047221267595887184,0.011169335804879665,0.011333159171044827,0.011565974913537502,passive,1
0.8805,rehab,large_slow,57.93851012368166,-666.6323493644934,283.07358357524146,-177.38955767861384,0.1331111357197321,-149.9865155852793,-48.4033,-0.0515,43.2205,-49.2516,0.0969,44.6127,82.47292395865563,28.608969509011448,84.55141350774481,-25.18095228407118,-89.03372870551215,-37.60932922363281,-4.190087648901609,-2.938502849918781,-3.2167234515199565,6.074303521050347,0.13570149739583334,-4.342592027452257,1.1145,0.2096,2.2272,0.04222,-0.02841,-0.02007,0.0009192346478812397,0.0009999030735343695,0.0009066357742995024,0.0004652103816624731,0.0004999310476705432,0.00047221267595887184,0.011169335804879665,0.011333159171044827,0.011565974913537502,passive,1
0.9009,rehab,large_slow,57.153546165640726,-666.6272897683986,283.79813121006566,-177.38887744465922,0.13260719263077161,-149.98487146139777,-49.9257,-0.045,44.605,-56.1506,0.3512,47.4128,82.40407584917428,28.561856109316984,84.50120000555964,-25.082405938042534,-89.0316179063585,-37.67869737413194,-4.244502605778156,-2.8296661376953125,-3.103685284605121,6.1602020263671875,0.13570149739583334,-4.342592027452257,1.1773,0.3228,2.7244,0.04673,-0.03571,-0.0278,0.0009192346478812397,0.0009999030735343695,0.0009066357742995024,0.0004652103816624731,0.0004999310476705432,0.00047221267595887184,0.011169335804879665,0.011333159171044827,0.011565974913537502,passive,1
0.9207,rehab,large_slow,55.963198444968604,-666.6283955717557,284.86604466011266,-177.38866237431918,0.1324759741261502,-149.9843245173753,-51.9747,-0.0222,46.4547,-42.8274,0.5359,33.7852,82.29979411210164,28.493728637695312,84.42473760925897,-24.934989081488716,-89.02848137749565,-37.78184678819444,-4.244502605778156,-2.7752511808187657,-3.269880691377243,6.112052069769965,0.06785074869791667,-4.139031304253472,0.9828,0.3646,2.2995,0.03311,-0.03061,-0.01954,0.0009192346478812397,0.0009999030735343695,0.0009066357742995024,0.0004652103816624731,0.0004999310476705432,0.00047221267595887184,0.011169335804879665,0.011333159171044827,0.011565974913537502,passive,1
0.9404,rehab,large_slow,55.16102005438282,-666.6314593049273,285.5668075887642,-177.38950348074724,0.13304994876590173,-149.98414890583112,-52.6079,0.005,46.8683,-13.3983,0.6313,7.6743,82.22956591313428,28.449552177202584,84.37329358393603,-24.83628167046441,-89.02645534939236,-37.85113016764323,-4.4077542748781715,-2.8296661376953125,-3.30699354115099,6.01729498969184,0.06785074869791667,-4.342592027452257,1.0493,0.3407,1.6517,0.03697,-0.03534,-0.01848,0.0009192346478812397,0.0009999030735343695,0.0009066357742995024,0.0004652103816624731,0.0004999310476705432,0.00047221267595887184,0.011169335804879665,0.011333159171044827,0.011565974913537502,passive,1
0.9607,rehab,large_slow,53.752702580838935,-666.639745633397,286.7862816699351,-177.39103718413287,0.13424631007488783,-149.98480617223024,-52.2882,0.0183,46.2662,20.3532,0.6031,-23.9146,82.10630964524675,28.37355887535775,84.28234364726755,-24.663781060112846,-89.0228271484375,-37.97176784939236,-4.462176030225093,-2.7208362239422184,-3.30534831132039,6.05820549858941,0.13570149739583334,-4.546152750651042,0.8459,0.3415,1.5075,0.03053,-0.03021,-0.01616,0.0009192346478812397,0.0009999030735343695,0.0009066357742995024,0.0004652103816624731,0.0004999310476705432,0.00047221267595887184,0.011169335804879665,0.011333159171044827,0.011565974913537502,passive,1
0.9807,rehab,large_slow,52.9512181626419,-666.6383761419071,287.49753384906506,-177.39072612236328,0.13405899059464182,-149.9845636397958,-51.8132,0.0183,45.6957,43.6547,0.1706,-51.8781,82.03608824474976,28.328845335705445,84.23051890760365,-24.56552293565538,-89.02069939507378,-38.041110568576386,-4.462176030225093,-2.8296661376953125,-3.216335938708617,6.151996188693576,0.13570149739583334,-4.274732801649305,1.0108,0.3459,2.5202,0.04008,-0.05012,-0.02186,0.0009192346478812397,0.0009999030735343695,0.0009066357742995024,0.0004652103816624731,0.0004999310476705432,0.00047221267595887184,0.011169335804879665,0.011333159171044827,0.011565974913537502,passive,1
1.0004,rehab,large_slow,51.76774268266318,-666.6318870958437,288.5577035552083,-177.390420502351,0.13384707164776208,-149.98421049716322,-50.3911,0.0158,44.2656,49.3328,-0.5725,-67.4588,81.93235718377746,28.262247519918006,84.15318630709507,-24.418885972764755,-89.01760525173611,-38.14352247450087,-4.353339318001624,-2.8296661376953125,-3.069291822981126,5.923249986436632,0.13570149739583334,-4.206882052951388,1.0659,0.2981,2.9059,0.03792,-0.04283,-0.02628,0.0009192346478812397,0.0009999030735343695,0.0009066357742995024,0.0004652103816624731,0.0004999310476705432,0.00047221267595887184,0.011169335804879665,0.011333159171044827,0.011565974913537502,passive,1
1.0205,rehab,large_slow,50.97137437574325,-666.6275373305434,289.26128451112237,-177.39011939444933,0.13352919644095573,-149.98415160936617,-48.1339,0.0019,41.9965,37.4091,-1.1318,-67.1062,81.86257768385481,28.21824102118464,84.10164710318688,-24.321704440646702,-89.01560465494792,-38.2122548421224,-4.353339318001624,-2.8296661376953125,-3.2041666767384744,6.023907131618923,0.13570149739583334,-4.274732801649305,0.9115,0.2343,2.245,0.03303,-0.03478,-0.01681,0.0009192346478812397,0.0009999030735343695,0.0009066357742995024,0.0004652103816624731,0.0004999310476705432,0.00047221267595887184,0.011169335804879665,0.011333159171044827,0.011565974913537502,passive,1
1.0406,rehab,large_slow,49.777039946704015,-666.626380093456,290.29477501391364,-177.38973607087885,0.13324253046099607,-149.9840374760152,-47.2512,-0.0099,40.464,8.7936,-1.1173,-53.8068,81.75799001561533,28.154518958365564,84.02443007667466,-24.178136189778645,-89.01249355740018,-38.315319485134545,-4.462176030225093,-2.6664212670656715,-3.2085516901299505,5.811225043402778,0.13570149739583334,-4.274732801649305,1.0311,0.3065,2.2943,0.04036,-0.03597,-0.02176,0.0009192346478812397,0.0009999030735343695,0.0009066357742995024,0.0004652103816624731,0.0004999310476705432,0.00047221267595887184,0.011169335804879665,0.011333159171044827,0.011565974913537502,passive,1
1.0605,rehab,large_slow,48.97802645085197,-666.6309851666159,290.9691103608961,-177.38940678327822,0.1330166655851232,-149.9836778178854,-48.0869,-0.039,39.8928,-23.6505,-0.5281,-37.1968,81.68809494169632,28.113741733060024,83.97280249265161,-24.084040323893227,-89.01038275824652,-38.384501139322914,-4.462176030225093,-2.503169597965656,-3.2254118966584158,5.882661607530382,0.06785074869791667,-4.274732801649305,1.0493,0.2055,2.8152,0.03663,-0.04638,-0.02878,0.0009192346478812397,0.0009999030735343695,0.0009066357742995024,0.0004652103816624731,0.0004999310476705432,0.00047221267595887184,0.011169335804879665,0.011333159171044827,0.011565974913537502,passive,1
1.0807,rehab,large_slow,48.177506892087855,-666.6361255915646,291.62789205878966,-177.3891370410334,0.1327436603005161,-149.98343693604627,-49.6643,-0.0844,39.7091,-43.6489,0.3006,-28.1239,81.61809789072169,28.074052263014387,83.92213349295135,-23.99197048611111,-89.00833977593315,-38.45369127061632,-4.353339318001624,-2.3943328857421875,-3.093004887646968,5.860036214192708,0.06785074869791667,-4.274732801649305,0.8925,0.341,2.7936,0.04139,-0.04153,-0.02074,0.0009192346478812397,0.0009999030735343695,0.0009066357742995024,0.0004652103816624731,0.0004999310476705432,0.00047221267595887184,0.011169335804879665,0.011333159171044827,0.011565974913537502,passive,1
1.1006,rehab,large_slow,46.96361409159516,-666.6411282899847,292.58041804549026,-177.3895408242643,0.13309955935017803,-149.98461134286202,-50.6166,-0.0904,39.2529,-47.7695,0.8713,-29.5935,81.51193297735536,28.016408032710007,83.84890037007851,-23.857421875,-89.0051778157552,-38.55714586046007,-4.298924361125077,-2.3399179288656407,-2.9782467077274135,5.691935221354167,0.20355224609375,-4.546152750651042,0.9485,0.1839,2.2539,0.04269,-0.03983,-0.01882,0.0009192346478812397,0.0009999030735343695,0.0009066357742995024,0.0004652103816624731,0.0004999310476705432,0.00047221267595887184,0.011169335804879665,0.011333159171044827,0.011565974913537502,passive,1
1.1208,rehab,large_slow,46.15582117600383,-666.6387574713111,293.1947374126383,-177.39042146339182,0.13381592477458817,-149.98527514023317,-51.6482,-0.0394,38.7954,-32.4934,0.9741,-45.7273,81.45896609466855,27.988207977597074,83.81357551801322,-23.791766696506077,-89.00359259711371,-38.60899183485243,-4.4077542748781715,-2.3943328857421875,-2.8257978080522896,5.3536224365234375,0.13570149739583334,-4.274732801649305,1.0587,0.1944,2.9294,0.0474,-0.04134,-0.02105,0.0009192346478812397,0.0009999030735343695,0.0009066357742995024,0.0004652103816624731,0.0004999310476705432,0.00047221267595887184,0.011169335804879665,0.011333159171044827,0.011565974913537502,passive,1
1.1405,rehab,large_slow,44.73119873493887,-666.6349927424704,294.2393566242673,-177.39038947868457,0.1336990964242542,-149.98736199641718,-53.0821,0.0318,38.4264,0.6542,0.8424,-73.3206,81.31657213267714,27.91441738015354,83.7238900968344,-23.623614841037327,-88.99944729275174,-38.74708387586806,-4.571005943978187,-2.2855029719890934,-2.8388508711711014,5.01524183485243,0.06785074869791667,-4.410442776150173,0.9519,0.1499,2.7022,0.05077,-0.05665,-0.02246,0.0009192346478812397,0.0009999030735343695,0.0009066357742995024,0.0004652103816624731,0.0004999310476705432,0.00047221267595887184,0.011169335804879665,0.011333159171044827,0.011565974913537502,passive,1
1.1607,rehab,large_slow,43.91997345818319,-666.6336075218874,294.81656268503906,-177.38951244372166,0.13294092866891227,-149.98806588318246,-52.1219,0.0745,36.4643,30.5242,0.6704,-96.8377,81.24561649737971,27.87897015562152,83.68087617477568,-23.544201321072048,-88.99736192491319,-38.816426595052086,-4.516590987101639,-2.067836346012531,-2.5925354910368967,4.900826348198785,0.13570149739583334,-4.206882052951388,0.8736,0.1994,2.5241,0.04873,-0.04909,-0.01772,0.0009192346478812397,0.0009999030735343695,0.0009066357742995024,0.0004652103816624731,0.0004999310476705432,0.00047221267595887184,0.011169335804879665,0.011333159171044827,0.011565974913537502,passive,1
1.1808,rehab,large_slow,42.724507380844365,-666.6355563913922,295.6506037654199,-177.387175702826,0.13111271513395492,-149.9880247347013,-50.1763,0.0626,33.3992,44.1074,0.3509,-107.8729,81.14110361231435,27.828301155921256,83.61830305344988,-23.430777655707466,-88.994140625,-38.919677734375,-4.298924361125077,-2.0134145906656093,-2.511572507348391,4.686898125542535,0.06785074869791667,-4.206882052951388,0.838,0.1956,1.9002,0.03326,-0.03232,-0.01803,0.0009192346478812397,0.0009999030735343695,0.0009066357742995024,0.0004652103816624731,0.0004999310476705432,0.00047221267595887184,0.011169335804879665,0.011333159171044827,0.011565974913537502,passive,1
1.2008,rehab,large_slow,41.939424966692656,-666.6344879232113,296.1711901963952,-177.38661122770282,0.13069869581379598,-149.9866239814198,-49.4444,0.0077,31.1453,50.5196,-0.0732,-108.3499,81.0724390615331,27.79645032221728,83.57915746103419,-23.358366224500866,-88.99196200900607,-38.98891025119357,-4.244502605778156,-1.9045846769125154,-2.3473758508663365,4.535124037000868,0.20355224609375,-4.274732801649305,0.8701,0.0355,1.9383,0.01943,-0.03284,-0.02322,0.0009192346478812397,0.0009999030735343695,0.0009066357742995024,0.0004652103816624731,0.0004999310476705432,0.00047221267595887184,0.011169335804879665,0.011333159171044827,0.011565974913537502,passive,1
1.2205,rehab,large_slow,40.75190497417137,-666.6316966120962,296.8850025032767,-177.3885150799538,0.13225452680482658,-149.98559982468365,-48.0678,-0.0222,28.6692,45.4454,-0.2607,-94.4552,80.96859242656443,27.752477815835782,83.52466092251315,-23.25426737467448,-88.98872375488281,-39.09258524576823,-4.298924361125077,-1.795747964689047,-2.2408438200997836,4.30389404296875,0.13570149739583334,-4.546152750651042,0.805,0.0571,2.2573,0.03096,-0.04857,-0.02324,0.0009192346478812397,0.0009999030735343695,0.0009066357742995024,0.0004652103816624731,0.0004999310476705432,0.00047221267595887184,0.011169335804879665,0.011333159171044827,0.011565974913537502,passive,1
1.2406,rehab,large_slow,39.94825183364003,-666.6331604164161,297.3419980099733,-177.38953473169113,0.13306374194471382,-149.9855143662059,-47.2172,-0.0014,26.9244,17.6698,-0.0329,-62.4104,80.8983846230082,27.72460408730082,83.48940405515161,-23.18770514594184,-88.986570570204,-39.16211446126302,-4.625420900854734,-1.686918050935953,-2.145087364876624,4.129638671875,0.06785074869791667,-4.342592027452257,0.6637,0.1268,2.5774,0.0403,-0.03111,-0.01798,0.0009192346478812397,0.0009999030735343695,0.0009066357742995024,0.0004652103816624731,0.0004999310476705432,0.00047221267595887184,0.011169335804879665,0.011333159171044827,0.011565974913537502,passive,1
1.2608,rehab,large_slow,39.1295642705305,-666.6345717656604,297.78652168274755,-177.39056550138008,0.13389971577409615,-149.98740951981873,-48.0374,0.0285,26.6372,-13.0987,0.3813,-28.0057,80.82688511008084,27.697396608862547,83.45523494304997,-23.122889200846355,-88.9844258626302,-39.23097398546007,-4.571005943978187,-1.7413330078125,-2.1194571315652073,4.018851386176215,0.13570149739583334,-4.206882052951388,0.603,0.0175,3.0101,0.02979,-0.04829,-0.01487,0.0009192346478812397,0.0009999030735343695,0.0009066357742995024,0.0004652103816624731,0.0004999310476705432,0.00047221267595887184,0.011169335804879665,0.011333159171044827,0.011565974913537502,passive,1
1.2807,rehab,large_slow,37.90964371406962,-666.6363167466196,298.44694765138684,-177.39102871467674,0.1342613269219571,-149.9896901091596,-48.1253,0.0523,26.2924,-27.6367,0.5526,-6.5936,80.72035987778466,27.657081679542465,83.40480388981281,-23.02838643391927,-88.98122151692708,-39.3341318766276,-4.516590987101639,-1.6325030940594059,-2.0944183651763613,3.8875918918185763,0.13570149739583334,-4.342592027452257,0.6917,-0.081,1.9424,0.03492,-0.05553,-0.01167,0.0009192346478812397,0.0009999030735343695,0.0009066357742995024,0.0004652103816624731,0.0004999310476705432,0.00047221267595887184,0.011169335804879665,0.011333159171044827,0.011565974913537502,passive,1
1.3007,rehab,large_slow,37.112766521504184,-666.6339231280314,298.88387247992773,-177.390855340297,0.13414727997542486,-149.98953623942444,-48.5946,0.0573,26.4639,-42.1123,0.1629,9.1709,80.65072314573986,27.63018013227104,83.37202166566755,-22.966783311631943,-88.97904290093315,-39.40321180555556,-4.298924361125077,-1.686918050935953,-2.0566664591874226,3.8150956895616317,0.13570149739583334,-4.274732801649305,0.4845,-0.0513,2.204,0.02976,-0.04923,-0.02017,0.0009192346478812397,0.0009999030735343695,0.0009066357742995024,0.0004652103816624731,0.0004999310476705432,0.00047221267595887184,0.011169335804879665,0.011333159171044827,0.011565974913537502,passive,1
1.3206,rehab,large_slow,35.93821206634649,-666.6294420331532,299.538351094466,-177.38977578470144,0.13330166641421526,-149.98713055375066,-50.1831,0.0524,27.1251,-51.0783,-0.6491,17.4707,80.54807304155709,27.590103149414062,83.32295710497563,-22.875807020399304,-88.97576226128471,-39.50721740722656,-4.190087648901609,-1.7413330078125,-2.0351560989228807,3.7359110514322915,0.13570149739583334,-4.342592027452257,0.45,-0.0545,2.2631,0.02626,-0.03663,-0.01332,0.0009192346478812397,0.0009999030735343695,0.0009066357742995024,0.0004652103816624731,0.0004999310476705432,0.00047221267595887184,0.011169335804879665,0.011333159171044827,0.011565974913537502,passive,1
1.3405,rehab,large_slow,35.14804345246531,-666.6286393581179,299.9800667726623,-177.3880228000071,0.13186590271440868,-149.9861791130373,-51.4836,0.0325,27.6251,-40.5789,-1.3186,13.0751,80.47906856725712,27.563412354724242,83.28977377107827,-22.816060384114582,-88.97359212239583,-39.57648383246528,-4.244502605778156,-1.5780813387124846,-2.0494804760017016,3.772735595703125,0.13570149739583334,-4.139031304253472,0.5339,-0.0747,2.4281,0.02799,-0.04802,-0.01456,0.0009192346478812397,0.0009999030735343695,0.0009066357742995024,0.0004652103816624731,0.0004999310476705432,0.00047221267595887184,0.011169335804879665,0.011333159171044827,0.011565974913537502,passive,1
1.3606,rehab,large_slow,33.96753508134956,-666.6281786324741,300.6110443329959,-177.38766048527026,0.13155761272818184,-149.98458092057697,-51.2595,-0.0043,27.1858,-21.4193,-1.5155,5.0846,80.3760037563815,27.525687642616802,83.24070921038637,-22.726542154947918,-88.97036234537761,-39.680116441514755,-4.244502605778156,-1.5236663818359375,-2.062785082524366,3.760223388671875,0.13570149739583334,-4.410442776150173,0.4836,-0.1431,1.8704,0.02176,-0.04142,-0.01395,0.0009192346478812397,0.0009999030735343695,0.0009066357742995024,0.0004652103816624731,0.0004999310476705432,0.00047221267595887184,0.011169335804879665,0.011333159171044827,0.011565974913537502,passive,1
1.3804,rehab,large_slow,33.18011169859013,-666.6275838185142,301.0255951550589,-177.38795902753964,0.13174496467580793,-149.9834703397313,-51.9092,-0.0429,27.2582,3.9017,-1.1632,-3.8056,80.30727122089651,27.501083978331916,83.20794738165223,-22.66668531629774,-88.96825154622395,-39.74927266438802,-4.353339318001624,-1.4692514249593904,-1.9998992315613398,3.8178507486979165,0.13570149739583334,-4.139031304253472,0.3819,-0.0913,1.8983,0.0421,-0.04017,-0.0114,0.0009192346478812397,0.0009999030735343695,0.0009066357742995024,0.0004652103816624731,0.0004999310476705432,0.00047221267595887184,0.011169335804879665,0.011333159171044827,0.011565974913537502,passive,1
1.4004,rehab,large_slow,31.78424055345474,-666.6328995567989,301.7341358472007,-177.39024623616456,0.13372152172611318,-149.9825194773506,-52.7366,-0.0743,27.6345,26.7523,-0.3975,-9.3436,80.18553101190246,27.460238768322633,83.14915420985457,-22.560255262586804,-88.96441989474826,-39.87074110243056,-4.462176030225093,-1.4692514249593904,-2.1103675766746597,3.8912200927734375,0.13570149739583334,-4.342592027452257,0.2771,-0.0784,2.2518,0.03494,-0.04116,-0.01253,0.0009192346478812397,0.0009999030735343695,0.0009066357742995024,0.0004652103816624731,0.0004999310476705432,0.00047221267595887184,0.011169335804879665,0.011333159171044827,0.011565974913537502,passive,1
1.4205,rehab,large_slow,30.97596132071568,-666.6345579884688,302.15250398103285,-177.39110032770975,0.13442900717068246,-149.98311520320263,-51.2468,-0.0825,27.0413,32.6382,0.4533,-6.7654,80.11504447106087,27.43618578013807,83.11461798035272,-22.49840630425347,-88.96228366427951,-39.93992275661892,-4.353339318001624,-1.360414712735922,-2.2332839210434714,3.895111083984375,0.13570149739583334,-4.274732801649305,0.2956,-0.2326,1.9191,0.01806,-0.0408,-0.01401,0.0009192346478812397,0.0009999030735343695,0.0009066357742995024,0.0004652103816624731,0.0004999310476705432,0.00047221267595887184,0.011169335804879665,0.011333159171044827,0.011565974913537502,passive,1
1.4408,rehab,large_slow,29.76682871442591,-666.6358520710153,302.79538958153194,-177.39178755186236,0.13502381918206763,-149.98402677189335,-49.8193,-0.0571,26.703,27.9409,1.2632,-1.5658,80.00960019555423,27.399494435527536,83.06145394202507,-22.404420640733505,-88.95907931857639,-40.04337734646267,-4.4077542748781715,-1.5780813387124846,-2.3286868558071627,3.906580607096354,0.13570149739583334,-4.342592027452257,0.1666,-0.2381,1.9224,0.00887,-0.04541,-0.01111,0.0009192346478812397,0.0009999030735343695,0.0009066357742995024,0.0004652103816624731,0.0004999310476705432,0.00047221267595887184,0.011169335804879665,0.011333159171044827,0.011565974913537502,passive,1
1.4607,rehab,large_slow,28.957169185014415,-666.6342998790863,303.2360538694014,-177.39168165278286,0.13495105658348078,-149.98488365031636,-48.5175,-0.0069,26.4533,24.0628,1.864,-0.8648,79.93897088683478,27.374272110438582,83.02542884751122,-22.34114752875434,-88.95694308810764,-40.11242336697048,-4.298924361125077,-1.5236663818359375,-2.2570445750019337,3.824666341145833,0.20355224609375,-4.410442776150173,0.1511,-0.236,1.9175,0.02176,-0.03582,-0.00518,0.0009192346478812397,0.0009999030735343695,0.0009066357742995024,0.0004652103816624731,0.0004999310476705432,0.00047221267595887184,0.011169335804879665,0.011333159171044827,0.011565974913537502,passive,1
1.4811,rehab,large_slow,27.751399828401293,-666.6344197550345,303.90547990909096,-177.39081432446775,0.13425886631438355,-149.98523043756558,-48.3403,0.0518,26.672,10.9124,2.1155,0.1276,79.83383934096534,27.336642576916383,82.96997372466738,-22.24593268500434,-88.95373026529948,-40.21611531575521,-4.4077542748781715,-1.5780813387124846,-2.2948304733427443,3.9702945285373263,0.13570149739583334,-4.342592027452257,0.2247,-0.3543,1.521,0.03304,-0.03598,-0.00269,0.0009192346478812397,0.0009999030735343695,0.0009066357742995024,0.0004652103816624731,0.0004999310476705432,0.00047221267595887184,0.011169335804879665,0.011333159171044827,0.011565974913537502,passive,1
1.5008,rehab,large_slow,26.958718008150342,-666.6343800073522,304.3575415016611,-177.38954289092234,0.13317779474044308,-149.9838714823791,-49.7956,0.0866,27.4359,-22.3196,1.7216,9.4391,79.76473288960976,27.311447445708925,82.93252774984529,-22.18277825249566,-88.95159403483073,-40.28585645887587,-4.4077542748781715,-1.5236663818359375,-2.3184483594233445,3.897060818142361,0.13570149739583334,-4.342592027452257,0.2012,-0.1161,1.4823,0.03462,-0.0394,-0.00872,0.0009192346478812397,0.0009999030735343695,0.0009066357742995024,0.0004652103816624731,0.0004999310476705432,0.00047221267595887184,0.011169335804879665,0.011333159171044827,0.011565974913537502,passive,1
1.5204,rehab,large_slow,26.16726533039002,-666.6338037952222,304.7951972622347,-177.3890230994998,0.13274067994574562,-149.9837101829366,-50.2198,0.1008,27.3839,-44.9281,0.563,13.5942,79.69574201225053,27.287156511061262,82.89578201747176,-22.120276557074654,-88.94949171278212,-40.35429212782118,-4.298924361125077,-1.4692514249593904,-2.3940949392790842,3.909471299913194,0.13570149739583334,-4.274732801649305,0.1674,-0.1462,1.7657,0.02119,-0.04231,-0.00695,0.0009192346478812397,0.0009999030735343695,0.0009066357742995024,0.0004652103816624731,0.0004999310476705432,0.00047221267595887184,0.011169335804879665,0.011333159171044827,0.011565974913537502,passive,1
1.5406,rehab,large_slow,24.966091780709267,-666.6275411167605,305.44498551832584,-177.38849603438422,0.13234178379921183,-149.9850534892846,-50.3047,0.1124,27.0839,-38.5062,-0.9548,5.1768,79.59097758378132,27.250635128210085,82.84183615505106,-22.027257283528645,-88.94631279839409,-40.456644694010414,-4.462176030225093,-1.360414712735922,-2.2377913069016864,3.819571601019965,0.20355224609375,-4.274732801649305,0.2711,-0.2286,1.8038,0.04599,-0.05536,-0.00592,0.0009192346478812397,0.0009999030735343695,0.0009066357742995024,0.0004652103816624731,0.0004999310476705432,0.00047221267595887184,0.011169335804879665,0.011333159171044827,0.011565974913537502,passive,1
1.5606,rehab,large_slow,23.958422323864472,-666.6269698494597,305.9780395577485,-177.38819015453012,0.13203983623392512,-149.98581821673605,-51.0707,0.1026,27.1031,-14.2977,-2.1328,-8.3714,79.50319573430731,27.221490085715114,82.79624561272045,-21.950242784288193,-88.9437018500434,-40.54278055826823,-4.462176030225093,-1.4692514249593904,-2.2568814117129485,3.8362799750434027,0.06785074869791667,-4.47829352484809,0.0258,-0.2501,1.8704,0.02262,-0.03748,-0.00674,0.0009192346478812397,0.0009999030735343695,0.0009066357742995024,0.0004652103816624731,0.0004999310476705432,0.00047221267595887184,0.011169335804879665,0.011333159171044827,0.011565974913537502,passive,1
1.5807,rehab,large_slow,22.738344255479234,-666.6257413657806,306.6097780686385,-177.388329817993,0.13213446217003819,-149.9872424549505,-52.7905,0.0469,27.6563,18.6436,-2.6427,-22.7793,79.39692884388536,27.18721899655786,82.74155191855856,-21.85784233940972,-88.94053988986545,-40.646565755208336,-4.4077542748781715,-1.4148296696124691,-2.25576646257155,3.721220228407118,0.13570149739583334,-4.546152750651042,-0.0861,-0.3068,1.9344,0.01075,-0.03909,-0.0034,0.0009192346478812397,0.0009999030735343695,0.0009066357742995024,0.0004652103816624731,0.0004999310476705432,0.00047221267595887184,0.011169335804879665,0.011333159171044827,0.011565974913537502,passive,1
1.6006,rehab,large_slow,21.930012249709698,-666.6248162107471,307.03216652578556,-177.38837803865496,0.13221191476225952,-149.98797044588042,-52.7824,-0.047,27.4613,38.9691,-2.5627,-29.2812,79.32653068315865,27.164546097859297,82.70462942595529,-21.795984903971355,-88.9384036593967,-40.715527004665795,-4.298924361125077,-1.4148296696124691,-2.2861692220857828,3.9316474066840277,0.06785074869791667,-4.342592027452257,0.2369,-0.168,2.3974,0.04177,-0.04621,-0.00598,0.0009192346478812397,0.0009999030735343695,0.0009066357742995024,0.0004652103816624731,0.0004999310476705432,0.00047221267595887184,0.011169335804879665,0.011333159171044827,0.011565974913537502,passive,1
1.6204,rehab,large_slow,20.733934540655266,-666.623880836167,307.66014916179427,-177.38905193974492,0.1327936292306775,-149.9877235986845,-50.0641,-0.1299,25.9399,46.3942,-2.0404,-29.7843,79.22239171396387,27.13135596549157,82.64865761936301,-21.70266893174913,-88.93525017632378,-40.818845960828995,-4.462176030225093,-1.360414712735922,-2.319882836672339,3.950958251953125,0.13570149739583334,-4.342592027452257,0.0115,-0.3873,1.7218,0.01889,-0.04498,-0.0057,0.0009192346478812397,0.0009999030735343695,0.0009066357742995024,0.0004652103816624731,0.0004999310476705432,0.00047221267595887184,0.011169335804879665,0.011333159171044827,0.011565974913537502,passive,1
1.6405,rehab,large_slow,19.93450914194954,-666.6273421234304,308.0739743101234,-177.38961538509304,0.13325352020102638,-149.98761931826016,-48.1325,-0.1596,24.9217,49.1285,-1.037,-29.0678,79.15287735438582,27.110212722627242,82.6105793867961,-21.640540228949654,-88.93317328559027,-40.88775634765625,-4.353339318001624,-1.360414712735922,-2.3790091335183323,3.864652845594618,0.06785074869791667,-4.410442776150173,-0.1751,-0.4194,1.2166,0.01841,-0.03578,0.00507,0.0009192346478812397,0.0009999030735343695,0.0009066357742995024,0.0004652103816624731,0.0004999310476705432,0.00047221267595887184,0.011169335804879665,0.011333159171044827,0.011565974913537502,passive,1
1.6604,rehab,large_slow,18.72118865727667,-666.6337404148065,308.70018399554726,-177.38973712295405,0.1332718576933503,-149.9882893893722,-46.9814,-0.1354,24.3521,38.1159,0.3006,-22.0379,79.04743307887918,27.0785658430345,82.55279238861387,-21.547715928819443,-88.93008761935764,-40.99147372775607,-4.353339318001624,-1.251584798982828,-2.3616390417117885,3.7805006239149304,0.13570149739583334,-4.47829352484809,-0.0614,-0.3664,1.5148,0.03021,-0.04273,0.00109,0.0009192346478812397,0.0009999030735343695,0.0009066357742995024,0.0004652103816624731,0.0004999310476705432,0.00047221267595887184,0.011169335804879665,0.011333159171044827,0.011565974913537502,passive,1
1.6809,rehab,large_slow,17.921764882587585,-666.6404791753496,309.1104634559586,-177.3897788259993,0.133267290488556,-149.9878569192111,-46.8558,-0.1003,24.2178,7.3096,1.516,-5.4683,78.97801389788637,27.058367587552212,82.51410229371325,-21.48660447862413,-88.92801920572917,-41.06062995062934,-4.244502605778156,-1.360414712735922,-2.369980764861154,3.7510511610243054,0.13570149739583334,-4.410442776150173,-0.0896,-0.4542,1.1715,0.01537,-0.03798,-0.00386,0.0009192346478812397,0.0009999030735343695,0.0009066357742995024,0.0004652103816624731,0.0004999310476705432,0.00047221267595887184,0.011169335804879665,0.011333159171044827,0.011565974913537502,passive,1
1.7007,rehab,large_slow,17.133336575492265,-666.6409136755378,309.51936997677933,-177.3898779516418,0.13335153561963603,-149.98698595246253,-47.9052,-0.0654,24.6379,-33.0688,2.005,15.381,78.90945132416074,27.03763225291035,82.47647276019106,-21.42592536078559,-88.92593383789062,-41.129370795355904,-4.244502605778156,-1.360414712735922,-2.371857142684483,3.900722927517361,0.13570149739583334,-4.47829352484809,-0.2506,-0.3951,1.6141,0.00322,-0.03772,-0.00663,0.0009192346478812397,0.0009999030735343695,0.0009066357742995024,0.0004652103816624731,0.0004999310476705432,0.00047221267595887184,0.011169335804879665,0.011333159171044827,0.011565974913537502,passive,1
1.7205,rehab,large_slow,15.953382326697785,-666.6384868957779,310.1294116508363,-177.39014575319058,0.1336255073570915,-149.98534917811972,-48.5005,-0.0229,24.859,-58.6787,1.8227,28.3649,78.80680801844832,27.006631228003172,82.42038537960241,-21.335169474283855,-88.92277187771268,-41.232613457573784,-4.353339318001624,-1.305999755859375,-2.3265453376392324,3.7503814697265625,0.06785074869791667,-4.274732801649305,0.0157,-0.3013,1.6718,0.03777,-0.03997,0.00128,0.0009192346478812397,0.0009999030735343695,0.0009066357742995024,0.0004652103816624731,0.0004999310476705432,0.00047221267595887184,0.011169335804879665,0.011333159171044827,0.011565974913537502,passive,1
1.7409,rehab,large_slow,15.161165936376985,-666.6360867419487,310.5386773451322,-177.39022365834018,0.1337500487185535,-149.98494972812355,-50.0556,0.0248,25.6434,-61.416,1.4297,29.4032,78.7378987227336,26.98592988571318,82.38266746596534,-21.274422539605034,-88.920652601454,-41.30122714572482,-4.135672692025062,-1.360414712735922,-2.3416515388111074,3.8291507297092013,0.13570149739583334,-4.410442776150173,-0.3332,-0.4434,1.8717,0.01792,-0.03546,0.00306,0.0009192346478812397,0.0009999030735343695,0.0009066357742995024,0.0004652103816624731,0.0004999310476705432,0.00047221267595887184,0.011169335804879665,0.011333159171044827,0.011565974913537502,passive,1
1.7605,rehab,large_slow,13.95988026412906,-666.6335869699585,311.14939070210454,-177.3906764810741,0.13402779571633097,-149.98439855739034,-51.428,0.0481,26.3819,-43.9015,1.1577,20.1808,78.63348101625348,26.955506730787825,82.32553991940942,-21.183030870225693,-88.9176008436415,-41.40515645345052,-4.516590987101639,-1.1971630436359066,-2.331684981242265,3.821283976236979,0.13570149739583334,-4.206882052951388,-0.2258,-0.5027,1.4462,0.02528,-0.03804,0.00451,0.0009192346478812397,0.0009999030735343695,0.0009066357742995024,0.0004652103816624731,0.0004999310476705432,0.00047221267595887184,0.011169335804879665,0.011333159171044827,0.011565974913537502,passive,1
1.7808,rehab,large_slow,13.159622354228448,-666.6362895058992,311.55230196300954,-177.39095449632225,0.13430762360471066,-149.98481979802847,-52.2749,0.0395,26.7815,-12.8656,0.9899,3.428,78.56400744749767,26.936205873394957,82.28663907192721,-21.122250027126736,-88.91551547580295,-41.47351582845052,-4.244502605778156,-1.305999755859375,-2.396691954962098,3.8253106011284723,0.13570149739583334,-4.47829352484809,-0.1047,-0.3507,1.3992,0.04143,-0.04197,0.00415,0.0009192346478812397,0.0009999030735343695,0.0009066357742995024,0.0004652103816624731,0.0004999310476705432,0.00047221267595887184,0.011169335804879665,0.011333159171044827,0.011565974913537502,passive,1
1.8008,rehab,large_slow,11.754602552636726,-666.6374163053574,312.2713242256903,-177.38986358633548,0.1334876030272363,-149.98589783240337,-52.6841,0.0404,26.8807,14.0621,0.6616,-12.9202,78.44200209815904,26.901486085192992,82.21843681713142,-21.016854180230034,-88.91180250379774,-41.593237982855904,-4.298924361125077,-1.1971630436359066,-2.4914762289217203,3.7277052137586804,0.13570149739583334,-4.410442776150173,-0.3245,-0.5299,1.2218,0.02903,-0.03496,0.00151,0.0009192346478812397,0.0009999030735343695,0.0009066357742995024,0.0004652103816624731,0.0004999310476705432,0.00047221267595887184,0.011169335804879665,0.011333159171044827,0.011565974913537502,passive,1
1.8208,rehab,large_slow,10.962303730254733,-666.6375002553226,312.67670808478846,-177.3895713837339,0.13324802697386395,-149.98546201124952,-51.8956,0.0662,26.3476,38.6669,0.0263,-29.4097,78.37321517491104,26.8821376385075,82.17949517882697,-20.956743028428818,-88.90972561306424,-41.66177537706163,-4.244502605778156,-1.251584798982828,-2.477756915706219,3.724992540147569,0.06785074869791667,-4.342592027452257,-0.2641,-0.4411,1.715,0.02629,-0.04184,-0.002,0.0009192346478812397,0.0009999030735343695,0.0009066357742995024,0.0004652103816624731,0.0004999310476705432,0.00047221267595887184,0.011169335804879665,0.011333159171044827,0.011565974913537502,passive,1
1.8404,rehab,large_slow,9.775420742728281,-666.6338781078769,313.2913118526821,-177.38850869002314,0.1321510970516479,-149.98378216312807,-50.2715,0.0829,25.3059,51.1295,-0.6485,-38.9133,78.27015036403543,26.852550695438197,82.1212118923074,-20.86706373426649,-88.9067162407769,-41.765501234266495,-4.353339318001624,-1.251584798982828,-2.406080642549118,3.8062625461154513,0.13570149739583334,-4.274732801649305,-0.2568,-0.6369,1.2663,0.01196,-0.04707,-0.00534,0.0009192346478812397,0.0009999030735343695,0.0009066357742995024,0.0004652103816624731,0.0004999310476705432,0.00047221267595887184,0.011169335804879665,0.011333159171044827,0.011565974913537502,passive,1
1.8607,rehab,large_slow,8.98000232615961,-666.6322821099511,313.68739787020974,-177.38858052778878,0.1322254502226777,-149.98360307462048,-48.3971,0.0844,24.0944,44.7395,-1.3133,-36.5641,78.20110509891322,26.833882095790145,82.08263737140315,-20.807512071397568,-88.90464782714844,-41.834047105577255,-4.244502605778156,-1.1427480867593596,-2.3882686501682393,3.641103108723958,0.06785074869791667,-4.342592027452257,-0.1479,-0.4913,1.8768,0.02926,-0.03607,-0.00426,0.0009192346478812397,0.0009999030735343695,0.0009066357742995024,0.0004652103816624731,0.0004999310476705432,0.00047221267595887184,0.011169335804879665,0.011333159171044827,0.011565974913537502,passive,1
1.8808,rehab,large_slow,7.783118246796917,-666.6283850740346,314.27431384206716,-177.38927372661487,0.1328842137294241,-149.98324326677593,-47.995,0.0513,23.5414,26.6049,-1.9143,-26.3768,78.09721087465192,26.806423073948018,82.02487756710241,-20.71801079644097,-88.90151977539062,-41.9372812906901,-4.298924361125077,-1.1427480867593596,-2.3450439755279238,3.7499576144748263,0.13570149739583334,-4.206882052951388,-0.2589,-0.536,1.2346,0.02759,-0.03216,0.00375,0.0009192346478812397,0.0009999030735343695,0.0009066357742995024,0.0004652103816624731,0.0004999310476705432,0.00047221267595887184,0.011169335804879665,0.011333159171044827,0.011565974913537502,passive,1
1.9005,rehab,large_slow,6.977903618686264,-666.6266016778861,314.66401065760607,-177.38956635103813,0.13328090913270868,-149.98363194062594,-47.767,-0.0225,23.0722,-5.0806,-2.0714,-8.3078,78.0273429946144,26.788475112159652,81.98614668137957,-20.65862867567274,-88.89935811360677,-42.00608147515191,-4.4077542748781715,-1.1427480867593596,-2.526393172764542,3.781314425998264,0.13570149739583334,-4.410442776150173,-0.2396,-0.5903,1.1731,0.04128,-0.03742,0.00914,0.0009192346478812397,0.0009999030735343695,0.0009066357742995024,0.0004652103816624731,0.0004999310476705432,0.00047221267595887184,0.011169335804879665,0.011333159171044827,0.011565974913537502,passive,1
1.9205,rehab,large_slow,6.167451341335095,-666.6283685452319,315.04685625675995,-177.39005961723484,0.13366109846755883,-149.9839119693737,-48.1409,-0.0873,23.0386,-34.3428,-1.6026,8.9068,77.95712839258779,26.771485734694075,81.94702828284538,-20.599661933051216,-88.89733208550346,-42.075347900390625,-4.190087648901609,-1.0339181730062654,-2.5164266151956993,3.6464691162109375,0.13570149739583334,-4.274732801649305,-0.2701,-0.6142,1.483,0.03342,-0.03603,-9e-05,0.0009192346478812397,0.0009999030735343695,0.0009066357742995024,0.0004652103816624731,0.0004999310476705432,0.00047221267595887184,0.011169335804879665,0.011333159171044827,0.011565974913537502,passive,1
1.9406,rehab,large_slow,4.954628496561523,-666.6332852558534,315.6284363461541,-177.39017258671257,0.13361400585113342,-149.98477537135255,-49.4863,-0.1238,23.6713,-43.26,-0.7342,15.3292,77.85213961459623,26.74620222337175,81.88714055731745,-20.51110161675347,-88.89436509874132,-42.17847188313802,-4.353339318001624,-1.0339181730062654,-2.5458232010945236,3.7687004937065973,0.13570149739583334,-4.071180555555555,-0.2178,-0.5043,1.3374,0.04175,-0.04114,0.00299,0.0009192346478812397,0.0009999030735343695,0.0009066357742995024,0.0004652103816624731,0.0004999310476705432,0.00047221267595887184,0.011169335804879665,0.011333159171044827,0.011565974913537502,passive,1
1.9605,rehab,large_slow,4.146156690322068,-666.6365193426668,316.01893643662265,-177.38988002485166,0.13337372130805536,-149.98555350362918,-50.6986,-0.1284,24.3125,-46.6289,0.3374,18.253,77.78216295903272,26.72938280766553,81.84685282187887,-20.452151828342014,-88.89230516221788,-42.247000800238716,-4.462176030225093,-1.0339181730062654,-2.5387595903755416,3.683225843641493,0.13570149739583334,-4.206882052951388,-0.3485,-0.6551,1.6283,0.02864,-0.03812,0.00172,0.0009192346478812397,0.0009999030735343695,0.0009066357742995024,0.0004652103816624731,0.0004999310476705432,0.00047221267595887184,0.011169335804879665,0.011333159171044827,0.011565974913537502,passive,1
1.9805,rehab,large_slow,2.930168790867467,-666.640511170626,316.59301653467907,-177.39017123196328,0.13365086566234757,-149.98671454448714,-51.8221,-0.0805,24.8109,-45.7331,1.3389,18.7375,77.67693623457805,26.705003492903,81.78674074682858,-20.36391364203559,-88.88922797309027,-42.35006544325087,-4.244502605778156,-1.0339181730062654,-2.425021181012144,3.6365593804253473,0.13570149739583334,-4.274732801649305,-0.4298,-0.6293,1.4241,0.02201,-0.03687,-0.00232,0.0009192346478812397,0.0009999030735343695,0.0009066357742995024,0.0004652103816624731,0.0004999310476705432,0.00047221267595887184,0.011169335804879665,0.011333159171044827,0.011565974913537502,passive,1
2.0004,rehab,large_slow,2.1246979108651316,-666.6410192275579,316.9825115667742,-177.38973677991848,0.13325914794507474,-149.98742605911795,-52.8986,-0.0166,25.2085,-26.2571,1.8189,9.3702,77.60721792088877,26.688286054252398,81.74656858538637,-20.305387708875866,-88.88719346788194,-42.418407864040795,-4.244502605778156,-1.0339181730062654,-2.5051207589631033,3.710996839735243,0.13570149739583334,-4.410442776150173,-0.3385,-0.6992,1.631,0.0208,-0.03415,0.00304,0.0009192346478812397,0.0009999030735343695,0.0009066357742995024,0.0004652103816624731,0.0004999310476705432,0.00047221267595887184,0.011169335804879665,0.011333159171044827,0.011565974913537502,passive,1
2.0205,rehab,large_slow,0.7475383217118159,-666.6384419568458,317.651187662395,-177.38979739047068,0.13330915452732123,-149.9850103692162,-51.6193,0.0181,24.3914,6.0438,1.8296,-6.7365,77.48797275052212,26.6597052847985,81.67702703192683,-20.203264024522568,-88.8836161295573,-42.538909912109375,-4.190087648901609,-0.9250814607827971,-2.4473201638401143,3.6394161648220487,0.13570149739583334,-4.342592027452257,-0.4735,-0.8124,0.9793,0.01263,-0.04644,-0.00158,0.0009192346478812397,0.0009999030735343695,0.0009066357742995024,0.0004652103816624731,0.0004999310476705432,0.00047221267595887184,0.011169335804879665,0.011333159171044827,0.011565974913537502,passive,1
2.0408,rehab,large_slow,-0.04303270158478867,-666.6382355599518,318.0249628883092,-177.38998242558176,0.13361504157507575,-149.9849571088223,-51.6887,0.0413,24.2893,35.7921,1.6057,-20.8185,77.41955974314472,26.64415718305229,81.63739194964418,-20.145526462131077,-88.88150533040364,-42.60671827528212,-4.353339318001624,-1.0339181730062654,-2.6165408899288365,3.668111165364583,0.13570149739583334,-4.071180555555555,-0.3899,-0.7515,1.4654,0.0246,-0.03952,-0.00191,0.0009192346478812397,0.0009999030735343695,0.0009066357742995024,0.0004652103816624731,0.0004999310476705432,0.00047221267595887184,0.011169335804879665,0.011333159171044827,0.011565974913537502,passive,1
2.0607,rehab,large_slow,-1.2530957140085337,-666.6343467947786,318.5844337535944,-177.39060661356444,0.1342856868976292,-149.98658611865218,-52.8897,0.0603,24.8683,49.9135,1.0323,-26.1698,77.31483610549776,26.620797638845914,81.57807529562771,-20.058602227105034,-88.87841118706596,-42.708825005425346,-4.353339318001624,-0.979496417659344,-2.5409894886583384,3.6963314480251737,0.13570149739583334,-4.139031304253472,-0.5419,-0.6658,1.4628,0.02582,-0.04009,0.00428,0.0009192346478812397,0.0009999030735343695,0.0009066357742995024,0.0004652103816624731,0.0004999310476705432,0.00047221267595887184,0.011169335804879665,0.011333159171044827,0.011565974913537502,passive,1
2.0803,rehab,large_slow,-2.0679374373846073,-666.6330781491965,318.9551563484655,-177.39110339646518,0.1346869201450406,-149.98784695265388,-50.4289,0.063,23.7202,46.8744,0.4077,-23.148,77.24438355700805,26.605725430025913,81.53812748370784,-20.00070359971788,-88.87642754448784,-42.77736239963107,-4.4077542748781715,-0.9250814607827971,-2.524054498955755,3.6658138699001737,0.13570149739583334,-4.47829352484809,-0.4746,-0.6415,1.4923,0.03769,-0.028,0.00641,0.0009192346478812397,0.0009999030735343695,0.0009066357742995024,0.0004652103816624731,0.0004999310476705432,0.00047221267595887184,0.011169335804879665,0.011333159171044827,0.011565974913537502,passive,1
2.1008,rehab,large_slow,-3.283794650455671,-666.6369478743198,319.5197528629566,-177.39078256330203,0.13428236609228755,-149.98882303844306,-48.1398,0.0697,22.5998,33.4023,0.0982,-16.3428,77.13940837595722,26.583650796720296,81.47647215588258,-19.914109971788193,-88.87346903483073,-42.88038465711806,-4.4077542748781715,-0.9250814607827971,-2.5262708002978034,3.6009894476996527,0.13570149739583334,-4.274732801649305,-0.4988,-0.769,1.6007,0.01252,-0.03139,0.00487,0.0009192346478812397,0.0009999030735343695,0.0009066357742995024,0.0004652103816624731,0.0004999310476705432,0.00047221267595887184,0.011169335804879665,0.011333159171044827,0.011565974913537502,passive,1
2.1204,rehab,large_slow,-4.079761132719106,-666.6361475002803,319.90034307384286,-177.39012091034945,0.1336853224428149,-149.98835600397035,-47.39,0.0913,22.2447,21.4244,-0.2117,-12.2197,77.07062825117961,26.568442618492806,81.43564054281404,-19.85671149359809,-88.87143452962239,-42.94898139105903,-4.298924361125077,-0.9250814607827971,-2.4677767611966273,3.4809282090928817,0.13570149739583334,-4.342592027452257,-0.671,-0.8814,1.1394,0.01494,-0.03531,0.00723,0.0009192346478812397,0.0009999030735343695,0.0009066357742995024,0.0004652103816624731,0.0004999310476705432,0.00047221267595887184,0.011169335804879665,0.011333159171044827,0.011565974913537502,passive,1
2.1409,rehab,large_slow,-5.257439093736712,-666.6313098170052,320.471803723894,-177.38899702507874,0.13271303415224647,-149.98659708447857,-47.6419,0.0794,22.3419,5.2576,-0.7351,-7.9908,76.96881435885288,26.545409400864404,81.37471944978921,-19.77087232801649,-88.8683573404948,-43.05157979329427,-4.298924361125077,-0.87066650390625,-2.494073244604734,3.5085890028211804,0.13570149739583334,-4.206882052951388,-0.6176,-0.8458,1.2109,0.01498,-0.0443,0.00527,0.0009192346478812397,0.0009999030735343695,0.0009066357742995024,0.0004652103816624731,0.0004999310476705432,0.00047221267595887184,0.011169335804879665,0.011333159171044827,0.011565974913537502,passive,1
2.1609,rehab,large_slow,-6.047005182796536,-666.6296973231262,320.8431581194067,-177.38881565215246,0.13248505125017446,-149.98585854550092,-49.1776,0.0432,22.9572,-30.8819,-1.1536,5.8603,76.90062570099784,26.530983046729965,81.3340442015393,-19.71381293402778,-88.86639065212674,-43.11986287434896,-4.244502605778156,-0.87066650390625,-2.616071795473004,3.6126454671223955,0.13570149739583334,-4.274732801649305,-0.6773,-0.8848,1.3732,0.00457,-0.04217,-0.00198,0.0009192346478812397,0.0009999030735343695,0.0009066357742995024,0.0004652103816624731,0.0004999310476705432,0.00047221267595887184,0.011169335804879665,0.011333159171044827,0.011565974913537502,passive,1
2.1805,rehab,large_slow,-6.834018710550508,-666.6268076951446,321.2027243029155,-177.38941255406417,0.13298807620074143,-149.9846742616536,-49.553,0.0349,22.9193,-54.4601,-1.3436,15.4535,76.8326477957244,26.517188950340348,81.29400121103419,-19.656940036349827,-88.86441548665364,-43.18838331434462,-4.244502605778156,-0.8162515470297029,-2.495317364683246,3.5324859619140625,0.13570149739583334,-4.206882052951388,-0.5745,-0.8945,1.1691,0.02109,-0.02602,0.00238,0.0009192346478812397,0.0009999030735343695,0.0009066357742995024,0.0004652103816624731,0.0004999310476705432,0.00047221267595887184,0.011169335804879665,0.011333159171044827,0.011565974913537502,passive,1
2.2007,rehab,large_slow,-8.020866824280414,-666.6252194967637,321.740471944412,-177.3902428763141,0.13376331739138086,-149.98345251642024,-50.1162,0.0066,22.8884,-40.8117,-1.269,8.4784,76.73022204106397,26.49724223826191,81.23308011800935,-19.571550157335068,-88.86140611436632,-43.29106648763021,-4.190087648901609,-0.8162515470297029,-2.5835411147315903,3.5622406005859375,0.13570149739583334,-4.206882052951388,-0.5157,-0.9205,1.0631,0.02549,-0.04137,0.00152,0.0009192346478812397,0.0009999030735343695,0.0009066357742995024,0.0004652103816624731,0.0004999310476705432,0.00047221267595887184,0.011169335804879665,0.011333159171044827,0.011565974913537502,passive,1
2.2205,rehab,large_slow,-9.018455607558272,-666.6279176984692,322.19136615882275,-177.39006673070023,0.13364750924701024,-149.98327518893842,-50.9731,-0.0458,23.0029,-14.7851,-0.7808,-3.5657,76.64424858470954,26.48117745276725,81.18140494469368,-19.50119866265191,-88.85887145996094,-43.37642245822482,-4.298924361125077,-0.7074148348062346,-2.6200692960531407,3.4960767957899304,0.20355224609375,-4.274732801649305,-0.6291,-0.8412,0.8245,0.02569,-0.0354,0.00854,0.0009192346478812397,0.0009999030735343695,0.0009066357742995024,0.0004652103816624731,0.0004999310476705432,0.00047221267595887184,0.011169335804879665,0.011333159171044827,0.011565974913537502,passive,1
2.2407,rehab,large_slow,-10.230026951775473,-666.6338756110865,322.7396185671511,-177.38895500578417,0.13257566328051226,-149.98426308624528,-52.1705,-0.0624,23.3384,10.3998,-0.2324,-14.4145,76.53995325069616,26.46216892960048,81.1182471549157,-19.417190551757812,-88.85589599609375,-43.478783501519096,-4.244502605778156,-0.7618297916827815,-2.6625325420115256,3.489710489908854,0.13570149739583334,-4.139031304253472,-0.683,-0.8108,0.8231,0.03251,-0.02887,0.00822,0.0009192346478812397,0.0009999030735343695,0.0009066357742995024,0.0004652103816624731,0.0004999310476705432,0.00047221267595887184,0.011169335804879665,0.011333159171044827,0.011565974913537502,passive,1
2.2608,rehab,large_slow,-11.03083202823599,-666.6336981088881,323.10222342205117,-177.3887570341619,0.13236812000066192,-149.98421429369333,-52.2046,-0.0514,23.2736,28.7324,-0.1799,-21.8665,76.47095557486657,26.449374208355895,81.07657253152072,-19.360741509331596,-88.85391235351562,-43.54719373914931,-4.244502605778156,-0.7618297916827815,-2.5702161127978034,3.516413370768229,0.13570149739583334,-4.206882052951388,-0.7234,-0.7938,1.1147,0.01512,-0.02864,0.0065,0.0009192346478812397,0.0009999030735343695,0.0009066357742995024,0.0004652103816624731,0.0004999310476705432,0.00047221267595887184,0.011169335804879665,0.011333159171044827,0.011565974913537502,passive,1
2.2806,rehab,large_slow,-12.238432159424702,-666.6306745275226,323.63703543128014,-177.3888844873007,0.13242262312391295,-149.9843360351428,-49.8555,-0.0337,22.0804,39.4687,-0.1546,-25.8642,76.3668981873163,26.43060363165223,81.01475404040649,-19.27660624186198,-88.8509538438585,-43.65018208821615,-4.4077542748781715,-0.7074148348062346,-2.643299669322401,3.6301930745442705,0.13570149739583334,-4.342592027452257,-0.6505,-0.9465,0.9504,0.02063,-0.04591,0.0008,0.0009192346478812397,0.0009999030735343695,0.0009066357742995024,0.0004652103816624731,0.0004999310476705432,0.00047221267595887184,0.011169335804879665,0.011333159171044827,0.011565974913537502,passive,1
2.3007,rehab,large_slow,-13.040604406658732,-666.6331015620781,323.9918221372031,-177.3887087434031,0.13233099117272815,-149.98524795177028,-48.1415,-0.0109,21.1508,43.2988,0.2051,-27.1969,76.29788691454594,26.418910262608293,80.97268510572981,-19.220792982313366,-88.84893629286024,-43.7176513671875,-4.353339318001624,-0.7618297916827815,-2.742550538317992,3.4820132785373263,0.13570149739583334,-4.139031304253472,-0.6484,-0.998,0.9231,0.01188,-0.04556,0.00051,0.0009192346478812397,0.0009999030735343695,0.0009066357742995024,0.0004652103816624731,0.0004999310476705432,0.00047221267595887184,0.011169335804879665,0.011333159171044827,0.011565974913537502,passive,1
2.3206,rehab,large_slow,-14.241496051217764,-666.6326259618143,324.5102010709804,-177.3892986459173,0.13283560127404317,-149.98537236946845,-48.0457,-0.0091,20.9121,29.1752,0.3939,-21.3584,76.19454336638498,26.401852900438968,80.91078503297106,-19.137658013237846,-88.84600321451823,-43.81993611653646,-4.298924361125077,-0.7618297916827815,-2.609518070032101,3.487904866536458,0.06785074869791667,-4.342592027452257,-0.694,-1.0139,0.956,0.00591,-0.02921,0.0031,0.0009192346478812397,0.0009999030735343695,0.0009066357742995024,0.0004652103816624731,0.0004999310476705432,0.00047221267595887184,0.011169335804879665,0.011333159171044827,0.011565974913537502,passive,1
2.3404,rehab,large_slow,-15.033171329857531,-666.6321313459435,324.85371753888086,-177.38965192434762,0.1332497912761915,-149.98496830546924,-47.7066,-0.0499,20.5556,-3.1414,0.2418,-7.8829,76.12642269323368,26.390723804436107,80.86949792238745,-19.082438151041668,-88.84397718641493,-43.887837727864586,-4.026835979801594,-0.7074148348062346,-2.7183751776666925,3.5159132215711804,0.13570149739583334,-4.206882052951388,-0.6991,-1.0031,0.9378,0.00807,-0.04534,0.00535,0.0009192346478812397,0.0009999030735343695,0.0009066357742995024,0.0004652103816624731,0.0004999310476705432,0.00047221267595887184,0.011169335804879665,0.011333159171044827,0.011565974913537502,passive,1
2.3606,rehab,large_slow,-15.830727001091109,-666.6326439325031,325.1998080215469,-177.38986658895752,0.1334222301534115,-149.9845222450948,-47.8984,-0.0696,20.4688,-40.7647,0.0205,8.6456,76.05785332103767,26.379778267133354,80.82759215099976,-19.02703179253472,-88.8420189751519,-43.95623101128472,-4.353339318001624,-0.6529998779296875,-2.656067196685489,3.430141872829861,0.13570149739583334,-4.071180555555555,-0.7907,-0.941,1.4131,0.01592,-0.03584,0.003,0.0009192346478812397,0.0009999030735343695,0.0009066357742995024,0.0004652103816624731,0.0004999310476705432,0.00047221267595887184,0.011169335804879665,0.011333159171044827,0.011565974913537502,passive,1
2.3805,rehab,large_slow,-17.045498808704615,-666.6356954735743,325.7193346640523,-177.3900302915405,0.13360086938179785,-149.9858143552117,-48.9532,-0.0239,20.7969,-59.3949,-0.0876,18.2194,75.95351039773166,26.363999017394416,80.76376131265471,-18.94376966688368,-88.83905198838976,-44.05834621853298,-4.298924361125077,-0.5985781225827661,-2.687224586411278,3.436575995551215,0.20355224609375,-4.139031304253472,-0.702,-0.8609,1.109,0.03605,-0.03627,0.00314,0.0009192346478812397,0.0009999030735343695,0.0009066357742995024,0.0004652103816624731,0.0004999310476705432,0.00047221267595887184,0.011169335804879665,0.011333159171044827,0.011565974913537502,passive,1
2.4009,rehab,large_slow,-17.856508328700404,-666.637759522244,326.0642230821254,-177.3900660444399,0.13364942500798443,-149.9867440233505,-50.6142,0.0069,21.4056,-53.8881,-0.0081,18.6341,75.88388046415726,26.35374692406985,80.72108731411471,-18.888507419162327,-88.83707682291667,-44.12642584906684,-4.353339318001624,-0.6529998779296875,-2.661363205107132,3.4417215983072915,0.13570149739583334,-4.274732801649305,-0.7271,-0.7824,1.1769,0.01595,-0.03166,0.01055,0.0009192346478812397,0.0009999030735343695,0.0009066357742995024,0.0004652103816624731,0.0004999310476705432,0.00047221267595887184,0.011169335804879665,0.011333159171044827,0.011565974913537502,passive,1
2.4206,rehab,large_slow,-19.075048772678628,-666.6392727031999,326.5717422977645,-177.39052970068292,0.1340254451965305,-149.9883278166053,-52.7085,-0.0096,22.1604,-36.9804,0.1733,14.7232,75.7792859974474,26.338953452535193,80.65765758552173,-18.806271023220486,-88.83418613009982,-44.228515625,-4.190087648901609,-0.6529998779296875,-2.578992938051129,3.505282931857639,0.20355224609375,-4.206882052951388,-0.7741,-1.0331,0.5831,0.01468,-0.0593,0.0088,0.0009192346478812397,0.0009999030735343695,0.0009066357742995024,0.0004652103816624731,0.0004999310476705432,0.00047221267595887184,0.011169335804879665,0.011333159171044827,0.011565974913537502,passive,1
2.4404,rehab,large_slow,-19.876687705103883,-666.6373880016229,326.9075090583975,-177.39090116175345,0.1343242361869753,-149.9879609227415,-53.0904,-0.0325,22.251,-6.4245,0.1098,4.1807,75.71043788796604,26.328993693436725,80.61593537283416,-18.75181410047743,-88.8322533501519,-44.297120836046005,-4.244502605778156,-0.5985781225827661,-2.4976288446105355,3.499196370442708,0.13570149739583334,-4.342592027452257,-0.8473,-0.8725,1.0736,0.02777,-0.03241,0.01235,0.0009192346478812397,0.0009999030735343695,0.0009066357742995024,0.0004652103816624731,0.0004999310476705432,0.00047221267595887184,0.011169335804879665,0.011333159171044827,0.011565974913537502,passive,1
2.4607,rehab,large_slow,-21.269947033068686,-666.6318206066558,327.4972077092517,-177.39123058608928,0.13470965662505283,-149.98730929910604,-52.726,-0.0398,22.1731,30.2617,-0.2523,-10.4801,75.59076441396581,26.311487632222693,80.54283821936882,-18.656700981987846,-88.82877773708768,-44.41637674967448,-4.298924361125077,-0.5985781225827661,-2.543280573174505,3.4147220187717013,0.13570149739583334,-4.206882052951388,-0.8824,-1.0032,1.0201,0.02183,-0.04082,0.01678,0.0009192346478812397,0.0009999030735343695,0.0009066357742995024,0.0004652103816624731,0.0004999310476705432,0.00047221267595887184,0.011169335804879665,0.011333159171044827,0.011565974913537502,passive,1
2.4805,rehab,large_slow,-22.074269429910444,-666.6329726470958,327.8348238548002,-177.39116667835978,0.13466754529462902,-149.98783310961636,-51.2966,-0.0329,21.7351,55.8343,-0.2459,-21.3111,75.52181432742884,26.30224851098391,80.49991947589534,-18.602337307400173,-88.82681952582465,-44.484193589952255,-4.244502605778156,-0.5985781225827661,-2.794545239741259,3.4565226236979165,0.06785074869791667,-4.410442776150173,-0.7656,-0.9032,1.3806,0.0274,-0.04301,0.00708,0.0009192346478812397,0.0009999030735343695,0.0009066357742995024,0.0004652103816624731,0.0004999310476705432,0.00047221267595887184,0.011169335804879665,0.011333159171044827,0.011565974913537502,passive,1
2.5007,rehab,large_slow,-23.27547566661903,-666.6390735568895,328.33870706637566,-177.39110055438888,0.13453309336247532,-149.98808476280334,-49.6938,-0.025,21.2276,67.0638,0.3065,-26.0562,75.41899426148669,26.28936540962446,80.43448419854192,-18.520736694335938,-88.82396274142795,-44.58585103352865,-4.244502605778156,-0.489748208829672,-2.712208965037129,3.37538825141059,0.13570149739583334,-4.0033213297526045,-0.7052,-0.9313,0.7562,0.03846,-0.03864,0.01676,0.0009192346478812397,0.0009999030735343695,0.0009066357742995024,0.0004652103816624731,0.0004999310476705432,0.00047221267595887184,0.011169335804879665,0.011333159171044827,0.011565974913537502,passive,1
2.5205,rehab,large_slow,-24.060737103296947,-666.6430202223215,328.67002481269014,-177.3911983954732,0.1346223879925217,-149.9873766941333,-47.8346,-0.0188,20.4408,59.7678,0.7371,-23.1356,75.35179818030632,26.281105268119585,80.39106236826075,-18.46665276421441,-88.82204691569011,-44.65315077039931,-4.135672692025062,-0.544163165706219,-2.7434343394666616,3.336198594835069,0.06785074869791667,-4.139031304253472,-0.6463,-0.8989,1.3212,0.02972,-0.03164,0.01271,0.0009192346478812397,0.0009999030735343695,0.0009066357742995024,0.0004652103816624731,0.0004999310476705432,0.00047221267595887184,0.011169335804879665,0.011333159171044827,0.011565974913537502,passive,1
2.5407,rehab,large_slow,-25.222073944564976,-666.6426155391055,329.18034946659503,-177.39022681730566,0.13372470425308863,-149.98477090233976,-46.3549,-0.0183,19.712,35.6643,0.7516,-13.3508,75.25230936484762,26.267351962552212,80.32636132570777,-18.38610331217448,-88.81911383734808,-44.754341973198784,-4.135672692025062,-0.5985781225827661,-2.7831238095122988,3.2899051242404513,0.13570149739583334,-3.9354705810546875,-0.8543,-1.0542,1.169,0.019,-0.03107,0.01289,0.0009192346478812397,0.0009999030735343695,0.0009066357742995024,0.0004652103816624731,0.0004999310476705432,0.00047221267595887184,0.011169335804879665,0.011333159171044827,0.011565974913537502,passive,1
2.5605,rehab,large_slow,-25.99910311160833,-666.6388359546216,329.51849595979536,-177.38961743465373,0.13314470249460864,-149.9847671882064,-46.7356,-0.0017,19.8236,5.0184,0.5705,-0.1016,75.1857047505898,26.258010864257812,80.28385728892714,-18.332867092556423,-88.81721496582031,-44.820353190104164,-4.244502605778156,-0.544163165706219,-2.665537465917002,3.364732530381944,0.06785074869791667,-4.071180555555555,-0.7956,-1.0127,0.8874,0.02877,-0.04734,0.01363,0.0009192346478812397,0.0009999030735343695,0.0009066357742995024,0.0004652103816624731,0.0004999310476705432,0.00047221267595887184,0.011169335804879665,0.011333159171044827,0.011565974913537502,passive,1
2.5806,rehab,large_slow,-26.776101340369735,-666.636099822611,329.8502429050705,-177.38934294161496,0.1328844001496985,-149.98549156837876,-46.9293,0.0377,19.9794,-13.043,0.4325,8.9268,75.11915452409498,26.24928162829711,80.24133285673538,-18.27978346082899,-88.81535000271268,-44.88558451334635,-4.081257735148514,-0.489748208829672,-2.5634856271271658,3.27895270453559,0.13570149739583334,-3.7319098578559027,-0.8562,-1.219,0.4408,-0.00119,-0.0293,0.00825,0.0009192346478812397,0.0009999030735343695,0.0009066357742995024,0.0004652103816624731,0.0004999310476705432,0.00047221267595887184,0.011169335804879665,0.011333159171044827,0.011565974913537502,passive,1
2.6008,rehab,large_slow,-27.926812248084072,-666.635366390889,330.32593138297125,-177.3901603002566,0.13367134622347965,-149.98675160952828,-47.3651,0.0511,20.3298,-9.2266,0.3364,9.4595,75.02071947154433,26.23794177971264,80.17793712049428,-18.20064968532986,-88.81263732910156,-44.98187594943576,-4.026835979801594,-0.435333251953125,-2.6277855599280633,3.324762980143229,0.13570149739583334,-4.0033213297526045,-0.8295,-1.1455,1.2867,0.00718,-0.03757,0.00462,0.0009192346478812397,0.0009999030735343695,0.0009066357742995024,0.0004652103816624731,0.0004999310476705432,0.00047221267595887184,0.011169335804879665,0.011333159171044827,0.011565974913537502,passive,1
2.6207,rehab,large_slow,-28.684913539361574,-666.6360764474776,330.6369486866882,-177.3910570805838,0.13458471710837264,-149.9867088225137,-47.6569,0.0325,20.5972,10.2065,0.1975,2.6176,74.95591645193572,26.230993742990023,80.13557585159151,-18.147879706488716,-88.81080627441406,-45.04613240559896,-3.918006066048499,-0.435333251953125,-2.7059883646445697,3.297441270616319,0.13570149739583334,-3.7319098578559027,-0.8645,-1.1892,1.0408,0.02011,-0.02694,0.0105,0.0009192346478812397,0.0009999030735343695,0.0009066357742995024,0.0004652103816624731,0.0004999310476705432,0.00047221267595887184,0.011169335804879665,0.011333159171044827,0.011565974913537502,passive,1
2.6407,rehab,large_slow,-29.98107200316652,-666.6391562716448,331.2004759455139,-177.39055270699066,0.1341055616405312,-149.98618890691978,-48.4487,0.0184,21.1183,40.0006,-0.04,-10.4065,74.84521695882967,26.21808344774907,80.06046635089534,-18.056810167100693,-88.80767822265625,-45.156334771050346,-3.9724210229250465,-0.489748208829672,-2.658494250609143,3.2981024848090277,0.06785074869791667,-3.8676198323567705,-0.9003,-1.1458,1.9649,0.00721,-0.03884,0.00592,0.0009192346478812397,0.0009999030735343695,0.0009066357742995024,0.0004652103816624731,0.0004999310476705432,0.00047221267595887184,0.011169335804879665,0.011333159171044827,0.011565974913537502,passive,1
2.6604,rehab,large_slow,-30.704521831689544,-666.6388462467052,331.52882546153927,-177.3897073721062,0.1332795184046078,-149.98598250720698,-47.191,0.0239,20.7264,65.0348,-0.3515,-22.5976,74.78341206465618,26.210163229762916,80.01763598753674,-18.005150689019096,-88.80593193901909,-45.21776835123698,-3.754754396948484,-0.489748208829672,-2.6403627301206685,3.219206068250868,0.06785074869791667,-3.9354705810546875,-1.0134,-1.2865,1.1634,-0.02648,-0.03137,0.00278,0.0009192346478812397,0.0009999030735343695,0.0009066357742995024,0.0004652103816624731,0.0004999310476705432,0.00047221267595887184,0.011169335804879665,0.011333159171044827,0.011565974913537502,passive,1
2.6806,rehab,large_slow,-31.756975082467505,-666.6350927428886,332.0106403843065,-177.3887609499336,0.13231653632787374,-149.98507154245408,-44.0524,0.0315,19.4903,83.6057,-0.4094,-31.7162,74.69346150313274,26.198361085192992,79.95495409068495,-17.92894999186198,-88.80340576171875,-45.30777825249566,-3.7003394400719367,-0.435333251953125,-2.5911622000212717,3.1821695963541665,0.06785074869791667,-3.9354705810546875,-0.811,-1.1149,0.9467,0.01128,-0.03195,0.01023,0.0009192346478812397,0.0009999030735343695,0.0009066357742995024,0.0004652103816624731,0.0004999310476705432,0.00047221267595887184,0.011169335804879665,0.011333159171044827,0.011565974913537502,passive,1
2.7005,rehab,large_slow,-32.4482337937236,-666.6343899109851,332.3197313460167,-177.3886539337444,0.13223766478530655,-149.9847811559586,-41.9046,0.0251,18.6006,92.2407,-0.1113,-34.7479,74.63444398181274,26.191399451529627,79.91354460763459,-17.87870619032118,-88.8017357720269,-45.366524590386284,-3.5370877709719215,-0.435333251953125,-2.611142904451578,3.0165523952907987,0.06785074869791667,-3.596208360460069,-0.9561,-1.091,0.6654,0.01341,-0.04069,0.01527,0.0009192346478812397,0.0009999030735343695,0.0009066357742995024,0.0004652103816624731,0.0004999310476705432,0.00047221267595887184,0.011169335804879665,0.011333159171044827,0.011565974913537502,passive,1
2.7209,rehab,large_slow,-33.46252590009739,-666.6327032608872,332.76116439180487,-177.38981755062116,0.13342847836798025,-149.98370343711423,-40.1955,0.0199,17.9089,86.2902,0.1959,-29.4672,74.54786546159498,26.182071950175974,79.85279347636911,-17.803997463650173,-88.7992943657769,-45.45334710015191,-3.482672814095374,-0.32649653972965653,-2.6101231338954207,3.145777384440104,0.06785074869791667,-3.528349134657118,-0.87,-1.1341,0.6915,0.02907,-0.03379,0.01417,0.0009192346478812397,0.0009999030735343695,0.0009066357742995024,0.0004652103816624731,0.0004999310476705432,0.00047221267595887184,0.011169335804879665,0.011333159171044827,0.011565974913537502,passive,1
2.7404,rehab,large_slow,-34.12760316225504,-666.6325835900284,333.04906383123244,-177.3905913190135,0.13417784484981632,-149.98398319740082,-39.2008,0.0091,17.606,62.484,0.325,-15.3972,74.4911526217319,26.17629325035775,79.81272329198252,-17.75516086154514,-88.79776000976562,-45.509236653645836,-3.7003394400719367,-0.32649653972965653,-2.5084248155650526,2.987942165798611,-0.0,-3.4604983859592013,-0.7842,-1.1433,0.6435,0.02838,-0.04808,0.01531,0.0009192346478812397,0.0009999030735343695,0.0009066357742995024,0.0004652103816624731,0.0004999310476705432,0.00047221267595887184,0.011169335804879665,0.011333159171044827,0.011565974913537502,passive,1
2.7604,rehab,large_slow,-34.79048556026019,-666.6339850432985,333.33940518852944,-177.390813141897,0.13441726221363728,-149.98568601394211,-38.0088,0.0062,17.371,33.6637,0.3423,2.0479,74.43468452680229,26.170609729124767,79.77238796725132,-17.706960042317707,-88.7962426079644,-45.56346469455295,-3.64592448319539,-0.32649653972965653,-2.4998995337155785,2.9925367567274304,0.06785074869791667,-3.4604983859592013,-0.8334,-1.2319,0.3387,0.0221,-0.03622,0.02101,0.0009192346478812397,0.0009999030735343695,0.0009066357742995024,0.0004652103816624731,0.0004999310476705432,0.00047221267595887184,0.011169335804879665,0.011333159171044827,0.011565974913537502,passive,1
2.7806,rehab,large_slow,-35.740206546743394,-666.6365050173442,333.77914158372533,-177.3905167107484,0.134087603472774,-149.98678731117212,-37.2501,0.0361,17.4704,26.3731,0.2228,10.4581,74.3538235201694,26.1617377252862,79.71208553503055,-17.635523478190105,-88.79407246907552,-45.642428927951386,-3.319421144995359,-0.32649653972965653,-2.4890831673499383,2.9283565945095487,0.06785074869791667,-3.1890869140625,-0.8815,-1.0882,1.7751,0.01613,-0.03652,0.00608,0.0009192346478812397,0.0009999030735343695,0.0009066357742995024,0.0004652103816624731,0.0004999310476705432,0.00047221267595887184,0.011169335804879665,0.011333159171044827,0.011565974913537502,passive,1
2.8011,rehab,large_slow,-36.34440439518557,-666.6354421540786,334.07548441701164,-177.39008837818398,0.1336026132363403,-149.98746823828722,-37.2109,0.0577,18.0156,35.4774,-0.0906,11.1156,74.30233870402421,26.15520439525642,79.67247084815904,-17.588297526041668,-88.79271613226996,-45.69270663791232,-3.1017545190187965,-0.435333251953125,-2.5684417120300895,2.916836208767361,0.06785074869791667,-3.0533854166666665,-1.0518,-1.0821,1.0777,0.00766,-0.02259,0.00915,0.0009192346478812397,0.0009999030735343695,0.0009066357742995024,0.0004652103816624731,0.0004999310476705432,0.00047221267595887184,0.011169335804879665,0.011333159171044827,0.011565974913537502,passive,1
2.8208,rehab,large_slow,-37.21762734637336,-666.6321696746478,334.51602032217835,-177.38902043263144,0.13254269531607318,-149.98827858051712,-37.1386,0.055,18.5363,52.5401,-0.4577,6.2359,74.22790225189512,26.145176651454207,79.61429633716546,-17.51909891764323,-88.79068162706163,-45.76555887858073,-2.938502849918781,-0.435333251953125,-2.4314049446936883,2.818578084309896,0.06785074869791667,-3.0533854166666665,-0.7745,-1.2686,1.4324,0.01304,-0.04132,0.00386,0.0009192346478812397,0.0009999030735343695,0.0009066357742995024,0.0004652103816624731,0.0004999310476705432,0.00047221267595887184,0.011169335804879665,0.011333159171044827,0.011565974913537502,passive,1
2.8406,rehab,large_slow,-37.77845011584078,-666.6294530611367,334.8003759996849,-177.38858729514192,0.13206429184082696,-149.988594986319,-36.1251,0.0363,18.6853,74.1961,-0.7579,-2.7638,74.18010220669284,26.13877249236154,79.57653763270613,-17.473966810438366,-88.78941006130643,-45.81253899468316,-2.938502849918781,-0.3809114966062036,-2.356764538453357,2.8274366590711804,0.06785074869791667,-2.9176754421657987,-0.747,-1.1827,0.9878,0.01218,-0.03545,0.00788,0.0009192346478812397,0.0009999030735343695,0.0009066357742995024,0.0004652103816624731,0.0004999310476705432,0.00047221267595887184,0.011169335804879665,0.011333159171044827,0.011565974913537502,passive,1
2.8604,rehab,large_slow,-38.70523300032035,-666.6266031242852,335.27512508827806,-177.38929986299559,0.1327517060066083,-149.98909298191367,-33.638,0.0011,18.2362,94.3301,-0.9408,-12.7478,74.10117196564627,26.128758345500078,79.51176180697904,-17.395519680447048,-88.78731621636284,-45.890096028645836,-2.7208362239422184,-0.32649653972965653,-2.343099613000851,2.8114997016059027,0.06785074869791667,-2.714114718967014,-0.826,-1.0748,0.8961,0.01314,-0.03171,0.01136,0.0009192346478812397,0.0009999030735343695,0.0009066357742995024,0.0004652103816624731,0.0004999310476705432,0.00047221267595887184,0.011169335804879665,0.011333159171044827,0.011565974913537502,passive,1
2.8806,rehab,large_slow,-39.203475450709924,-666.6280869587455,335.54122799283834,-177.39000050240608,0.13345946760525015,-149.98967569123792,-31.1798,-0.0336,17.6275,112.3164,-0.7857,-24.293,74.05882429368425,26.12356431413405,79.47468974802753,-17.35083685980903,-88.7862057156033,-45.93136257595486,-2.557584554842203,-0.32649653972965653,-2.2248674147199874,2.8875054253472223,0.06785074869791667,-2.510553995768229,-0.6666,-1.0506,1.4266,0.02363,-0.04068,0.01165,0.0009192346478812397,0.0009999030735343695,0.0009066357742995024,0.0004652103816624731,0.0004999310476705432,0.00047221267595887184,0.011169335804879665,0.011333159171044827,0.011565974913537502,passive,1
2.9004,rehab,large_slow,-39.89577859116022,-666.6323700842182,335.9427414941392,-177.39055055078154,0.13408393829942541,-149.98832848636,-28.8951,-0.046,17.0558,118.3023,-0.1936,-33.0952,74.00003112188661,26.115548917562656,79.41930940835783,-17.284562852647568,-88.78456115722656,-45.99076165093316,-2.3399179288656407,-0.32649653972965653,-2.2593084656366025,2.778286404079861,0.06785074869791667,-2.374852498372396,-0.7734,-0.9805,1.1788,0.03067,-0.02862,0.00747,0.0009192346478812397,0.0009999030735343695,0.0009066357742995024,0.0004652103816624731,0.0004999310476705432,0.00047221267595887184,0.011169335804879665,0.011333159171044827,0.011565974913537502,passive,1
2.9205,rehab,large_slow,-40.32515718718809,-666.63457257458,336.21548822256267,-177.3904375160761,0.13397363904996226,-149.9869401207084,-26.2165,-0.0349,16.2465,108.2899,0.5099,-37.1296,73.96356412679842,26.10964104680732,79.38269964539178,-17.240914238823784,-88.78355238172743,-46.028128729926216,-2.2310880151125465,-0.3809114966062036,-2.358205814172726,2.7359771728515625,-0.0,-2.307001749674479,-0.8142,-1.1297,1.1966,0.02475,-0.03897,0.00653,0.0009192346478812397,0.0009999030735343695,0.0009066357742995024,0.0004652103816624731,0.0004999310476705432,0.00047221267595887184,0.011169335804879665,0.011333159171044827,0.011565974913537502,passive,1
2.9408,rehab,large_slow,-40.947495515347626,-666.6361105391898,336.62299314282285,-177.3893917421734,0.13290451494082278,-149.98661502970364,-24.2674,-0.0122,15.688,93.9014,0.996,-39.843,73.91069242269685,26.100327142394416,79.32924327283803,-17.17782762315538,-88.78213670518663,-46.080618964301216,-2.122251302889078,-0.435333251953125,-2.2170899646116955,2.6766289605034723,0.06785074869791667,-2.171291775173611,-0.9082,-1.2827,0.8072,0.01627,-0.02692,0.01256,0.0009192346478812397,0.0009999030735343695,0.0009066357742995024,0.0004652103816624731,0.0004999310476705432,0.00047221267595887184,0.011169335804879665,0.011333159171044827,0.011565974913537502,passive,1
2.9603,rehab,large_slow,-41.348502268466156,-666.6338850365623,336.88468098843634,-177.38885183169432,0.13238128109433453,-149.98762375725107,-22.6992,0.0128,14.946,81.6314,1.041,-41.2836,73.87655730294709,26.094024960357363,79.29535969649211,-17.137264675564236,-88.78123813205295,-46.113289727105034,-2.067836346012531,-0.3809114966062036,-2.0290102817044398,2.506891886393229,0.06785074869791667,-2.0355902777777777,-0.9223,-1.2305,0.6402,0.00359,-0.02728,0.01618,0.0009192346478812397,0.0009999030735343695,0.0009066357742995024,0.0004652103816624731,0.0004999310476705432,0.00047221267595887184,0.011169335804879665,0.011333159171044827,0.011565974913537502,passive,1
2.9806,rehab,large_slow,-41.723794654776185,-666.6300148751435,337.1310683004166,-177.38878445300944,0.13227847148600658,-149.98816688063087,-21.3479,0.047,13.9859,75.2334,0.6853,-43.5356,73.844577298306,26.087981120194538,79.26342728114363,-17.098337809244793,-88.78043280707465,-46.14429050021701,-1.9589996337890625,-0.32649653972965653,-1.9286308666267018,2.383787367078993,0.06785074869791667,-1.832029554578993,-0.9494,-1.2307,0.3565,0.00346,-0.03245,0.01217,0.0009192346478812397,0.0009999030735343695,0.0009066357742995024,0.0004652103816624731,0.0004999310476705432,0.00047221267595887184,0.011169335804879665,0.011333159171044827,0.011565974913537502,passive,1
3.0005,rehab,large_slow,-42.24564512755328,-666.6285108942765,337.47181170934635,-177.38875275986166,0.13223778133678404,-149.9890648231469,-20.148,0.0682,13.0883,76.7476,0.2638,-47.4429,73.80021048064279,26.080264856319616,79.2182446470355,-17.044008043077255,-88.779296875,-46.18715074327257,-1.6325030940594059,-0.2720815828531095,-1.8692734217879796,2.1568806966145835,0.13570149739583334,-1.7641703287760415,-0.8109,-1.074,1.522,0.01176,-0.03537,0.0029,0.0009192346478812397,0.0009999030735343695,0.0009066357742995024,0.0004652103816624731,0.0004999310476705432,0.00047221267595887184,0.011169335804879665,0.011333159171044827,0.011565974913537502,passive,1
3.0206,rehab,large_slow,-42.5668230269413,-666.6296712952627,337.6795113932125,-177.38881357194552,0.13231007144970136,-149.98996440385102,-18.583,0.0554,12.0526,85.153,-0.0948,-51.8808,73.77296221138226,26.075934230691136,79.19009218121519,-17.01053195529514,-88.77860175238715,-46.21312459309896,-1.686918050935953,-0.2176666259765625,-1.7016299408261137,1.9408331976996527,0.06785074869791667,-1.4927588568793402,-0.6429,-1.1641,1.4927,0.02181,-0.05517,0.0011,0.0009192346478812397,0.0009999030735343695,0.0009066357742995024,0.0004652103816624731,0.0004999310476705432,0.00047221267595887184,0.011169335804879665,0.011333159171044827,0.011565974913537502,passive,1
3.0403,rehab,large_slow,-42.990728236678876,-666.6301822338429,337.94656799488865,-177.38971681514994,0.13325842105372257,-149.99077570849516,-16.6867,0.0286,11.0147,95.1377,-0.419,-54.6887,73.73697790769067,26.070577036036124,79.1531492932008,-16.965721978081596,-88.77767774793837,-46.24779595269097,-1.4148296696124691,-0.2176666259765625,-1.4296775289101176,1.696718004014757,0.06785074869791667,-1.2892066107855902,-0.6956,-1.2178,1.0659,0.02352,-0.04118,0.00784,0.0009192346478812397,0.0009999030735343695,0.0009066357742995024,0.0004652103816624731,0.0004999310476705432,0.00047221267595887184,0.011169335804879665,0.011333159171044827,0.011565974913537502,passive,1
3.0607,rehab,large_slow,-43.24488721080999,-666.6308305817844,338.1100658658275,-177.3897594357041,0.13328648509808744,-149.99145687010235,-14.7532,0.0042,10.0461,103.3256,-0.8307,-56.6693,73.71541995813351,26.067204994730428,79.13094548895808,-16.939383612738716,-88.77714369032118,-46.26837836371528,-1.305999755859375,-0.2176666259765625,-1.3060269497408725,1.5726131863064237,-0.0,-1.153496636284722,-0.7041,-1.1633,1.2102,0.0218,-0.03839,0.00814,0.0009192346478812397,0.0009999030735343695,0.0009066357742995024,0.0004652103816624731,0.0004999310476705432,0.00047221267595887184,0.011169335804879665,0.011333159171044827,0.011565974913537502,passive,1
3.0806,rehab,large_slow,-43.59358726855669,-666.6268312257376,338.3481117838834,-177.39070381941997,0.1343159316427856,-149.99049582790255,-12.2432,0.0003,8.7282,108.5731,-1.1138,-60.0508,73.68570384412709,26.061691435256808,79.09909465525409,-16.89957512749566,-88.77631293402777,-46.298607720269096,-0.9250814607827971,-0.2176666259765625,-1.0600446946550124,1.2978363037109375,0.06785074869791667,-0.9499359130859375,-0.6961,-1.3142,0.7035,0.02114,-0.04417,0.00766,0.0009192346478812397,0.0009999030735343695,0.0009066357742995024,0.0004652103816624731,0.0004999310476705432,0.00047221267595887184,0.011169335804879665,0.011333159171044827,0.011565974913537502,passive,1
3.1008,rehab,large_slow,-43.7526342815097,-666.6277265513511,338.4741955086924,-177.39063371643735,0.13425485503393886,-149.98951883798867,-9.9021,0.0024,7.4771,107.7522,-1.0425,-63.0015,73.67221567890432,26.058829279229194,79.08244520130724,-16.879662407769096,-88.77593146430121,-46.31284925672743,-0.7618297916827815,-0.2176666259765625,-1.0091785393138923,1.216642591688368,-0.0,-0.8820851643880208,-0.8061,-1.193,1.3098,0.02052,-0.03603,0.00904,0.0009192346478812397,0.0009999030735343695,0.0009066357742995024,0.0004652103816624731,0.0004999310476705432,0.00047221267595887184,0.011169335804879665,0.011333159171044827,0.011565974913537502,passive,1
3.1207,rehab,large_slow,-43.95168738614703,-666.6291338887414,338.6397353944932,-177.3902453699315,0.13387771358156228,-149.98835506830713,-7.8968,-0.0184,6.3025,102.7875,-0.859,-64.6038,73.6553418754351,26.05496094958617,79.06091444563157,-16.854188707139755,-88.77544826931424,-46.330600314670136,-0.6529998779296875,-0.16324487062964108,-0.7630603148205446,0.9563530815972222,-0.0,-0.678524441189236,-0.7593,-1.0944,1.2383,0.03002,-0.04156,0.00895,0.0009192346478812397,0.0009999030735343695,0.0009066357742995024,0.0004652103816624731,0.0004999310476705432,0.00047221267595887184,0.011169335804879665,0.011333159171044827,0.011565974913537502,passive,1
3.1407,rehab,large_slow,-44.05887477959463,-666.6288705653334,338.73144371514496,-177.3899457245831,0.1335701613472638,-149.9877303160194,-6.0377,-0.0563,5.0107,95.2123,-0.7847,-63.9455,73.64623192513343,26.05263587271813,79.04931625517288,-16.840362548828125,-88.77519395616319,-46.340179443359375,-0.489748208829672,-0.16324487062964108,-0.6780114504370359,0.7532246907552083,-0.0,-0.5428229437934028,-0.722,-1.2086,1.0344,0.02015,-0.03265,0.00886,0.0009192346478812397,0.0009999030735343695,0.0009066357742995024,0.0004652103816624731,0.0004999310476705432,0.00047221267595887184,0.011169335804879665,0.011333159171044827,0.011565974913537502,passive,1
3.1605,rehab,large_slow,-44.18536729348489,-666.6305619978805,338.8388067993885,-177.38950733549098,0.1330869925738477,-149.98745282260478,-4.2963,-0.0903,3.6968,84.424,-0.7759,-59.335,73.63553793123452,26.050174826442603,79.03539298784615,-16.824256049262154,-88.77493116590712,-46.35097079806857,-0.435333251953125,-0.05441495687654703,-0.48125691933206993,0.5542161729600694,-0.06785074869791667,-0.4071129692925347,-0.7844,-1.0614,1.2237,0.01042,-0.04238,0.00513,0.0009192346478812397,0.0009999030735343695,0.0009066357742995024,0.0004652103816624731,0.0004999310476705432,0.00047221267595887184,0.011169335804879665,0.011333159171044827,0.011565974913537502,passive,1
3.1806,rehab,large_slow,-44.244998606148236,-666.6318894846864,338.8903905467232,-177.3894331973278,0.13300837011388267,-149.98711204223522,-2.6765,-0.0903,2.4593,71.811,-0.7004,-51.4341,73.63050706315748,26.049087071182704,79.02848574194577,-16.816185845269096,-88.77479553222656,-46.35625203450521,-0.2720815828531095,-0.05441495687654703,-0.3738138935353496,0.44459025065104163,0.06785074869791667,-0.2714114718967014,-0.791,-1.0004,0.9853,0.02329,-0.02727,0.01114,0.0009192346478812397,0.0009999030735343695,0.0009066357742995024,0.0004652103816624731,0.0004999310476705432,0.00047221267595887184,0.011169335804879665,0.011333159171044827,0.011565974913537502,passive,1
3.2008,rehab,large_slow,-44.28649946804827,-666.6348863406143,338.9233086873834,-177.38974569848182,0.13335674049805768,-149.98673337178707,-1.3218,-0.0806,1.5014,62.2714,-0.4173,-42.927,73.6270534402073,26.04880153542698,79.02325771822788,-16.810073852539062,-88.77468532986111,-46.360015869140625,-0.16324487062964108,-0.05441495687654703,-0.2800765840133818,0.3363969590928819,0.06785074869791667,-0.13570149739583334,-0.7203,-1.0632,1.2817,0.0063,-0.02984,0.00115,0.0009192346478812397,0.0009999030735343695,0.0009066357742995024,0.0004652103816624731,0.0004999310476705432,0.00047221267595887184,0.011169335804879665,0.011333159171044827,0.011565974913537502,passive,1
3.2207,rehab,large_slow,-44.320466670859176,-666.6374440877703,338.9486097670913,-177.3905731640621,0.13424810216704133,-149.98612907033814,-0.0449,-0.0907,0.7275,53.4335,0.0108,-33.2069,73.62422527653156,26.04877434154548,79.01864155684368,-16.804097493489582,-88.77458360460069,-46.36338127983941,-0.0,-0.0,-0.10916983727181312,0.20604451497395831,-0.0,-0.13570149739583334,-0.7916,-0.9597,0.6645,0.02297,-0.03501,0.01148,0.0009192346478812397,0.0009999030735343695,0.0009066357742995024,0.0004652103816624731,0.0004999310476705432,0.00047221267595887184,0.011169335804879665,0.011333159171044827,0.011565974913537502,passive,1
3.2405,rehab,large_slow,-44.306301128600325,-666.6386655360718,338.95354490759155,-177.3912872177723,0.13499281627646514,-149.984072984227,0.871,-0.0933,0.2289,42.652,0.416,-22.7954,73.62544220272858,26.048808333897355,79.01740423523553,-16.801834106445312,-88.77456665039062,-46.364195081922745,0.16324487062964108,0.05441495687654703,0.005955460047957921,0.07817586263020833,-0.06785074869791667,-0.06785074869791667,-0.786,-0.9692,1.617,0.01196,-0.03564,0.00658,0.0009192346478812397,0.0009999030735343695,0.0009066357742995024,0.0004652103816624731,0.0004999310476705432,0.00047221267595887184,0.011169335804879665,0.011333159171044827,0.011565974913537502,passive,1
3.2605,rehab,large_slow,-44.2511737686555,-666.6387442863821,338.94759589755927,-177.39240738636727,0.136195383496186,-149.97949953705327,1.5462,-0.0915,-0.0871,32.8622,0.7463,-14.2104,73.63008555799428,26.048794736956605,79.01784613580988,-16.800621880425346,-88.77454969618056,-46.3641103108724,0.2176666259765625,-0.0,0.01620075490215037,0.003238254123263889,0.06785074869791667,0.06785074869791667,-0.8235,-0.9471,1.2487,0.00514,-0.0317,0.01242,0.0009192346478812397,0.0009999030735343695,0.0009066357742995024,0.0004652103816624731,0.0004999310476705432,0.00047221267595887184,0.011169335804879665,0.011333159171044827,0.011565974913537502,passive,1
3.2804,rehab,large_slow,-44.213385355796696,-666.639684587763,338.9436985489129,-177.39270395459883,0.13652499470008628,-149.976765551356,2.0403,-0.0777,-0.2219,26.9462,1.1063,-8.9995,73.63329443601098,26.04878793848623,79.01835602108795,-16.80069817437066,-88.77454969618056,-46.36363559299045,0.16324487062964108,-0.0,0.02522912355932859,-0.003543429904513889,-0.0,-0.0,-0.6671,-0.9757,1.2942,0.03384,-0.03714,0.00362,0.0009192346478812397,0.0009999030735343695,0.0009066357742995024,0.0004652103816624731,0.0004999310476705432,0.00047221267595887184,0.011169335804879665,0.011333159171044827,0.011565974913537502,passive,1
3.3007,rehab,large_slow,-44.16128600334179,-666.6430159182718,338.94208375129006,-177.39227984002497,0.13617218614725526,-149.97650322501352,2.7095,-0.0455,-0.411,24.9111,1.5504,-6.7581,73.63778142645808,26.048719953782488,79.01896788342164,-16.80193583170573,-88.7746090359158,-46.35942247178819,0.10882991375309406,-0.05441495687654703,0.04697063181659963,-0.06807963053385417,-0.0,0.2714114718967014,-0.724,-1.1135,1.1426,0.01584,-0.02703,0.00195,0.0009192346478812397,0.0009999030735343695,0.0009066357742995024,0.0004652103816624731,0.0004999310476705432,0.00047221267595887184,0.011169335804879665,0.011333159171044827,0.011565974913537502,passive,1
3.3206,rehab,large_slow,-44.13613013957324,-666.6441873713505,338.9391968301307,-177.39167444859294,0.13568437960109264,-149.97960541094906,3.0513,-0.0049,-0.5097,26.7473,1.824,-6.8361,73.63994334003714,26.048604379786124,79.01995366162593,-16.803758409288193,-88.774659898546,-46.3541751437717,0.16324487062964108,-0.0,0.08419225711633663,-0.14566209581163195,-0.0,0.339262220594618,-0.6658,-1.0119,1.7028,0.0146,-0.02784,0.00176,0.0009192346478812397,0.0009999030735343695,0.0009066357742995024,0.0004652103816624731,0.0004999310476705432,0.00047221267595887184,0.011169335804879665,0.011333159171044827,0.011565974913537502,passive,1
3.3404,rehab,large_slow,-44.06871192883648,-666.6449536090887,338.9276437475768,-177.39061699711993,0.1348078625778197,-149.98364057950982,3.4532,0.0376,-0.6186,30.788,1.7897,-7.9151,73.64567445056274,26.04824406085628,79.0230129732944,-16.808158026801216,-88.7747785780165,-46.344451904296875,0.2720815828531095,-0.05441495687654703,0.1717293616568688,-0.22750006781684026,-0.06785074869791667,0.4749637179904514,-0.8592,-0.9991,1.9538,0.01803,-0.03526,0.01015,0.0009192346478812397,0.0009999030735343695,0.0009066357742995024,0.0004652103816624731,0.0004999310476705432,0.00047221267595887184,0.011169335804879665,0.011333159171044827,0.011565974913537502,passive,1
3.3604,rehab,large_slow,-44.00105624995418,-666.6437838904218,338.9129083506087,-177.39025054753702,0.13459127864211543,-149.98533609820674,4.1984,0.0739,-0.8164,35.1871,1.4152,-8.795,73.65137156873647,26.047897338867188,79.0262218513111,-16.81168450249566,-88.77487182617188,-46.33709377712673,0.3809114966062036,-0.05441495687654703,0.21269694413288984,-0.2666642930772569,-0.06785074869791667,0.4071129692925347,-0.6955,-0.8763,1.6028,0.02297,-0.01994,0.01405,0.0009192346478812397,0.0009999030735343695,0.0009066357742995024,0.0004652103816624731,0.0004999310476705432,0.00047221267595887184,0.011169335804879665,0.011333159171044827,0.011565974913537502,passive,1
3.3804,rehab,large_slow,-43.87675596082173,-666.6399590929619,338.8878365643697,-177.3897361829719,0.13433530597999735,-149.98727193903812,5.0714,0.0995,-1.0597,38.0012,0.7172,-8.7149,73.66179362382039,26.047006739248143,79.0320889312442,-16.817626953125,-88.7750244140625,-46.32479349772135,0.435333251953125,-0.05441495687654703,0.28823474846263925,-0.2681647406684028,-0.0,0.5428229437934028,-0.4507,-0.9951,1.3989,0.04259,-0.04919,0.00384,0.0009192346478812397,0.0009999030735343695,0.0009066357742995024,0.0004652103816624731,0.0004999310476705432,0.00047221267595887184,0.011169335804879665,0.011333159171044827,0.011565974913537502,passive,1
3.4009,rehab,large_slow,-43.781102245278134,-666.6362864998563,338.868366466736,-177.38967577691776,0.13434168393207943,-149.98819944912472,5.917,0.106,-1.2832,41.1871,-0.0467,-8.4332,73.66980902039178,26.046299698329207,79.03652833239867,-16.821704440646702,-88.77522786458333,-46.3158925374349,0.544163165706219,-0.0,0.25628193770304764,-0.2779642740885417,-0.06785074869791667,0.6106736924913194,-0.5797,-0.9724,1.6797,0.03933,-0.04087,0.01048,0.0009192346478812397,0.0009999030735343695,0.0009066357742995024,0.0004652103816624731,0.0004999310476705432,0.00047221267595887184,0.011169335804879665,0.011333159171044827,0.011565974913537502,passive,1
3.4208,rehab,large_slow,-43.67324151003719,-666.6337981432312,338.8452680393282,-177.38980894960739,0.1345660963879877,-149.98872024794292,6.795,0.101,-1.459,44.1149,-0.547,-8.543,73.67888497834159,26.045817006932626,79.04113089684212,-16.82590060763889,-88.7754397922092,-46.30633884006076,0.5985781225827661,-0.05441495687654703,0.2754808180403001,-0.2917565239800347,-0.0,0.5428229437934028,-0.7978,-1.0049,1.2168,0.0233,-0.02835,0.0079,0.0009192346478812397,0.0009999030735343695,0.0009066357742995024,0.0004652103816624731,0.0004999310476705432,0.00047221267595887184,0.011169335804879665,0.011333159171044827,0.011565974913537502,passive,1
3.4407,rehab,large_slow,-43.48965126385588,-666.6339545595899,338.8074749604891,-177.38973883404987,0.13456520504380043,-149.98844336239665,7.6386,0.0805,-1.5696,42.9895,-0.7606,-8.3511,73.69444667702854,26.045470284943534,79.04813332132774,-16.833131578233505,-88.77582126193576,-46.29113091362847,0.7074148348062346,-0.10882991375309406,0.3018792785040223,-0.3389146592881944,-0.0,0.678524441189236,-0.7026,-1.0267,1.3012,0.02374,-0.03916,0.00786,0.0009192346478812397,0.0009999030735343695,0.0009066357742995024,0.0004652103816624731,0.0004999310476705432,0.00047221267595887184,0.011169335804879665,0.011333159171044827,0.011565974913537502,passive,1
3.4606,rehab,large_slow,-43.359941939427046,-666.6339251962597,338.77811037461294,-177.3896742615146,0.13455244882443768,-149.98842791301945,8.4212,0.0434,-1.6744,40.6205,-0.8328,-8.5026,73.70543980362392,26.045300323184172,79.05341573280863,-16.838675604926216,-88.77609252929688,-46.28021240234375,0.7074148348062346,-0.05441495687654703,0.35113419636641396,-0.3449164496527778,-0.06785074869791667,0.678524441189236,-0.7811,-1.1302,1.1848,0.0168,-0.03913,0.00432,0.0009192346478812397,0.0009999030735343695,0.0009066357742995024,0.0004652103816624731,0.0004999310476705432,0.00047221267595887184,0.011169335804879665,0.011333159171044827,0.011565974913537502,passive,1
3.4805,rehab,large_slow,-43.161891842340815,-666.6330600827191,338.7354301862967,-177.3893247323828,0.13414976520284266,-149.98936394427628,9.1501,0.0194,-1.8218,37.6335,-0.8666,-9.1781,73.72222522697827,26.044790437906094,79.06167587431351,-16.84756808810764,-88.77661810980902,-46.26258850097656,0.7074148348062346,-0.05441495687654703,0.3797761520536819,-0.4059516059027778,0.06785074869791667,0.678524441189236,-0.5761,-1.0739,0.9126,0.01985,-0.03381,0.00745,0.0009192346478812397,0.0009999030735343695,0.0009066357742995024,0.0004652103816624731,0.0004999310476705432,0.00047221267595887184,0.011169335804879665,0.011333159171044827,0.011565974913537502,passive,1
3.5007,rehab,large_slow,-43.02211303963682,-666.631372602108,338.7084810593493,-177.3890715380884,0.13379147871667504,-149.99023217077567,9.982,0.0198,-2.0533,33.39,-0.8781,-10.0991,73.73405456542969,26.044171777102026,79.06740018636873,-16.853544447157116,-88.77704196506076,-46.24995761447482,0.7618297916827815,-0.05441495687654703,0.34378504989170794,-0.3521050347222222,-0.06785074869791667,0.7463751898871528,-0.6595,-1.1379,0.9941,0.02933,-0.03734,0.01246,0.0009192346478812397,0.0009999030735343695,0.0009066357742995024,0.0004652103816624731,0.0004999310476705432,0.00047221267595887184,0.011169335804879665,0.011333159171044827,0.011565974913537502,passive,1
3.5205,rehab,large_slow,-42.74501320296169,-666.630404858464,338.6590977794596,-177.38878221827773,0.13329790977922779,-149.99016024458294,10.6786,0.028,-2.3086,28.1032,-0.7085,-10.2996,73.75755687751392,26.043192797368114,79.0775706980488,-16.864098442925346,-88.77783881293402,-46.22664557562934,0.9250814607827971,-0.0,0.35419350803488553,-0.384275648328993,-0.0,0.8142344156901041,-0.7258,-1.0799,0.5766,0.00846,-0.04281,0.00557,0.0009192346478812397,0.0009999030735343695,0.0009066357742995024,0.0004652103816624731,0.0004999310476705432,0.00047221267595887184,0.011169335804879665,0.011333159171044827,0.011565974913537502,passive,1
3.5408,rehab,large_slow,-42.57570798325239,-666.6314307887304,338.62548025331154,-177.3887428399119,0.13314793126944224,-149.98983874535878,11.133,0.015,-2.5149,22.8804,-0.3107,-8.9178,73.77195603776686,26.042975246316136,79.08369611985613,-16.870625813802082,-88.77831353081596,-46.21264139811198,0.9250814607827971,-0.0,0.36559454285272275,-0.4062313503689236,0.06785074869791667,0.8820851643880208,-0.6818,-1.0851,0.7315,0.02119,-0.03835,0.00904,0.0009192346478812397,0.0009999030735343695,0.0009066357742995024,0.0004652103816624731,0.0004999310476705432,0.00047221267595887184,0.011169335804879665,0.011333159171044827,0.011565974913537502,passive,1
3.5605,rehab,large_slow,-42.30805212292094,-666.6314525946087,338.56011837983215,-177.38924230002593,0.13343943598466143,-149.98941568096927,11.6626,-0.0131,-2.7132,20.1813,-0.0291,-6.0763,73.7946901226988,26.04298204478651,79.09460086633663,-16.88174777560764,-88.7791019015842,-46.19045681423611,0.979496417659344,-0.0,0.4907747778562036,-0.4827711317274305,-0.06785074869791667,1.0177951388888888,-0.7183,-0.9932,1.163,0.01699,-0.0439,0.00219,0.0009192346478812397,0.0009999030735343695,0.0009066357742995024,0.0004652103816624731,0.0004999310476705432,0.00047221267595887184,0.011169335804879665,0.011333159171044827,0.011565974913537502,passive,1
3.5805,rehab,large_slow,-42.11590010994273,-666.6304883123127,338.5097844136669,-177.38963769696957,0.1337098661482687,-149.98894009894613,11.8408,-0.0311,-2.8033,18.6003,0.0071,-2.1134,73.81098605618618,26.04299564172726,79.10295618642675,-16.89019097222222,-88.77964443630643,-46.1747317843967,1.0339181730062654,0.05441495687654703,0.5093617958597617,-0.5622948540581597,-0.06785074869791667,1.0856458875868056,-0.6521,-1.0865,0.7685,0.01254,-0.04984,0.0054,0.0009192346478812397,0.0009999030735343695,0.0009066357742995024,0.0004652103816624731,0.0004999310476705432,0.00047221267595887184,0.011169335804879665,0.011333159171044827,0.011565974913537502,passive,1
